time,seconds_elapsed,z,y,x
1761396613434774800,0.12677490234375,8.674580574035645,4.409972190856934,-0.16450655460357666
1761396613454152000,0.14615185546875,8.331210136413574,4.381856441497803,-0.23748764395713806
1761396613473529300,0.165529296875,8.064410209655762,4.380660057067871,-0.7561319470405579
1761396613492906500,0.184906494140625,7.836493968963623,4.435096740722656,-0.9678967595100403
1761396613512284000,0.204283935546875,8.268997192382812,4.325026988983154,-0.9188438653945923
1761396613531661300,0.223661376953125,8.86780071258545,4.2592244148254395,-1.1084750890731812
1761396613551038500,0.24303857421875,9.281759262084961,4.2006001472473145,-0.9667003750801086
1761396613570415900,0.262415771484375,9.488140106201172,4.275974273681641,-0.8315058946609497
1761396613589793000,0.28179296875,9.412766456604004,4.249652862548828,-0.9170492887496948
1761396613609170400,0.30117041015625,9.134002685546875,4.246063709259033,-1.1623135805130005
1761396613628547800,0.3205478515625,9.34157943725586,4.183252334594727,-1.0815558433532715
1761396613647925000,0.339925048828125,10.057631492614746,4.049253940582275,-0.6508477330207825
1761396613667302400,0.359302490234375,10.28195858001709,4.147958278656006,-0.381655216217041
1761396613686679600,0.378679443359375,9.862616539001465,4.261018753051758,-0.4145565330982208
1761396613706057000,0.398056884765625,9.45882797241211,4.41475772857666,-0.4253242313861847
1761396613725434400,0.417434326171875,9.0514497756958,4.556532382965088,-0.3966103494167328
1761396613744811500,0.4368115234375,8.637491226196289,4.631906509399414,-0.529412031173706
1761396613764189000,0.45618896484375,8.313263893127441,4.816751956939697,-0.3978067636489868
1761396613783566000,0.475566162109375,8.539983749389648,4.731806755065918,0.01136590726673603
1761396613802943500,0.494943603515625,8.645866394042969,4.515256404876709,0.1698904037475586
1761396613822321000,0.51432080078125,7.653443336486816,4.745565414428711,-0.1417747437953949
1761396613841698000,0.533697998046875,6.942774772644043,4.8299126625061035,-0.6227321028709412
1761396613861075500,0.553075439453125,7.159325122833252,4.505086898803711,-1.0761719942092896
1761396613880452600,0.57245263671875,7.136593341827393,4.180261135101318,-1.033101201057434
1761396613899830000,0.591830078125,6.951149940490723,4.216751575469971,-0.6538388133049011
1761396613919207200,0.611207275390625,6.3224358558654785,4.12343168258667,-0.3762713670730591
1761396613938584600,0.63058447265625,6.096313953399658,3.9194436073303223,-0.4630111753940582
1761396613957962000,0.6499619140625,5.876173973083496,3.4031920433044434,-1.160519003868103
1761396613977339100,0.669339111328125,5.494519233703613,4.023531436920166,-0.7268198728561401
1761396613996716500,0.688716552734375,6.0538411140441895,3.373281717300415,0.45583271980285645
1761396614016093700,0.70809375,8.473583221435547,3.6699917316436768,-0.34695929288864136
1761396614035471000,0.72747119140625,11.153544425964355,5.342574596405029,-1.2765709161758423
1761396614054835000,0.7468349609375,9.017352104187012,4.467998027801514,1.211964726448059
1761396614074225700,0.7662255859375,14.58186149597168,4.78385066986084,1.8658034801483154
1761396614093603000,0.78560302734375,21.229122161865234,7.871190071105957,-2.1918256282806396
1761396614112967000,0.804966796875,20.24567222595215,8.70508861541748,-1.4291132688522339
1761396614132357600,0.824357666015625,18.842880249023438,9.497113227844238,-1.155135154724121
1761396614151734800,0.84373486328125,18.119050979614258,9.031110763549805,-1.908874273300171
1761396614171098600,0.8630986328125,9.005388259887695,8.198408126831055,-2.0057835578918457
1761396614190489600,0.882489501953125,7.463811874389648,11.9461669921875,-6.248258113861084
1761396614209866800,0.90186669921875,10.835299491882324,10.433902740478516,-3.728017568588257
1761396614229230600,0.921230712890625,11.212766647338867,6.444469451904297,1.8939191102981567
1761396614248621300,0.940621337890625,8.358129501342773,3.809373617172241,2.4095723628997803
1761396614267998700,0.959998779296875,5.185246467590332,1.0414760112762451,-0.12382857501506805
1761396614287362600,0.979362548828125,5.18823766708374,0.9290133714675903,-1.332802176475525
1761396614306753300,0.998753173828125,5.051846981048584,-0.03349951654672623,-0.11545369029045105
1761396614326130700,1.018130615234375,5.005186557769775,-0.5054838061332703,1.4075778722763062
1761396614345494500,1.03749462890625,5.0015974044799805,-0.898504912853241,2.586641311645508
1761396614364885200,1.05688525390625,4.272983074188232,-0.7639086246490479,2.9078776836395264
1761396614384262700,1.0762626953125,2.9240293502807617,-0.5617151260375977,4.369294166564941
1761396614403626200,1.095626220703125,0.7130611538887024,-0.5066801905632019,4.293920040130615
1761396614423017200,1.115017333984375,-1.6019947528839111,0.6340979933738708,0.8422735929489136
1761396614442394400,1.134394287109375,-2.7140591144561768,2.861217737197876,-5.563312530517578
1761396614461758200,1.15375830078125,-0.623330295085907,3.1274192333221436,-4.3417768478393555
1761396614481149200,1.173149169921875,4.563112735748291,4.34955358505249,-1.545763373374939
1761396614500526300,1.1925263671875,8.739784240722656,6.4666032791137695,-0.99481600522995
1761396614519890200,1.21189013671875,11.636895179748535,9.044271469116211,-1.7479569911956787
1761396614539281000,1.231281005859375,13.733007431030273,11.08475112915039,-3.937987804412842
1761396614558658300,1.250658203125,11.478370666503906,12.997812271118164,-5.78644323348999
1761396614578022100,1.270022216796875,13.345370292663574,13.045668601989746,-0.5042873620986938
1761396614597412900,1.289412841796875,19.159929275512695,11.988041877746582,2.4011974334716797
1761396614616790300,1.308790283203125,21.20160484313965,12.04367446899414,-3.2757742404937744
1761396614636153900,1.32815380859375,16.575679779052734,10.591231346130371,0.48574298620224
1761396614655544800,1.347544921875,9.580862045288086,9.217751502990723,2.18045973777771
1761396614674922000,1.366921875,2.1774685382843018,7.309474945068359,0.5024927258491516
1761396614694285800,1.386285888671875,-1.2837493419647217,5.108676433563232,1.2472587823867798
1761396614713676500,1.405676513671875,-1.2903295755386353,2.947359323501587,1.2526426315307617
1761396614733054000,1.425053955078125,0.4289134442806244,0.8919246196746826,0.02392822690308094
1761396614752417800,1.444417724609375,1.399801254272461,-0.20458634197711945,-2.536990165710449
1761396614771808500,1.46380859375,1.6462619304656982,-0.5665007829666138,-4.158725738525391
1761396614791186000,1.48318603515625,3.2554352283477783,-0.16869398951530457,-3.4851462841033936
1761396614810563000,1.50256298828125,5.0087761878967285,1.6348960399627686,-3.0071799755096436
1761396614829940500,1.5219404296875,2.4981069564819336,1.9256240129470825,-1.252044439315796
1761396614849318000,1.54131787109375,4.369892120361328,3.390629768371582,-1.8335003852844238
1761396614868681500,1.560681396484375,10.133604049682617,5.121238708496094,0.5108676552772522
1761396614888072400,1.580072509765625,12.835699081420898,7.7353973388671875,0.3481557071208954
1761396614907449600,1.59944970703125,11.802597999572754,10.620543479919434,-2.4406790733337402
1761396614926813400,1.6188134765625,14.065011024475098,10.917253494262695,-1.9471594095230103
1761396614946204200,1.6382041015625,15.120245933532715,11.007582664489746,-0.8327022790908813
1761396614965581600,1.65758154296875,17.620746612548828,9.738788604736328,1.0654042959213257
1761396614984945400,1.6769453125,21.14716911315918,8.453842163085938,0.2949153780937195
1761396615004336000,1.696336181640625,19.25803565979004,8.228917121887207,-1.4003994464874268
1761396615023713500,1.715713623046875,12.389437675476074,6.87517786026001,1.215553879737854
1761396615043077400,1.735077392578125,6.545566558837891,5.563910961151123,1.4799607992172241
1761396615062468000,1.754468017578125,2.9551360607147217,4.269991874694824,-0.13040883839130402
1761396615081845500,1.773845458984375,1.537388563156128,3.1178479194641113,-0.8685946464538574
1761396615101209300,1.793209228515625,1.9148563146591187,1.9830517768859863,-1.3818551301956177
1761396615120600000,1.81260009765625,2.795415163040161,1.4530415534973145,-2.1619153022766113
1761396615139977200,1.831977294921875,3.476173162460327,1.0151549577713013,-2.190629243850708
1761396615159354600,1.851354736328125,3.617349624633789,0.8350951075553894,-1.8939191102981567
1761396615178732000,1.87073193359375,2.8348965644836426,1.093519926071167,-0.7178468108177185
1761396615198109200,1.890109130859375,2.310270309448242,1.6761722564697266,0.7848458290100098
1761396615217473000,1.90947314453125,4.319643020629883,2.7912275791168213,2.1678972244262695
1761396615236863700,1.92886376953125,8.933005332946777,4.511667251586914,2.789433002471924
1761396615256241200,1.9482412109375,12.510872840881348,7.239484786987305,2.48315167427063
1761396615275605000,1.96760498046875,10.383055686950684,10.679167747497559,2.3784656524658203
1761396615294995700,1.98699560546875,6.981658458709717,12.935001373291016,2.3814568519592285
1761396615314373000,2.006373046875,8.382058143615723,15.268003463745117,1.532004714012146
1761396615333736700,2.02573681640625,14.853446960449219,12.751352310180664,3.9792640209198
1761396615353127700,2.045127685546875,21.248863220214844,10.88136100769043,3.6335012912750244
1761396615372504800,2.0645048828125,22.31307029724121,9.845269203186035,3.655634880065918
1761396615391868700,2.08386865234375,15.805191993713379,5.941378593444824,5.488536834716797
1761396615411259600,2.103259765625,6.4325056076049805,4.937589645385742,0.9337990283966064
1761396615430636800,2.12263671875,-0.8668000102043152,2.345564365386963,-2.1481566429138184
1761396615450000600,2.142000732421875,-4.708476543426514,-0.09930214285850525,-3.147160053253174
1761396615469391400,2.161391357421875,-4.913661479949951,-2.4364917278289795,-2.3670997619628906
1761396615488768800,2.180768798828125,-3.600001573562622,-3.5371899604797363,-2.266601324081421
1761396615508132600,2.200132568359375,-2.1828525066375732,-3.696911096572876,-3.2273194789886475
1761396615527523300,2.2195234375,-2.3880369663238525,-2.922234535217285,-3.3948171138763428
1761396615546900700,2.238900634765625,-3.607778310775757,-1.6313068866729736,-3.793820381164551
1761396615566264300,2.258264404296875,-2.8145575523376465,-0.4462614357471466,-3.1142587661743164
1761396615585655300,2.2776552734375,-1.4081761837005615,1.0917253494262695,-3.0388846397399902
1761396615605032400,2.297032470703125,2.0985054969787598,3.1579277515411377,-2.173879384994507
1761396615624396300,2.316396240234375,9.708877563476562,6.567699909210205,-0.6227321028709412
1761396615643787300,2.335787353515625,19.99980926513672,9.998409271240234,5.44845724105835
1761396615663164400,2.355164306640625,33.54318618774414,11.120044708251953,11.73559856414795
1761396615682528300,2.3745283203125,49.46502685546875,5.969494342803955,15.342779159545898
1761396615701919000,2.3939189453125,53.129634857177734,5.472983360290527,8.497511863708496
1761396615721296400,2.41329638671875,43.329830169677734,7.365706443786621,3.862015724182129
1761396615740660200,2.43266015625,27.047269821166992,6.530013084411621,5.454439163208008
1761396615760051000,2.452051025390625,6.025127410888672,6.450451850891113,2.4705893993377686
1761396615779428400,2.471428466796875,-7.916055679321289,6.017350673675537,-3.5431721210479736
1761396615798792000,2.4907919921875,-9.553942680358887,2.292922258377075,-0.9577272534370422
1761396615818183000,2.510182861328125,-9.52941608428955,-0.8279166221618652,-0.30209386348724365
1761396615837560000,2.52956005859375,-8.572885513305664,-2.5393829345703125,-0.7471588850021362
1761396615856924000,2.548923828125,-9.175278663635254,-3.3619158267974854,-1.604387640953064
1761396615876314600,2.568314697265625,-9.624530792236328,-3.662813186645508,-1.74496591091156
1761396615895692000,2.587692138671875,-11.073983192443848,-4.177868366241455,-1.689931035041809
1761396615915055900,2.607055908203125,-7.998608112335205,-3.775275945663452,-0.09511470049619675
1761396615934446600,2.626446533203125,-3.607180118560791,-2.688934564590454,1.2323036193847656
1761396615953824000,2.645823974609375,-0.06340979784727097,-1.0187442302703857,1.200000524520874
1761396615973187800,2.665187744140625,5.1840500831604,0.7262216806411743,2.021935224533081
1761396615992578600,2.68457861328125,11.924033164978027,3.52103853225708,2.898306369781494
1761396616011955700,2.703955810546875,16.364513397216797,7.319046497344971,3.3535408973693848
1761396616031319600,2.723319580078125,21.781267166137695,11.56271743774414,3.8321053981781006
1761396616050710500,2.74271044921875,30.832117080688477,13.081561088562012,9.254839897155762
1761396616070087700,2.762087646484375,40.22813415527344,10.699506759643555,17.980268478393555
1761396616089451500,2.781451416015625,47.14518737792969,5.6548380851745605,16.28794288635254
1761396616108842200,2.80084228515625,40.87599182128906,8.11406135559082,3.3613176345825195
1761396616128219600,2.8202197265625,26.54537582397461,6.089135646820068,3.422334671020508
1761396616147583500,2.83958349609375,8.796015739440918,4.684548377990723,6.166304111480713
1761396616166974200,2.85897412109375,-4.387240409851074,3.57906436920166,7.630711555480957
1761396616186351600,2.8783515625,-10.875378608703613,0.8781659007072449,8.060222625732422
1761396616205715500,2.897715576171875,-13.692927360534668,-1.552941918373108,3.0215368270874023
1761396616225106200,2.917106201171875,-11.836695671081543,-2.7421748638153076,-1.1407781839370728
1761396616244483300,2.9364833984375,-7.978269100189209,-3.1926236152648926,-2.242074728012085
1761396616263847200,2.95584716796875,-5.96889591217041,-3.146561861038208,-2.1056840419769287
1761396616283238100,2.975238037109375,-6.385247230529785,-2.754737138748169,-0.7489534616470337
1761396616302615300,2.994615234375,-7.547560691833496,-1.7413766384124756,0.2841476798057556
1761396616321979100,3.013979248046875,-6.711269378662109,-0.5144568681716919,0.06699903309345245
1761396616341369900,3.033369873046875,-4.213162422180176,1.1778669357299805,0.03349951654672623
1761396616360747300,3.052747314453125,1.4171491861343384,3.2895328998565674,0.7202396392822266
1761396616380111000,3.072111083984375,11.58126163482666,5.804389476776123,3.6370904445648193
1761396616399501800,3.091501708984375,23.749961853027344,8.782257080078125,6.835097789764404
1761396616418879200,3.110879150390625,33.55096435546875,11.669198036193848,5.885745525360107
1761396616438243000,3.1302431640625,44.53880310058594,10.85563850402832,12.238689422607422
1761396616457633800,3.1496337890625,49.548179626464844,7.023532867431641,13.789836883544922
1761396616477011200,3.16901123046875,43.334617614746094,6.835097789764404,1.5493526458740234
1761396616496374800,3.188374755859375,29.993432998657227,6.720242500305176,-2.733799934387207
1761396616515765800,3.207765869140625,14.684752464294434,5.516054630279541,0.4205385744571686
1761396616535143000,3.227142822265625,0.7698906660079956,3.910470485687256,2.5770699977874756
1761396616554506800,3.2465068359375,-9.143573760986328,0.8129615187644958,5.255835056304932
1761396616573897500,3.2658974609375,-14.221142768859863,-2.231307029724121,4.01754903793335
1761396616593275000,3.28527490234375,-16.822141647338867,-5.750551223754883,3.1962127685546875
1761396616612638700,3.304638671875,-13.058231353759766,-5.3970112800598145,-0.8656035661697388
1761396616632029400,3.324029541015625,-8.523234367370605,-5.187041282653809,-2.251646041870117
1761396616651406800,3.34340673828125,-5.889933109283447,-4.117449760437012,-1.6205391883850098
1761396616670770700,3.362770751953125,-5.852245807647705,-2.861217737197876,-0.010169495828449726
1761396616690161400,3.382161376953125,-7.439883708953857,-1.5140584707260132,1.322034478187561
1761396616709538800,3.401538818359375,-8.080561637878418,0.014955141581594944,1.8394824266433716
1761396616728902400,3.42090234375,-4.695316314697266,1.8837496042251587,1.3298112154006958
1761396616748293400,3.44029345703125,4.54636287689209,3.535395383834839,5.194219589233398
1761396616767670500,3.45967041015625,20.945573806762695,4.840680122375488,10.555338859558105
1761396616787034400,3.479034423828125,39.78007888793945,5.653641700744629,9.711869239807129
1761396616806425000,3.498425048828125,48.56532669067383,6.102295875549316,8.646464347839355
1761396616825802500,3.517802490234375,46.823951721191406,5.110470771789551,11.531610488891602
1761396616845166300,3.537166259765625,46.153961181640625,4.312464714050293,9.393025398254395
1761396616864557000,3.55655712890625,39.98944854736328,4.76530647277832,3.3930225372314453
1761396616883934500,3.5759345703125,25.977081298828125,4.29033088684082,2.091326951980591
1761396616903298300,3.59529833984375,7.7593255043029785,3.1746773719787598,5.664409637451172
1761396616922689000,3.61468896484375,-8.030911445617676,2.3300111293792725,8.273183822631836
1761396616942066200,3.634066162109375,-16.80658721923828,0.2883351147174835,6.74237585067749
1761396616961430000,3.653429931640625,-17.362321853637695,-2.8666014671325684,2.523829698562622
1761396616980821000,3.672821044921875,-13.50868034362793,-3.9457645416259766,-2.586641311645508
1761396617000198100,3.6921982421875,-7.239484786987305,-4.149752616882324,-4.703691005706787
1761396617019562000,3.71156201171875,-4.396213531494141,-3.8470606803894043,-2.822932481765747
1761396617038952700,3.73095263671875,-5.807380676269531,-3.105883836746216,0.19561325013637543
1761396617058330000,3.750330078125,-9.44447135925293,-1.5589239597320557,1.1874382495880127
1761396617077694000,3.76969384765625,-9.832108497619629,0.4289134442806244,0.7070791125297546
1761396617097084700,3.789084716796875,-4.342374801635742,2.2743778228759766,2.12542462348938
1761396617116462000,3.808462158203125,8.082955360412598,4.579264163970947,4.477569580078125
1761396617135825700,3.82782568359375,23.158336639404297,6.365506649017334,9.078369140625
1761396617155216600,3.847216552734375,35.68476104736328,7.363313674926758,9.287740707397461
1761396617174593800,3.86659375,40.43092727661133,7.89332389831543,3.13220477104187
1761396617193957600,3.88595751953125,38.259437561035156,7.060023307800293,5.08355188369751
1761396617213348600,3.9053486328125,37.48117446899414,5.408975601196289,8.226524353027344
1761396617232725800,3.924725830078125,30.35175895690918,5.361717224121094,3.190829038619995
1761396617252089600,3.944089599609375,15.235101699829102,5.06082010269165,0.26500511169433594
1761396617271480300,3.963480224609375,-1.6169499158859253,4.724628448486328,1.6666009426116943
1761396617290857700,3.982857666015625,-13.365111351013184,2.8342983722686768,3.4953157901763916
1761396617310221600,4.0022216796875,-17.018951416015625,0.20338992774486542,2.4747767448425293
1761396617329612300,4.0216123046875,-15.540186882019043,-2.101496458053589,0.372682124376297
1761396617348989700,4.04098974609375,-8.776275634765625,-3.0388846397399902,-2.5088746547698975
1761396617368353300,4.060353271484375,-2.162513494491577,-2.6835505962371826,-3.985844373703003
1761396617387744300,4.079744140625,-0.11246266216039658,-1.456032633781433,-2.840280532836914
1761396617407121400,4.099121337890625,-2.5920250415802,0.10289137065410614,-1.811964988708496
1761396617426485200,4.1184853515625,-2.6937201023101807,2.0925233364105225,-1.2041879892349243
1761396617445876000,4.1378759765625,1.1228320598602295,3.8327035903930664,1.5254244804382324
1761396617465253400,4.15725341796875,16.20479393005371,4.386641979217529,7.041478633880615
1761396617484617200,4.1766171875,36.0664176940918,5.969494342803955,10.794022560119629
1761396617504008000,4.196008056640625,34.54817199707031,8.065009117126465,2.8558337688446045
1761396617523385300,4.21538525390625,25.319652557373047,9.204590797424316,-1.567897081375122
1761396617542749200,4.234749267578125,23.60938262939453,7.637889862060547,3.7393836975097656
1761396617562140000,4.254139892578125,24.849462509155273,6.567101955413818,4.23230504989624
1761396617581517000,4.27351708984375,18.957138061523438,6.951747894287109,-0.5934200286865234
1761396617600881000,4.292880859375,10.61276626586914,6.356533527374268,-0.5443671345710754
1761396617620271900,4.31227197265625,3.1148569583892822,5.109274387359619,1.1922239065170288
1761396617639649000,4.33164892578125,-2.444268226623535,3.6771702766418457,2.0333011150360107
1761396617659012900,4.351012939453125,-4.173680782318115,1.786242127418518,1.944766640663147
1761396617678403600,4.370403564453125,-3.7016966342926025,0.18843477964401245,1.6564314365386963
1761396617697781000,4.389781005859375,-1.5278172492980957,-0.46719861030578613,0.4085744619369507
1761396617717144800,4.409144775390625,0.0849452018737793,-0.6083751320838928,-0.8422735929489136
1761396617736535600,4.42853564453125,-1.2149556875228882,-0.010169495828449726,-1.0055837631225586
1761396617755913000,4.447912841796875,-2.7433712482452393,1.2681959867477417,-0.46899324655532837
1761396617775276500,4.467276611328125,0.7310073375701904,2.6500511169433594,0.7124629616737366
1761396617794667500,4.48666748046875,8.121838569641113,4.928018093109131,-0.1782652884721756
1761396617814044700,4.506044677734375,21.77169418334961,5.368896007537842,2.4580271244049072
1761396617833408500,4.525408447265625,24.964319229125977,6.9720869064331055,5.327021598815918
1761396617852799200,4.54479931640625,19.016359329223633,10.036694526672363,1.5774682760238647
1761396617872176600,4.5641767578125,16.599609375,12.369098663330078,-1.9657038450241089
1761396617891540500,4.58354052734375,23.513071060180664,8.324629783630371,0.2667997181415558
1761396617910931200,4.60293115234375,30.208189010620117,4.513461589813232,4.309473514556885
1761396617930308600,4.62230859375,20.942581176757812,4.229912281036377,6.864409923553467
1761396617949672400,4.64167236328125,6.632306098937988,5.330610752105713,6.203990936279297
1761396617969063200,4.661063232421875,-0.5527420043945312,5.916851997375488,3.19441819190979
1761396617988440300,4.6804404296875,-1.277169108390808,4.034298896789551,2.4939193725585938
1761396618007804200,4.69980419921875,-1.472184181213379,1.3980066776275635,2.9970104694366455
1761396618027195100,4.719195068359375,1.0037890672683716,0.22193430364131927,0.5545366406440735
1761396618046572300,4.738572265625,2.696112871170044,-0.14057832956314087,-1.7653049230575562
1761396618065936100,4.75793603515625,2.6159534454345703,0.23210379481315613,-2.3700907230377197
1761396618085326800,4.777326904296875,0.5934200286865234,0.7579265832901001,-1.9423737525939941
1761396618104704300,4.796704345703125,-0.5084748268127441,1.7688941955566406,-1.677966833114624
1761396618124068000,4.816068115234375,-1.7455641031265259,2.998805046081543,-0.6855437159538269
1761396618143458800,4.835458740234375,-0.6107679605484009,4.246662139892578,0.6586244106292725
1761396618162836200,4.854836181640625,6.109474182128906,5.848058700561523,0.6963114142417908
1761396618182200000,4.874199951171875,14.418551445007324,6.499504566192627,1.8263218402862549
1761396618201590800,4.8935908203125,17.04347801208496,7.827520847320557,2.964108943939209
1761396618220968000,4.912968017578125,14.294722557067871,9.772287368774414,0.23808585107326508
1761396618240331800,4.932331787109375,12.378669738769531,10.493125915527344,-2.6949164867401123
1761396618259722500,4.951722412109375,17.799610137939453,8.038089752197266,-2.0793628692626953
1761396618279100000,4.971099853515625,28.819156646728516,4.633700847625732,0.5970092415809631
1761396618298463700,4.990463623046875,27.737600326538086,4.512863636016846,3.332005500793457
1761396618317854500,5.0098544921875,14.23849105834961,4.383052825927734,6.234499454498291
1761396618337232000,5.02923193359375,1.174277663230896,4.581058979034424,5.045864582061768
1761396618356595700,5.048595703125,-5.998208045959473,4.4482574462890625,2.103889226913452
1761396618375986400,5.067986328125,-5.554339408874512,3.2781670093536377,0.37088751792907715
1761396618395363600,5.087363525390625,-1.0133603811264038,1.5200406312942505,-0.16510476171970367
1761396618414727400,5.1067275390625,3.772284984588623,1.2263215780258179,-1.1994023323059082
1761396618434118400,5.126118408203125,6.017949104309082,1.4009976387023926,-0.890728235244751
1761396618453495600,5.14549560546875,4.1389851570129395,1.4195420742034912,0.3678964674472809
1761396618472859400,5.164859375,0.4127618968486786,2.6739792823791504,0.38285163044929504
1761396618492250000,5.18425,-0.12323036789894104,4.338785648345947,0.2829512655735016
1761396618511627500,5.20362744140625,4.124628067016602,5.146961688995361,1.3286148309707642
1761396618530991400,5.222991455078125,11.860623359680176,5.012365341186523,3.524627685546875
1761396618550382000,5.242382080078125,15.807584762573242,5.358726501464844,3.954737663269043
1761396618569759500,5.261759521484375,15.144174575805664,8.349754333496094,0.20159530639648438
1761396618589123000,5.281123046875,12.393026351928711,10.479965209960938,-2.6464617252349854
1761396618608514000,5.30051416015625,10.691131591796875,11.109875679016113,-1.5493526458740234
1761396618627891200,5.31989111328125,18.792631149291992,7.634898662567139,2.0757737159729004
1761396618647255000,5.339255126953125,29.25584602355957,4.381856441497803,4.811367988586426
1761396618666646000,5.35864599609375,26.933013916015625,4.734199523925781,4.019941806793213
1761396618686023200,5.378023193359375,15.014364242553711,4.296313285827637,3.9320058822631836
1761396618705387000,5.397386962890625,4.284348964691162,4.327419757843018,2.293520450592041
1761396618724777700,5.41677783203125,-1.5595221519470215,4.5816569328308105,0.8243274092674255
1761396618744155100,5.436155029296875,-2.909672260284424,4.073780536651611,0.9577272534370422
1761396618763519000,5.45551904296875,-2.059622049331665,2.7672994136810303,2.1475582122802734
1761396618782909700,5.47490966796875,-0.03349951654672623,1.4111671447753906,2.3712873458862305
1761396618802287000,5.494287109375,1.7353945970535278,1.062413215637207,1.1958130598068237
1761396618821650700,5.513650634765625,1.3567304611206055,1.29810631275177,-0.13100704550743103
1761396618841041700,5.533041748046875,-1.3046865463256836,2.1672990322113037,-0.39601215720176697
1761396618860418800,5.552418701171875,-2.397010087966919,2.9246275424957275,0.7178468108177185
1761396618879782700,5.57178271484375,0.6143572330474854,3.507279872894287,1.2628121376037598
1761396618899173400,5.59117333984375,7.439883708953857,3.425325632095337,3.1758737564086914
1761396618918550800,5.61055078125,16.46501350402832,2.318047046661377,7.833503246307373
1761396618937914600,5.62991455078125,21.71127700805664,2.8342983722686768,6.066403388977051
1761396618957305300,5.649305419921875,19.676179885864258,6.123831272125244,0.6951149702072144
1761396618976682800,5.668682861328125,15.028122901916504,8.293522834777832,2.5232315063476562
1761396618996046300,5.68804638671875,11.554342269897461,9.741779327392578,5.091926574707031
1761396619015437300,5.707437255859375,13.532010078430176,8.137392044067383,6.907480716705322
1761396619034814500,5.726814453125,18.622739791870117,5.0225348472595215,5.700900077819824
1761396619054178300,5.74617822265625,19.288543701171875,4.880760192871094,2.1206390857696533
1761396619073569000,5.765569091796875,12.397811889648438,5.085944652557373,0.511465847492218
1761396619092946400,5.784946533203125,3.988237142562866,4.923830986022949,-0.9355936646461487
1761396619112310300,5.804310302734375,-1.2747762203216553,3.5922250747680664,-0.6203392744064331
1761396619131701000,5.823700927734375,-2.4819552898406982,2.091326951980591,0.39062830805778503
1761396619151078400,5.843078369140625,0.2835494875907898,0.47557350993156433,1.3806586265563965
1761396619170442200,5.862442138671875,4.632504463195801,-0.42771705985069275,-0.004785645287483931
1761396619189833000,5.8818330078125,7.046862602233887,-0.22911277413368225,-2.311466693878174
1761396619209210000,5.901210205078125,5.0117669105529785,0.6652047038078308,-2.9659037590026855
1761396619228574000,5.920573974609375,2.3497519493103027,2.062613010406494,-2.3258235454559326
1761396619247964700,5.939964599609375,2.0853450298309326,3.1680972576141357,0.3008974492549896
1761396619267342000,5.959342041015625,6.653243541717529,3.139981508255005,3.882952928543091
1761396619286706000,5.978705810546875,14.066805839538574,2.2677977085113525,5.865406513214111
1761396619306096600,5.9980966796875,15.696318626403809,3.445066452026367,3.7423746585845947
1761396619325474000,6.01747412109375,12.809975624084473,6.369693756103516,0.8458628058433533
1761396619344838000,6.036837890625,10.767104148864746,9.5802640914917,2.3401806354522705
1761396619364228600,6.056228515625,12.098709106445312,9.80817985534668,6.0849480628967285
1761396619383605800,6.075605712890625,25.814369201660156,4.262813568115234,6.770491600036621
1761396619402969600,6.094969482421875,37.594234466552734,3.163909673690796,1.5014961957931519
1761396619422360600,6.114360595703125,29.9348087310791,4.794020175933838,-0.07657032459974289
1761396619441737700,6.13373779296875,14.965909004211426,4.574478626251221,1.6857435703277588
1761396619461101600,6.1531015625,2.719442844390869,3.64127779006958,4.83888578414917
1761396619480492300,6.1724921875,-4.526622295379639,2.3090739250183105,5.640480995178223
1761396619499869700,6.19186962890625,-7.131209850311279,0.3439682424068451,2.908475875854492
1761396619519233500,6.211233642578125,-3.5641093254089355,-0.41096729040145874,-1.212562918663025
1761396619538624300,6.230624267578125,1.1240284442901611,0.20039889216423035,-3.0137600898742676
1761396619558001700,6.250001708984375,3.9188451766967773,-0.641276478767395,-1.7509479522705078
1761396619577365200,6.269365234375,1.970489501953125,-0.529412031173706,0.7980063557624817
1761396619596756200,6.288756103515625,-0.35892340540885925,0.722034215927124,1.9363917112350464
1761396619616133400,6.30813330078125,-0.46779683232307434,1.771286964416504,2.620738983154297
1761396619635497200,6.327497314453125,3.092125177383423,2.579462766647339,4.276572227478027
1761396619654888000,6.346887939453125,10.779067993164062,2.561516523361206,5.227719306945801
1761396619674265300,6.366265380859375,16.6719913482666,3.762115478515625,5.881557941436768
1761396619693629200,6.385629150390625,15.654443740844727,6.391827583312988,4.487140655517578
1761396619713020000,6.40502001953125,13.23709487915039,8.819944381713867,1.2011969089508057
1761396619732397300,6.424397216796875,21.22194480895996,8.373682975769043,-0.9535398483276367
1761396619751761000,6.443760986328125,35.620155334472656,4.941178798675537,-0.01196411345154047
1761396619771152000,6.46315185546875,32.608787536621094,5.01715087890625,0.0849452018737793
1761396619790529000,6.482529052734375,18.796220779418945,3.726821184158325,2.523829698562622
1761396619809892900,6.501892822265625,5.298307418823242,4.339982032775879,2.9389843940734863
1761396619829283600,6.52128369140625,-2.7942185401916504,6.164509296417236,2.155933141708374
1761396619848661000,6.540660888671875,-5.054239749908447,5.740381717681885,1.0510473251342773
1761396619868024800,6.56002490234375,-2.0368902683258057,3.776472330093384,0.7597211599349976
1761396619887415600,6.57941552734375,2.616551637649536,3.0077781677246094,0.08075776696205139
1761396619906793000,6.59879296875,4.7371907234191895,2.644667148590088,-0.6275177597999573
1761396619926170000,6.618170166015625,3.9661035537719727,2.268994092941284,-0.5946164131164551
1761396619945547500,6.637547607421875,1.5146567821502686,2.025524377822876,-0.5006981492042542
1761396619964924700,6.656924560546875,-0.24167509377002716,1.9669002294540405,-0.706480860710144
1761396619984302000,6.676302001953125,-0.3756731450557709,2.589034080505371,-1.657029628753662
1761396620003679200,6.69567919921875,1.6713865995407104,3.6017963886260986,-1.7204394340515137
1761396620023056600,6.715056640625,7.1850481033325195,4.305285930633545,1.0342975854873657
1761396620042420500,6.73442041015625,13.920844078063965,5.082355499267578,3.3134610652923584
1761396620061811200,6.753811279296875,17.50708770751953,7.201199531555176,1.0923235416412354
1761396620081188600,6.773188720703125,15.336796760559082,10.173684120178223,-1.3202399015426636
1761396620100552200,6.79255224609375,9.955338478088379,11.327024459838867,-1.638485312461853
1761396620119943200,6.811943115234375,12.375679016113281,9.302098274230957,0.5443671345710754
1761396620139320300,6.8313203125,21.492332458496094,6.6693949699401855,2.606382131576538
1761396620158684200,6.85068408203125,24.09273338317871,6.394220352172852,2.263011932373047
1761396620178075000,6.870074951171875,15.86441421508789,5.3904314041137695,3.3242287635803223
1761396620197452300,6.889452392578125,5.041677474975586,4.8089752197265625,2.094916343688965
1761396620216816000,6.908816162109375,-2.4233310222625732,4.7473602294921875,0.44327038526535034
1761396620236206800,6.928206787109375,-3.933800458908081,4.380660057067871,2.007578134536743
1761396620255584300,6.947584228515625,-3.170490026473999,3.782454490661621,3.8638103008270264
1761396620274948000,6.966947998046875,-2.200798511505127,2.7188446521759033,4.631308078765869
1761396620294338800,6.9863388671875,0.2871387302875519,1.8693926334381104,3.6568312644958496
1761396620313716000,7.005716064453125,3.28773832321167,1.9357935190200806,1.1527422666549683
1761396620333079800,7.025079833984375,4.296911239624023,2.5597219467163086,0.13878370821475983
1761396620352470500,7.044470458984375,3.211766242980957,3.5820555686950684,0.597607433795929
1761396620371848000,7.063847900390625,4.989035129547119,4.884349346160889,0.8530412912368774
1761396620391211800,7.083211669921875,8.899505615234375,6.4085774421691895,0.7854440212249756
1761396620410602500,7.1026025390625,12.620943069458008,8.035696983337402,2.6638097763061523
1761396620429980000,7.12197998046875,17.18405532836914,9.043673515319824,5.021936416625977
1761396620449343500,7.141343505859375,14.221741676330566,9.470791816711426,5.064409255981445
1761396620468734500,7.160734375,9.143573760986328,8.344968795776367,3.9284164905548096
1761396620488111600,7.180111572265625,13.6504545211792,5.499902725219727,3.9116668701171875
1761396620507475500,7.199475341796875,22.808385848999023,3.6604204177856445,2.7912275791168213
1761396620526866400,7.218866455078125,21.81476593017578,3.4163525104522705,1.8873388767242432
1761396620546243600,7.23824365234375,13.13839054107666,3.3481571674346924,2.0374884605407715
1761396620565607400,7.257607421875,3.2691938877105713,3.9792640209198,3.3643085956573486
1761396620584998100,7.276998046875,-5.429912567138672,4.934598445892334,4.980660438537598
1761396620604375600,7.29637548828125,-7.134200572967529,3.67238450050354,5.2839508056640625
1761396620623739400,7.315739501953125,0.06041877344250679,1.9543378353118896,3.183650493621826
1761396620643130000,7.335130126953125,9.127422332763672,2.321038007736206,-0.4731806814670563
1761396620662507300,7.35450732421875,11.240882873535156,2.204387903213501,-1.332802176475525
1761396620681871000,7.37387109375,8.21695327758789,2.000998020172119,-1.7718851566314697
1761396620701261800,7.39326171875,5.378467082977295,3.073580741882324,-1.2681959867477417
1761396620720639200,7.41263916015625,5.817550182342529,5.725426197052002,1.4111671447753906
1761396620740003000,7.432003173828125,10.341779708862305,6.396613121032715,5.925227165222168
1761396620759393800,7.451393798828125,14.018351554870605,7.609774112701416,3.4911282062530518
1761396620778771200,7.470771240234375,13.844273567199707,8.872586250305176,0.23030917346477509
1761396620798148400,7.4901484375,12.320643424987793,8.321639060974121,0.966102123260498
1761396620817525800,7.50952587890625,14.145769119262695,8.413164138793945,1.4757733345031738
1761396620836903000,7.52890283203125,16.597814559936523,8.458627700805664,0.39601215720176697
1761396620856266800,7.548266845703125,14.335400581359863,9.000003814697266,3.2165517807006836
1761396620875657500,7.567657470703125,9.400801658630371,8.24985408782959,4.905884742736816
1761396620895035000,7.587034912109375,4.600201606750488,6.6484575271606445,2.882154941558838
1761396620914398700,7.606398681640625,2.7978079319000244,4.252644062042236,2.1361923217773438
1761396620933789400,7.62578955078125,3.1788649559020996,3.656233072280884,0.2925225794315338
1761396620953166800,7.645166748046875,3.9702908992767334,3.497110366821289,-0.486939400434494
1761396620972530400,7.664530517578125,6.244070529937744,2.947359323501587,-0.268594354391098
1761396620991921400,7.68392138671875,8.38145923614502,2.318047046661377,0.5018945336341858
1761396621011298600,7.703298583984375,7.274778842926025,1.8418751955032349,0.906281590461731
1761396621030662400,7.722662353515625,4.780261516571045,1.4057832956314087,0.7226324677467346
1761396621050053000,7.74205322265625,2.538186550140381,1.072582721710205,0.5946164131164551
1761396621069430500,7.761430419921875,0.859621524810791,1.165902853012085,1.4344971179962158
1761396621088794400,7.78079443359375,2.932404041290283,1.3836497068405151,2.2121646404266357
1761396621108185000,7.80018505859375,9.10110092163086,1.7647067308425903,1.5068800449371338
1761396621127562200,7.819562255859375,11.916854858398438,5.1182475090026855,-2.3515465259552
1761396621146926000,7.838926025390625,11.1104736328125,6.726224422454834,-1.862214207649231
1761396621166317000,7.858317138671875,9.640084266662598,8.150551795959473,1.5553346872329712
1761396621185694200,7.877694091796875,10.088738441467285,9.824331283569336,3.637688636779785
1761396621205058000,7.89705810546875,12.801002502441406,8.188239097595215,3.583251953125
1761396621224448800,7.91644873046875,17.161922454833984,5.099703311920166,3.056830883026123
1761396621243826200,7.935826171875,19.00379753112793,5.1876397132873535,2.5010979175567627
1761396621263190000,7.95518994140625,16.590038299560547,7.328617572784424,2.1020946502685547
1761396621282580700,7.974580810546875,10.229316711425781,6.876374244689941,1.6085749864578247
1761396621301958000,7.9939580078125,5.244469165802002,3.33858585357666,0.9804590940475464
1761396621321321700,8.01332177734375,3.551547050476074,1.3770694732666016,-0.13998012244701385
1761396621340712400,8.03271240234375,4.06121826171875,0.44446679949760437,-0.7722834944725037
1761396621360089900,8.05208984375,4.902893543243408,-0.29730820655822754,0.6203392744064331
1761396621379453700,8.07145361328125,5.183452129364014,-0.02153540402650833,3.1244282722473145
1761396621398844400,8.090844482421875,4.318446636199951,0.35114672780036926,3.8488552570343018
1761396621418221800,8.110221923828124,4.600799560546875,1.0342975854873657,3.0687949657440186
1761396621437585400,8.12958544921875,5.053641319274902,2.9521448612213135,0.8811569213867188
1761396621456976400,8.148976318359376,4.223930358886719,3.8225340843200684,-0.4504488706588745
1761396621476353500,8.168353515625,5.578866004943848,4.8059844970703125,-1.506281852722168
1761396621495717400,8.18771728515625,9.309276580810547,6.27996301651001,-1.583450436592102
1761396621515108000,8.207108154296876,10.607980728149414,7.134200572967529,0.0687936544418335
1761396621534485500,8.226485595703124,11.512468338012695,8.925827026367188,-0.08015955984592438
1761396621553849300,8.245849365234376,13.25145149230957,10.28195858001709,-1.2999008893966675
1761396621573240000,8.265239990234376,10.017552375793457,10.374680519104004,-1.3728820085525513
1761396621592617500,8.284617431640624,7.3914289474487305,10.7826566696167,-0.32123643159866333
1761396621611981000,8.30398095703125,10.346565246582031,9.710074424743652,0.9942178130149841
1761396621631372000,8.3233720703125,16.1970157623291,5.84147834777832,1.9669002294540405
1761396621650749200,8.342749267578125,16.576278686523438,3.6293137073516846,2.2636101245880127
1761396621670113000,8.362113037109374,10.905887603759766,2.482553482055664,3.092125177383423
1761396621689503700,8.381503662109376,4.47278356552124,2.000998020172119,2.455035924911499
1761396621708881200,8.400881103515625,1.0187442302703857,1.9561325311660767,-0.33439695835113525
1761396621728245000,8.420244873046874,4.724628448486328,2.26959228515625,-1.5565310716629028
1761396621747635700,8.4396357421875,8.57767105102539,1.536790370941162,1.0618150234222412
1761396621767012900,8.459012939453125,8.36710262298584,1.6325032711029053,2.4436700344085693
1761396621786376700,8.478376708984374,3.091526746749878,1.6785650253295898,1.581655740737915
1761396621805767700,8.497767578125,1.1162517070770264,1.4781662225723267,-0.4247260093688965
1761396621825144800,8.517144775390625,-0.34695929288864136,0.5054838061332703,-1.6588243246078491
1761396621844508700,8.5365087890625,-0.4731806814670563,1.301695466041565,-2.7846474647521973
1761396621863899400,8.5558994140625,4.216751575469971,3.594019651412964,-2.9461629390716553
1761396621883276500,8.575276611328125,9.408578872680664,4.442275047302246,-2.283949136734009
1761396621902640400,8.594640380859374,8.92821979522705,7.143772125244141,-5.589633464813232
1761396621922031400,8.61403125,10.733604431152344,12.19382381439209,-2.870789051055908
1761396621941408500,8.633408447265625,18.993627548217773,9.612566947937012,14.152947425842285
1761396621960772400,8.6527724609375,22.27837562561035,10.246066093444824,12.54736328125
1761396621980163000,8.6721630859375,26.40240478515625,9.387042999267578,6.817749977111816
1761396621999540500,8.69154052734375,36.02095413208008,8.831908226013184,3.55214524269104
1761396622018904300,8.710904296875,27.731019973754883,7.336394309997559,2.823530673980713
1761396622038295000,8.730294921875,8.889934539794922,6.597609996795654,0.389431893825531
1761396622057672200,8.749672119140625,-1.9914265871047974,5.005186557769775,1.9962122440338135
1761396622077036000,8.7690361328125,-4.865804672241211,2.4568307399749756,3.201596736907959
1761396622096426800,8.7884267578125,-7.584051132202148,-0.6071787476539612,-0.15134602785110474
1761396622115804200,8.80780419921875,-8.873184204101562,-2.215155601501465,-1.2789636850357056
1761396622135168000,8.82716796875,-10.060623168945312,-2.14935302734375,-0.22552353143692017
1761396622154558700,8.846558837890624,-10.27178955078125,-2.094916343688965,-1.1479566097259521
1761396622173936000,8.86593603515625,-7.661818027496338,-1.827518343925476,-1.4644074440002441
1761396622193299700,8.8852998046875,-4.658227443695068,-1.3411771059036255,-1.9645073413848877
1761396622212690700,8.904690673828124,-1.311864972114563,-0.5946164131164551,-3.8524444103240967
1761396622232067800,8.92406787109375,5.833103179931641,0.6514459848403931,-2.5286152362823486
1761396622251431700,8.943431640625,13.456038475036621,3.2685956954956055,1.0217353105545044
1761396622270822400,8.962822509765624,20.6033992767334,6.485745906829834,0.24227328598499298
1761396622290199800,8.98219970703125,30.268009185791016,8.876175880432129,1.0707881450653076
1761396622309563600,9.001563720703125,39.27519226074219,8.732605934143066,4.71445894241333
1761396622328954400,9.020954345703124,43.3842658996582,7.216753005981445,7.58225679397583
1761396622348331500,9.04033154296875,40.182071685791016,5.578866004943848,5.67756986618042
1761396622367695400,9.0596953125,30.30031394958496,5.376672267913818,1.532004714012146
1761396622387086000,9.079086181640625,16.604991912841797,5.279763221740723,2.455634355545044
1761396622406463500,9.09846337890625,4.4620161056518555,4.60139799118042,2.1655044555664062
1761396622425827300,9.117827392578125,-2.9970104694366455,3.596412420272827,0.009571290574967861
1761396622445218000,9.137218017578125,-5.770890235900879,1.7395820617675781,3.331407308578491
1761396622464595200,9.15659521484375,-6.948757171630859,0.15254244208335876,5.344369411468506
1761396622483959000,9.175958984375,-8.666205406188965,-1.0414760112762451,3.968496322631836
1761396622503350000,9.19535009765625,-8.73200798034668,-1.592423439025879,2.0404794216156006
1761396622522727200,9.21472705078125,-7.509275436401367,-1.4757733345031738,-0.3206382393836975
1761396622542091000,9.234091064453125,-5.992824077606201,-1.0929217338562012,-1.4093725681304932
1761396622561481700,9.253481689453125,-5.1182475090026855,-0.4570291340351105,-0.34995031356811523
1761396622580859100,9.272859130859375,-3.6646077632904053,0.4875376224517822,0.019740786403417587
1761396622600223000,9.292222900390625,-0.2913261651992798,1.9184455871582031,-1.7288143634796143
1761396622619613700,9.31161376953125,3.879363775253296,4.634897232055664,-3.6029927730560303
1761396622638990800,9.330990966796875,12.580862998962402,7.523034572601318,-0.42412781715393066
1761396622658354700,9.350354736328125,25.070798873901367,10.752148628234863,6.448058605194092
1761396622677745400,9.369745361328125,37.048072814941406,9.600603103637695,14.46341609954834
1761396622697122800,9.389122802734375,48.28536605834961,7.189235687255859,14.414961814880371
1761396622716486700,9.408486572265625,46.54817581176758,6.401398658752441,8.564510345458984
1761396622735877400,9.42787744140625,30.603004455566406,6.9236321449279785,5.427519798278809
1761396622755254500,9.447254638671875,11.112866401672363,6.860820770263672,5.776872158050537
1761396622774618400,9.466618408203125,-1.7820546627044678,5.624927997589111,5.271388053894043
1761396622794009300,9.48600927734375,-7.779066562652588,5.1565327644348145,1.3728820085525513
1761396622813386500,9.505386474609375,-9.336793899536133,1.2939188480377197,2.6117658615112305
1761396622832750300,9.524750244140625,-8.127820014953613,-1.103689432144165,2.334198474884033
1761396622852141000,9.54414111328125,-5.07936429977417,-2.4717857837677,0.16749759018421173
1761396622871518500,9.5635185546875,-3.432504177093506,-2.6297121047973633,-1.9202401638031006
1761396622890895600,9.5828955078125,-4.18863582611084,-2.097907304763794,-1.1324033737182617
1761396622910273000,9.60227294921875,-6.4187469482421875,-1.205384373664856,0.3326023519039154
1761396622929650200,9.621650146484376,-6.057430744171143,0.5240281820297241,1.332203984260559
1761396622949014000,9.641013916015625,-1.8197416067123413,2.827120065689087,0.9074779748916626
1761396622968404700,9.66040478515625,7.189833641052246,4.362713813781738,2.6153552532196045
1761396622987782100,9.6797822265625,22.79043960571289,6.227919101715088,5.268397331237793
1761396623007146000,9.69914599609375,32.015968322753906,7.3746795654296875,5.719444274902344
1761396623026536700,9.71853662109375,26.079374313354492,11.428120613098145,-0.09631111472845078
1761396623045913900,9.737913818359376,19.063020706176758,12.43250846862793,-0.3439682424068451
1761396623065277700,9.757277587890625,16.09950828552246,12.06640625,2.4993033409118652
1761396623084668400,9.77666845703125,15.196816444396973,11.35513973236084,2.4717857837677
1761396623104045800,9.7960458984375,16.89153289794922,9.616155624389648,1.2592228651046753
1761396623123409700,9.81540966796875,17.18106460571289,7.974081516265869,0.030508488416671753
1761396623142800400,9.83480029296875,13.395021438598633,6.209374904632568,1.8526428937911987
1761396623162177500,9.854177490234376,7.558328628540039,5.224728107452393,3.1896326541900635
1761396623181541400,9.873541259765625,1.7234305143356323,4.445266246795654,3.0861430168151855
1761396623200932400,9.892932373046875,-1.9256240129470825,2.9563324451446533,3.662813186645508
1761396623220309500,9.9123095703125,-2.50289249420166,-0.025722842663526535,5.035097122192383
1761396623239673300,9.93167333984375,-0.9678967595100403,-1.7575281858444214,1.698904037475586
1761396623259064000,9.95106396484375,2.245065927505493,-1.5846468210220337,-1.6372889280319214
1761396623278441500,9.97044140625,1.5379867553710938,-2.073979139328003,-1.5960127115249634
1761396623297805000,9.98980517578125,-0.2183450609445572,-1.3214362859725952,-1.0253244638442993
1761396623317196000,10.009196044921875,-1.1754741668701172,-0.05563312768936157,-0.7579265832901001
1761396623336573200,10.0285732421875,-0.8763712644577026,2.0333011150360107,-0.6382854580879211
1761396623355937000,10.04793701171875,2.9425735473632812,4.382454872131348,0.009571290574967861
1761396623375327700,10.06732763671875,10.201799392700195,7.052844524383545,-1.0223335027694702
1761396623394705200,10.086705078125,14.298311233520508,10.649256706237793,-1.1168500185012817
1761396623414068700,10.10606884765625,16.223337173461914,12.783655166625977,1.689931035041809
1761396623433459700,10.125459716796875,16.7862491607666,13.317254066467285,0.646660327911377
1761396623452836900,10.1448369140625,16.26760482788086,13.536795616149902,-1.9130617380142212
1761396623472200700,10.16420068359375,18.288942337036133,11.741580963134766,-2.035095691680908
1761396623491591400,10.18359130859375,20.98146629333496,10.753344535827637,-3.678964853286743
1761396623510968800,10.20296875,18.33440589904785,10.071390151977539,-3.277568817138672
1761396623530332700,10.222332763671876,11.538788795471191,7.936394691467285,-0.32303106784820557
1761396623549723400,10.241723388671875,6.525825500488281,5.432305812835693,0.8201399445533752
1761396623569100500,10.2611005859375,1.3800604343414307,3.0825538635253906,1.1078768968582153
1761396623588464400,10.28046435546875,-0.5096712112426758,1.1982059478759766,2.4598217010498047
1761396623607855000,10.299855224609376,3.899104595184326,0.7848458290100098,2.2360928058624268
1761396623627232500,10.319232421875,7.114459991455078,0.3595215976238251,0.18364913761615753
1761396623646609700,10.338609619140625,5.703890800476074,0.2584248483181,0.3122633695602417
1761396623665987000,10.357987060546876,3.418745279312134,1.7096717357635498,0.3798605799674988
1761396623685364200,10.3773642578125,1.5780665874481201,2.2648067474365234,-0.12143574655056
1761396623704728000,10.39672802734375,2.6177480220794678,3.5437703132629395,-0.41934216022491455
1761396623724118800,10.416118896484376,5.014159679412842,4.575675010681152,-0.14476576447486877
1761396623743496200,10.43549609375,6.7902326583862305,5.991029739379883,0.36251261830329895
1761396623762860000,10.454860107421876,7.836493968963623,7.57507848739624,-0.16091732680797577
1761396623782250800,10.474250732421876,7.229315280914307,10.037891387939453,-2.5220351219177246
1761396623801628000,10.4936279296875,6.371488571166992,11.70449161529541,-4.3417768478393555
1761396623820991700,10.51299169921875,6.245865345001221,12.784253120422363,-4.622933387756348
1761396623840382700,10.5323828125,6.497111797332764,13.603795051574707,-1.500898003578186
1761396623859759900,10.551759765625,8.372486114501953,11.679367065429688,0.8321040868759155
1761396623879123700,10.571123779296874,14.759528160095215,8.685946464538574,-0.275174617767334
1761396623898514400,10.590514404296876,21.049062728881836,6.7106709480285645,2.554936408996582
1761396623917891800,10.609891845703125,18.055044174194336,5.418546676635742,4.932205677032471
1761396623937255400,10.62925537109375,9.595218658447266,4.240081787109375,2.0853450298309326
1761396623956646400,10.648646484375,0.7094719409942627,3.912863254547119,-0.6753742098808289
1761396623976023600,10.6680234375,-1.4488540887832642,3.607180118560791,-1.4380863904953003
1761396623995387400,10.687387451171874,2.1583259105682373,2.3371894359588623,0.18305093050003052
1761396624014778000,10.706778076171876,8.180462837219238,1.1665010452270508,1.0408778190612793
1761396624034155500,10.726155517578125,10.03011417388916,0.8943174481391907,1.2167502641677856
1761396624053519000,10.74551904296875,5.6069817543029785,0.9774680733680725,0.23808585107326508
1761396624072910000,10.76491015625,0.9810572862625122,2.222334146499634,-0.6765705943107605
1761396624092287200,10.784287353515625,1.5080764293670654,2.6709883213043213,-0.32303106784820557
1761396624111651000,10.803651123046874,3.135794162750244,3.245863914489746,-1.1928220987319946
1761396624131041800,10.823041748046874,8.632107734680176,3.4809587001800537,0.28115665912628174
1761396624150419200,10.842419189453125,11.484950065612793,4.284348964691162,0.4630111753940582
1761396624169783000,10.861782958984374,6.109474182128906,6.6729841232299805,-1.6947166919708252
