time,seconds_elapsed,z,y,x
1761396613438499000,0.1304990234375,-0.10918894410133362,-0.14645062386989594,0.020157959312200546
1761396613457876500,0.14987646484375,-0.22647161781787872,-0.1588202863931656,0.021226942539215088
1761396613477253600,0.169253662109375,-0.26663482189178467,-0.07406523078680038,-0.03023693896830082
1761396613496631000,0.188631103515625,-0.2518217861652374,-0.024281177669763565,-0.14751961827278137
1761396613516008200,0.20800830078125,-0.2716743052005768,-0.08780929446220398,-0.251974493265152
1761396613535385600,0.227385498046875,-0.2498365342617035,-0.03680354729294777,-0.2554868757724762
1761396613554762800,0.2467626953125,-0.23655059933662415,-0.008399149402976036,-0.19409671425819397
1761396613574140200,0.26614013671875,-0.2596100866794586,-0.03665083646774292,-0.11926792562007904
1761396613593517600,0.285517578125,-0.2677038013935089,-0.0916270911693573,-0.05650337040424347
1761396613612894700,0.304894775390625,-0.22754059731960297,-0.23777230083942413,-0.06306997686624527
1761396613632272100,0.324272216796875,-0.14049486815929413,-0.37735089659690857,-0.144465371966362
1761396613651649300,0.343649169921875,-0.07314895838499069,-0.24815669655799866,-0.07696675509214401
1761396613671026700,0.363026611328125,-0.0594048947095871,-0.16309621930122375,0.09422318637371063
1761396613690404000,0.382404052734375,-0.05131116881966591,-0.22463907301425934,0.2551814317703247
1761396613709781200,0.40178125,-0.02473931387066841,-0.19898349046707153,0.4083513915538788
1761396613729158700,0.42115869140625,-0.01847812905907631,-0.22708246111869812,0.4900522232055664
1761396613748535800,0.440535888671875,0.022754060104489326,-0.3429907262325287,0.4214846193790436
1761396613767913200,0.459913330078125,0.1385096162557602,-0.26342788338661194,0.2805316150188446
1761396613787290600,0.47929052734375,0.16737215220928192,-0.020616095513105392,0.21562908589839935
1761396613806667800,0.498667724609375,0.09208522737026215,0.1298050433397293,0.2835858464241028
1761396613826045200,0.518045166015625,0.001985253533348441,0.1588202863931656,0.2773246467113495
1761396613845422300,0.53742236328125,0.011453386396169662,0.1957765519618988,0.17393875122070312
1761396613864799700,0.5567998046875,0.10995250940322876,0.10781454294919968,0.11606097966432571
1761396613884177200,0.57617724609375,0.15179555118083954,-0.04474456235766411,0.07803573459386826
1761396613903554300,0.59555419921875,0.10949437320232391,-0.04688252881169319,-0.021990500390529633
1761396613922931700,0.614931640625,0.0784938707947731,0.4318690001964569,-0.06490252166986465
1761396613942308900,0.634308837890625,0.024433890357613564,0.6377245187759399,-0.149199441075325
1761396613961686300,0.653686279296875,0.05329642444849014,0.16996824741363525,-0.3692571818828583
1761396613981063400,0.6730634765625,0.05360184609889984,-0.11453386396169662,-0.5639647245407104
1761396614000440800,0.69244091796875,-0.11010521650314331,-0.3151971995830536,-0.694227933883667
1761396614019818200,0.711818359375,-0.10796725004911423,-0.858393132686615,-0.7615737915039062
1761396614039195400,0.7311953125,0.3052709102630615,-1.4290771484375,-0.5709894895553589
1761396614058572800,0.75057275390625,0.4844018816947937,-0.533727765083313,-0.22906772792339325
1761396614077950000,0.769949951171875,0.11942064017057419,0.27029991149902344,0.26190075278282166
1761396614097313800,0.789313720703125,-0.026571854948997498,0.2599155008792877,1.1580137014389038
1761396614116704500,0.80870458984375,-0.06810946762561798,0.3811686933040619,1.8349851369857788
1761396614136082000,0.82808203125,0.2092151790857315,0.880994439125061,2.045880079269409
1761396614155445800,0.84744580078125,0.4566083252429962,1.2594143152236938,2.1672861576080322
1761396614174836500,0.86683642578125,-0.023823043331503868,2.296480178833008,1.2261232137680054
1761396614194214000,0.8862138671875,0.2226538211107254,2.936342716217041,0.03665083646774292
1761396614213577700,0.90557763671875,0.45172154903411865,1.994416356086731,-0.14095300436019897
1761396614232968400,0.924968505859375,-0.08154810965061188,-0.17286977171897888,-0.18249061703681946
1761396614252345900,0.944345947265625,-0.7036960124969482,-1.1945117712020874,-0.17592400312423706
1761396614271709400,0.96370947265625,-0.8012788891792297,0.3239017724990845,-0.12736165523529053
1761396614291100400,0.983100341796875,-0.4034646153450012,0.6910209655761719,-0.3823903799057007
1761396614310477600,1.0024775390625,-0.26724568009376526,-0.059710320085287094,-0.26755109429359436
1761396614329841400,1.02184130859375,-0.2996205687522888,-1.063485026359558,0.11025793105363846
1761396614349232000,1.041232177734375,-0.5674771070480347,-1.53047776222229,0.7388197779655457
1761396614368609500,1.060609619140625,-0.867250382900238,-1.4220523834228516,1.403268814086914
1761396614387973400,1.079973388671875,-1.324774980545044,-1.1709941625595093,1.82964026927948
1761396614407364000,1.099364013671875,-2.0257222652435303,-0.9246700406074524,2.0764224529266357
1761396614426741500,1.118741455078125,-2.4974489212036133,-1.028208613395691,1.9576127529144287
1761396614446105300,1.138105224609375,-1.933942437171936,-1.6306567192077637,1.0885298252105713
1761396614465496000,1.15749609375,-0.9787300229072571,-1.7525207996368408,0.17118994891643524
1761396614484873500,1.17687353515625,-0.6349757313728333,-1.1057862043380737,0.036192700266838074
1761396614504237300,1.1962373046875,-0.7322531342506409,-1.024238109588623,0.425607830286026
1761396614523628000,1.2156279296875,-0.983005940914154,-1.4055595397949219,0.7319477200508118
1761396614543005200,1.235005126953125,-1.3724210262298584,-1.586981177330017,1.1364812850952148
1761396614562369000,1.254369140625,-1.021031141281128,-2.4606454372406006,0.5131117105484009
1761396614581760000,1.273760009765625,-0.7308787703514099,-2.2526519298553467,-0.8915315866470337
1761396614601137200,1.29313720703125,-1.032484531402588,-0.5132644176483154,-1.3792930841445923
1761396614620514600,1.3125146484375,-0.7317950129508972,-0.3570402264595032,-0.7908945083618164
1761396614639891700,1.3318916015625,-0.6474980711936951,-0.7705838084220886,-0.22524993121623993
1761396614659269000,1.35126904296875,-0.8266290426254272,-0.6461237072944641,0.16813570261001587
1761396614678633000,1.370633056640625,-0.6795675754547119,-0.0781884491443634,-0.2591519355773926
1761396614698023700,1.390023681640625,-0.719730794429779,0.38223767280578613,-1.112200140953064
1761396614717401000,1.409401123046875,-0.9758284687995911,0.7023216485977173,-1.696628212928772
1761396614736764700,1.4287646484375,-1.128540277481079,0.9101623892784119,-1.7859647274017334
1761396614756155600,1.44815576171875,-0.8893936276435852,0.531742513179779,-1.6718889474868774
1761396614775532800,1.46753271484375,-0.4680617153644562,0.5097520351409912,-1.2032164335250854
1761396614794896600,1.486896728515625,-0.21349111199378967,0.8892409205436707,-0.3196258246898651
1761396614814287600,1.50628759765625,0.02367033064365387,0.3171824514865875,0.8843541145324707
1761396614833664800,1.525664794921875,0.20661908388137817,-0.534338653087616,1.3139324188232422
1761396614853028600,1.545028564453125,0.46210595965385437,-1.6447062492370605,1.0019421577453613
1761396614872419300,1.56441943359375,0.2848075330257416,-2.2031733989715576,0.9171871542930603
1761396614891796700,1.583796630859375,-0.10384403169155121,-1.6439427137374878,1.31790292263031
1761396614911160600,1.60316064453125,-0.21425467729568481,-0.9730796813964844,0.996749997138977
1761396614930551300,1.62255126953125,-0.36543938517570496,-0.946049690246582,0.3727695345878601
1761396614949928700,1.6419287109375,-0.49234288930892944,-1.8023048639297485,-0.5457920432090759
1761396614969292300,1.661292236328125,-0.6229115128517151,-2.2517356872558594,-1.6856330633163452
1761396614988683300,1.680683349609375,-0.45324867963790894,-1.102121114730835,-1.747481346130371
1761396615008060400,1.700060302734375,0.07269082218408585,0.055587101727724075,-0.9715525507926941
1761396615027424300,1.71942431640625,0.10873081535100937,0.5780141949653625,-0.4091149568557739
1761396615046815200,1.738815185546875,-0.3239017724990845,0.6342121958732605,-0.305576354265213
1761396615066192400,1.7581923828125,-0.5241069197654724,0.5349494814872742,-0.4731011986732483
1761396615085556200,1.77755615234375,-0.4512633979320526,0.669030487537384,-0.6198572516441345
1761396615104947000,1.796947021484375,-0.3298575282096863,0.929404079914093,-0.5267030596733093
1761396615124324400,1.816324462890625,-0.16737215220928192,0.9109259843826294,-0.17302247881889343
1761396615143701500,1.835701416015625,-0.004428642801940441,0.6155813336372375,0.25655585527420044
1761396615163079000,1.855078857421875,0.2367033064365387,0.49295374751091003,0.8200624585151672
1761396615182456300,1.874456298828125,0.4088095426559448,0.2683146595954895,1.354095697402954
1761396615201820200,1.893820068359375,0.30435463786125183,-0.44423866271972656,1.5272709131240845
1761396615221211000,1.9132109375,-0.023059483617544174,-1.4667969942092896,1.4664915800094604
1761396615240588000,1.932588134765625,-0.4808894991874695,-2.4320883750915527,1.5714045763015747
1761396615259951900,1.951951904296875,-0.7304205894470215,-2.508291482925415,2.230355978012085
1761396615279342600,1.971342529296875,-0.7647807598114014,-1.52711820602417,2.5301294326782227
1761396615298720000,1.990719970703125,-0.9801044464111328,-1.2893458604812622,1.1931374073028564
1761396615318083800,2.010083740234375,-1.0233218669891357,-2.4345316886901855,-1.2134480476379395
1761396615337474600,2.029474609375,-0.9193251132965088,-2.982767105102539,-2.9807817935943604
1761396615356852000,2.04885205078125,-0.40819868445396423,-1.4235795736312866,-2.817227602005005
1761396615376215800,2.0682158203125,0.11285403370857239,0.15530791878700256,-1.0666919946670532
1761396615395606500,2.0876064453125,-0.27472856640815735,0.7579087615013123,0.8055548071861267
1761396615414984000,2.10698388671875,-0.7656970620155334,0.3836120665073395,1.534448266029358
1761396615434347800,2.12634765625,-0.8133431077003479,-0.08032641559839249,1.064401388168335
1761396615453738500,2.145738525390625,-0.5178457498550415,0.23945212364196777,0.03894151374697685
1761396615473115600,2.16511572265625,-0.44515493512153625,0.7385143637657166,-0.8812998533248901
1761396615492479500,2.1844794921875,-0.6160394549369812,0.6267293095588684,-1.3000357151031494
1761396615511870500,2.203870361328125,-0.5709894895553589,0.2483094036579132,-1.1241116523742676
1761396615531247600,2.22324755859375,-0.372464120388031,-0.13087402284145355,-0.6702521443367004
1761396615550625000,2.242625,-0.22998400032520294,-1.1077715158462524,-0.45828816294670105
1761396615570002200,2.262002197265625,-0.16752485930919647,-2.8187546730041504,-0.5729747414588928
1761396615589379600,2.281379638671875,-0.06688777357339859,-3.4760262966156006,-0.6760551929473877
1761396615608743400,2.300743408203125,0.17348061501979828,-3.2877326011657715,-0.9854493141174316
1761396615628134100,2.320134033203125,0.4737120568752289,-3.0768375396728516,-1.6437900066375732
1761396615647511600,2.339511474609375,0.6771242022514343,-1.9591398239135742,-2.4284231662750244
1761396615666875100,2.358875244140625,0.4359922409057617,-1.2386455535888672,-3.555894613265991
1761396615686266000,2.37826611328125,-0.0656660795211792,0.6977402567863464,-3.0443100929260254
1761396615705643300,2.397643310546875,-0.004886778071522713,2.8222670555114746,-0.6639909744262695
1761396615725007000,2.417007080078125,0.44332239031791687,3.05423641204834,1.9624994993209839
1761396615744398000,2.436398193359375,0.24510246515274048,2.2751007080078125,4.192550182342529
1761396615763775200,2.455775146484375,-0.2858765125274658,1.5982818603515625,4.4938507080078125
1761396615783139000,2.47513916015625,0.31290650367736816,1.6642533540725708,2.843952178955078
1761396615802529800,2.49452978515625,0.5993938446044922,1.4168602228164673,1.4223577976226807
1761396615821907200,2.5139072265625,0.36452311277389526,0.8710681796073914,0.7304205894470215
1761396615841271000,2.53327099609375,0.2426590770483017,0.26434415578842163,0.5613686442375183
1761396615860661800,2.552661865234375,0.2596100866794586,-0.29061058163642883,0.5668662786483765
1761396615880039200,2.5720390625,0.4178195297718048,-0.9759812355041504,0.41140562295913696
1761396615899416300,2.591416259765625,0.6062659025192261,-1.3768497705459595,-0.19715094566345215
1761396615918793700,2.610793701171875,0.7510367035865784,-1.5854541063308716,-0.9756757616996765
1761396615938171000,2.6301708984375,0.6894938349723816,-1.463742733001709,-1.3595932722091675
1761396615957534700,2.64953466796875,0.6920899152755737,-1.1619842052459717,-1.6921995878219604
1761396615976925700,2.66892578125,0.7400414347648621,-1.0599727630615234,-1.9316517114639282
1761396615996302800,2.688302734375,0.754396378993988,-1.1966497898101807,-1.722436547279358
1761396616015666700,2.707666748046875,0.7203416228294373,-0.8574768304824829,-1.315917730331421
1761396616035057400,2.727057373046875,0.71942538022995,-0.9773555994033813,-1.4918416738510132
1761396616054434800,2.746434814453125,0.647803544998169,-2.1850006580352783,-2.2526519298553467
1761396616073798700,2.765798583984375,0.2492256760597229,-1.0682191848754883,-2.6087758541107178
1761396616093189400,2.785189453125,-0.33199548721313477,2.443999767303467,-0.9141329526901245
1761396616112566800,2.80456689453125,0.41980478167533875,3.44838547706604,1.7693190574645996
1761396616131930400,2.823930419921875,1.1173923015594482,2.1889710426330566,3.978142738342285
1761396616151321300,2.8433212890625,1.0453124046325684,1.1264023780822754,4.490185260772705
1761396616170698500,2.862698486328125,0.5673243999481201,1.377002477645874,3.430670976638794
1761396616190062300,2.882062255859375,-0.39384377002716064,2.424147367477417,1.822768211364746
1761396616209453000,2.901453125,-1.0743275880813599,3.3767635822296143,0.26602399349212646
1761396616228830500,2.92083056640625,-1.0083560943603516,2.823336124420166,-0.7734853625297546
1761396616248194300,2.9401943359375,-0.7765395641326904,1.2169604301452637,-0.9184088706970215
1761396616267585000,2.9595849609375,-0.3927747905254364,-0.0981936976313591,-0.5030327439308167
1761396616286962400,2.97896240234375,-0.14553436636924744,-0.876413106918335,-0.11438114941120148
1761396616306339600,2.998339599609375,-0.1256818175315857,-1.3881504535675049,-0.2047865390777588
1761396616325717000,3.017717041015625,-0.11606097966432571,-1.6385977268218994,-0.5957288146018982
1761396616345094400,3.037094482421875,-0.014202198944985867,-1.9675390720367432,-1.1134217977523804
1761396616364458000,3.0564580078125,0.050394900143146515,-2.624047040939331,-1.712510347366333
1761396616383849000,3.075848876953125,-0.0065666078589856625,-2.7850053310394287,-2.0747427940368652
1761396616403226000,3.09522607421875,-0.43385425209999084,-2.117807388305664,-1.7265597581863403
1761396616422590000,3.11458984375,-0.5424323678016663,-1.7169389724731445,-1.8137582540512085
1761396616441980700,3.133980712890625,-0.6572716236114502,-1.4478607177734375,-2.0524468421936035
1761396616461358000,3.153358154296875,-1.2213890552520752,0.8629744648933411,-1.0405782461166382
1761396616480722000,3.172721923828125,-0.7731798887252808,2.733388662338257,1.2044380903244019
1761396616500112600,3.192112548828125,0.30633988976478577,2.1946215629577637,3.390355110168457
1761396616519490000,3.211489990234375,0.7875348329544067,0.8078454732894897,4.583645343780518
1761396616538854000,3.23085400390625,0.8590039610862732,0.1963873952627182,4.549132347106934
1761396616558244600,3.25024462890625,0.3817795515060425,0.2367033064365387,3.5219926834106445
1761396616577621800,3.269621826171875,-0.33291175961494446,0.26632940769195557,1.9544057846069336
1761396616596985600,3.288985595703125,-0.9182561635971069,0.36253786087036133,0.06856760382652283
1761396616616376600,3.30837646484375,-0.9762866497039795,0.5706840753555298,-1.3154596090316772
1761396616635753700,3.327753662109375,-0.6328377723693848,0.5874823331832886,-1.5107779502868652
1761396616655117600,3.34711767578125,-0.2958027720451355,-0.24220094084739685,-1.073564052581787
1761396616674508300,3.36650830078125,-0.3089359998703003,-1.7604618072509766,-0.6449019908905029
1761396616693885700,3.3858857421875,-0.455539345741272,-2.8850317001342773,-0.7806627750396729
1761396616713249500,3.40524951171875,-0.6221479177474976,-2.8314297199249268,-1.6334055662155151
1761396616732640300,3.42464013671875,-0.6088619828224182,-2.4372806549072266,-2.8311243057250977
1761396616752017700,3.444017578125,-0.7175928354263306,-2.7814929485321045,-3.9217920303344727
1761396616771381500,3.463381591796875,-1.4067811965942383,-2.5130255222320557,-4.0717549324035645
1761396616790772200,3.482772216796875,-1.8032211065292358,-1.203674554824829,-2.8543365001678467
1761396616810149400,3.5021494140625,-1.3690614700317383,-0.8510629534721375,-1.4583978652954102
1761396616829513200,3.52151318359375,-1.1578609943389893,-0.2026485800743103,-0.927724301815033
1761396616848904200,3.540904296875,-0.8648070096969604,1.8589608669281006,0.24708771705627441
1761396616868281300,3.56028125,-0.17271706461906433,3.0269007682800293,2.6455795764923096
1761396616887645200,3.579645263671875,0.7067502737045288,2.5531888008117676,4.922970771789551
1761396616907036000,3.599035888671875,0.8371661901473999,1.5310887098312378,5.706840515136719
1761396616926413300,3.618413330078125,0.01817270554602146,0.9630007147789001,4.562723636627197
1761396616945777200,3.637777099609375,-1.1436587572097778,1.5481923818588257,2.352372884750366
1761396616965167900,3.65716796875,-1.7639741897583008,2.0177812576293945,0.26067906618118286
1761396616984545300,3.676545166015625,-1.682120680809021,1.3046170473098755,-1.073258638381958
1761396617003909000,3.6959091796875,-1.0937219858169556,-0.028251685202121735,-1.1642749309539795
1761396617023299800,3.7152998046875,-0.47264307737350464,-1.0017894506454468,-0.3843756318092346
1761396617042677000,3.734677001953125,-0.32283276319503784,-1.629893183708191,0.19806721806526184
1761396617062040800,3.754040771484375,-0.4737120568752289,-2.0054116249084473,-0.10705098509788513
1761396617081431600,3.773431640625,-0.5286883115768433,-2.380471706390381,-1.29163658618927
1761396617100809000,3.79280908203125,-0.5474718809127808,-2.629850149154663,-2.68803334236145
1761396617120172800,3.8121728515625,-0.7702783942222595,-2.8389127254486084,-3.5365002155303955
1761396617139563500,3.8315634765625,-1.2404780387878418,-2.141172409057617,-2.904273271560669
1761396617158941000,3.85094091796875,-1.9258487224578857,-0.9726215600967407,-1.414722204208374
1761396617178304800,3.8703046875,-1.7929893732070923,-1.2708677053451538,-0.4187358021736145
1761396617197695500,3.889695556640625,-0.9909469485282898,-1.1271659135818481,-0.25319617986679077
1761396617217073000,3.909072998046875,-0.6671979427337646,0.8472451567649841,0.5033381581306458
1761396617236436700,3.928436767578125,-0.3184041380882263,2.131551504135132,2.456216812133789
1761396617255827500,3.947827392578125,0.2570139765739441,1.6366125345230103,4.051902770996094
1761396617275204600,3.96720458984375,0.25258535146713257,0.17271706461906433,3.9550833702087402
1761396617294568400,3.986568359375,-0.35597124695777893,-0.3567348122596741,2.1950795650482178
1761396617313959200,4.005959228515625,-1.0109522342681885,0.0916270911693573,-0.008093725889921188
1761396617333336600,4.025336669921875,-1.3693668842315674,0.7267554998397827,-1.9406617879867554
1761396617352700400,4.044700439453125,-1.399909257888794,0.8292251825332642,-2.733388662338257
1761396617372091100,4.064091064453125,-1.0492829084396362,0.08872556686401367,-2.123305082321167
1761396617391468500,4.083468505859375,-0.7577560544013977,-1.210546612739563,-0.8547280430793762
1761396617410832400,4.102832275390625,-0.7111788988113403,-2.617938756942749,-0.27091076970100403
1761396617430223000,4.12222314453125,-0.6277982592582703,-3.4181485176086426,-0.7461498975753784
1761396617449600300,4.141600341796875,-0.5661026835441589,-3.525963068008423,-2.2031733989715576
1761396617468964000,4.160964111328125,-0.894738495349884,-2.76820707321167,-3.057290554046631
1761396617488355000,4.18035498046875,-1.546207070350647,-0.6239804625511169,-1.1251806020736694
1761396617507732200,4.199732177734375,-1.5756804943084717,1.1986349821090698,0.9101623892784119
1761396617527096000,4.219095947265625,-0.8886300325393677,0.020310672000050545,0.5624375939369202
1761396617546486800,4.23848681640625,-0.48394373059272766,-0.6175665855407715,-0.6423059105873108
1761396617565864200,4.2578642578125,-0.33077380061149597,0.9726215600967407,-0.39827242493629456
1761396617585228000,4.27722802734375,0.1298050433397293,1.421594262123108,0.3509317636489868
1761396617604618800,4.29661865234375,0.5983248949050903,0.7878402471542358,0.7869240045547485
1761396617623996200,4.31599609375,0.5512896776199341,0.05528167635202408,0.7218687534332275
1761396617643360000,4.335360107421875,0.2570139765739441,0.09437590092420578,0.16187451779842377
1761396617662750700,4.354750732421875,-0.1426328420639038,0.6349757313728333,-0.4509579837322235
1761396617682128000,4.3741279296875,-0.5616740584373474,0.9729269742965698,-0.7734853625297546
1761396617701491700,4.39349169921875,-0.888171911239624,0.8467870354652405,-0.6491779088973999
1761396617720882400,4.41288232421875,-0.883590579032898,0.5428904891014099,0.03588727489113808
1761396617740259800,4.432259765625,-0.7223268747329712,-0.19394400715827942,0.6626165509223938
1761396617759637200,4.45163720703125,-0.679872989654541,-1.5142903327941895,0.35230615735054016
1761396617779014400,4.471014404296875,-0.8498412370681763,-2.543262481689453,-0.559841513633728
1761396617798391800,4.490391845703125,-0.6713211536407471,-2.4401819705963135,-1.1648857593536377
1761396617817755600,4.509755615234375,-0.18187977373600006,-1.547428846359253,-0.3049654960632324
1761396617837146400,4.529146484375,-0.32344362139701843,0.24708771705627441,1.492452621459961
1761396617856523800,4.548523681640625,-0.7064448595046997,0.7980719208717346,1.5495667457580566
1761396617875887400,4.567887451171875,-0.3458922505378723,-0.6861341595649719,-0.2641914486885071
1761396617895278300,4.5872783203125,0.5949652194976807,-1.0201148986816406,-1.430604338645935
1761396617914655500,4.606655517578125,1.2244433164596558,-0.14751961827278137,-0.004734066314995289
1761396617934019300,4.626019287109375,1.043174386024475,-0.3286358118057251,1.5495667457580566
1761396617953410000,4.64541015625,0.4164451062679291,-0.9081771373748779,1.3432531356811523
1761396617972787500,4.664787353515625,-0.12613995373249054,-0.8570187091827393,0.17806197702884674
1761396617992151300,4.6841513671875,-0.49829864501953125,0.1973036676645279,-0.712247908115387
1761396618011542000,4.7035419921875,-1.0358442068099976,1.4356437921524048,-1.190693974494934
1761396618030919400,4.72291943359375,-1.4593141078948975,1.5023788213729858,-1.0363023281097412
1761396618050283300,4.742283203125,-1.459466814994812,0.6678087711334229,-0.3248180150985718
1761396618069674000,4.761674072265625,-1.2290246486663818,-0.21685077250003815,0.4856235682964325
1761396618089051100,4.781051025390625,-0.9407047629356384,-0.6930062174797058,1.0166025161743164
1761396618108415000,4.8004150390625,-0.6887302994728088,-0.7035433053970337,1.145796775817871
1761396618127806000,4.819805908203125,-0.503948986530304,-0.44255882501602173,0.8232693672180176
1761396618147183000,4.83918310546875,-0.5444176197052002,-0.02641914412379265,0.05405998229980469
1761396618166547000,4.858546875,-0.5650337338447571,-0.1525591015815735,-0.4140017330646515
1761396618185937700,4.877937744140625,-0.5625903010368347,-0.2533488869667053,0.12247487902641296
1761396618205315000,4.897315185546875,-0.9035958051681519,0.10460758954286575,1.0279031991958618
1761396618224679000,4.916678955078125,-1.381278395652771,-0.06978929787874222,0.755770742893219
1761396618244069600,4.936069580078125,-1.1948171854019165,-1.015380859375,-1.0424108505249023
1761396618263447000,4.955447021484375,-0.28343313932418823,-0.6287145614624023,-2.852351188659668
1761396618282810600,4.974810546875,0.46424391865730286,0.5483881235122681,-2.294647693634033
1761396618302201600,4.99420166015625,0.7531746625900269,0.5164713859558105,0.0261137206107378
1761396618321578800,5.013578857421875,0.19302773475646973,-0.476308137178421,1.4791666269302368
1761396618340942600,5.032942626953125,-0.5586197972297668,-1.095096468925476,1.3467655181884766
1761396618360333300,5.052333251953125,-0.7705838084220886,-0.37383851408958435,0.16553960740566254
1761396618379710700,5.071710693359375,-0.733169436454773,0.36513394117355347,-1.0480611324310303
1761396618399074600,5.091074462890625,-0.7611156702041626,0.49020493030548096,-1.4402251243591309
1761396618418465300,5.11046533203125,-0.7172874212265015,0.2160872220993042,-0.8591566681861877
1761396618437842700,5.1298427734375,-0.5740436911582947,-0.2786990702152252,0.27717193961143494
1761396618457206500,5.14920654296875,-0.6061131954193115,-0.6216897964477539,1.2252068519592285
1761396618476597200,5.16859716796875,-0.681858241558075,-0.823116660118103,1.2258176803588867
1761396618495974700,5.187974609375,-0.6656708121299744,-0.8335011005401611,0.5396835803985596
1761396618515338200,5.207338134765625,-0.6389462351799011,-0.6183301210403442,-0.10628741979598999
1761396618534729200,5.226729248046875,-0.7837170362472534,-0.26464956998825073,0.12369657307863235
1761396618554106400,5.2461064453125,-1.0992196798324585,0.2289150059223175,1.065775752067566
1761396618573470200,5.26547021484375,-1.278961420059204,0.16874656081199646,1.567739486694336
1761396618592861000,5.28486083984375,-1.0767710208892822,-1.390135645866394,0.7901309132575989
1761396618612238300,5.30423828125,-0.5577035546302795,-2.1614830493927,-1.4199144840240479
1761396618631602200,5.323602294921875,0.034818295389413834,-0.9956810474395752,-3.043699264526367
1761396618650993000,5.342992919921875,0.16599774360656738,0.030847785994410515,-2.236769914627075
1761396618670370300,5.362370361328125,0.1244601309299469,-0.11147962510585785,-0.15988926589488983
1761396618689734000,5.38173388671875,-0.16874656081199646,-0.7490514516830444,1.012784719467163
1761396618709124900,5.401124755859375,-0.38040512800216675,-0.9028322696685791,0.9565867781639099
1761396618728502000,5.420501953125,-0.3396310806274414,-0.6096255779266357,0.24281178414821625
1761396618747865900,5.439865966796875,-0.2982461750507355,-0.4731011986732483,-0.4199574887752533
1761396618767256800,5.4592568359375,-0.5402944087982178,-0.4766135811805725,-0.7915053367614746
1761396618786634000,5.478634033203125,-0.8794673681259155,-0.4234698712825775,-0.6925480961799622
1761396618805997800,5.497997802734375,-1.1102149486541748,-0.3843756318092346,-0.09834641218185425
1761396618825388500,5.517388427734375,-1.161220669746399,-0.7180509567260742,0.6071822047233582
1761396618844766000,5.536765869140625,-1.1966497898101807,-1.3288981914520264,0.7253811359405518
1761396618864143000,5.55614306640625,-1.3037008047103882,-1.5958384275436401,0.10659284889698029
1761396618883520500,5.5755205078125,-1.3288981914520264,-1.5665178298950195,-0.8367080092430115
1761396618902897700,5.594897705078125,-1.2577345371246338,-1.3198882341384888,-1.4567179679870605
1761396618922261500,5.614261474609375,-1.6408884525299072,-0.31473904848098755,-0.8631271719932556
1761396618941652500,5.633652587890625,-2.1478917598724365,0.5335750579833984,0.6930062174797058
1761396618961029600,5.653029541015625,-2.0125889778137207,-0.13973131775856018,1.7144955396652222
1761396618980393500,5.6723935546875,-1.9117991924285889,-1.2276502847671509,1.4332003593444824
1761396618999784200,5.6917841796875,-1.949671745300293,-1.5191770792007446,-0.1623326539993286
1761396619019161600,5.71116162109375,-1.982962965965271,-1.0708152055740356,-1.8922520875930786
1761396619038525400,5.730525390625,-1.8815622329711914,-0.21914145350456238,-2.2286763191223145
1761396619057916200,5.749916259765625,-1.418692708015442,-0.09437590092420578,-1.0059127807617188
1761396619077293600,5.76929345703125,-1.0717315673828125,-1.0866972208023071,0.1450762301683426
1761396619096657200,5.7886572265625,-0.7847860455513,-2.068176031112671,0.30481278896331787
1761396619116048100,5.808048095703125,-0.5245651006698608,-2.04557466506958,-0.284196674823761
1761396619135425300,5.82742529296875,-0.5983248949050903,-1.2316207885742188,-1.0552386045455933
1761396619154789000,5.8467890625,-1.0349279642105103,-0.3364241421222687,-1.4533582925796509
1761396619174179800,5.866179931640625,-1.5003936290740967,0.0528382882475853,-1.0120211839675903
1761396619193557200,5.88555712890625,-1.5260491371154785,-0.20738264918327332,0.13331741094589233
1761396619212921000,5.904921142578125,-1.3078240156173706,-0.7621846795082092,0.9959864616394043
1761396619232311800,5.924311767578125,-1.0445488691329956,-1.2355912923812866,0.917645275592804
1761396619251689200,5.943689208984375,-0.9407047629356384,-1.4124315977096558,0.08780929446220398
1761396619271052800,5.963052734375,-1.2288719415664673,-1.090667724609375,-0.6201626658439636
1761396619290443800,5.98244384765625,-1.7680974006652832,-0.4747810363769531,-0.22189027070999146
1761396619309821000,6.001821044921875,-2.062983989715576,-0.20814619958400726,0.7307260632514954
1761396619329184800,6.021184814453125,-1.8526997566223145,-0.5099047422409058,0.778982937335968
1761396619348575700,6.04057568359375,-1.6873128414154053,-1.75450599193573,-0.7062921524047852
1761396619367953000,6.059952880859375,-1.7668757438659668,-2.0199191570281982,-3.523366928100586
1761396619387316700,6.079316650390625,-1.7786345481872559,-0.16767756640911102,-4.784766674041748
1761396619406707500,6.09870751953125,-1.1438114643096924,1.0222529172897339,-2.3415303230285645
1761396619426084900,6.1180849609375,-0.4799732267856598,-0.5703786015510559,0.6676560640335083
1761396619445448700,6.13744873046875,-0.18966807425022125,-2.4424726963043213,2.0405352115631104
1761396619464839400,6.15683935546875,-0.36482852697372437,-2.1740055084228516,1.9690661430358887
1761396619484216600,6.176216552734375,-1.0463813543319702,-0.7415685653686523,1.0966235399246216
1761396619503580400,6.195580322265625,-1.7638214826583862,0.23410721123218536,-0.04016320779919624
1761396619522971400,6.214971435546875,-1.9443268775939941,-0.1047603040933609,-0.7010999321937561
1761396619542348500,6.2343486328125,-1.6613517999649048,-0.9152019023895264,-0.49921491742134094
1761396619561726000,6.253725830078125,-1.2559019327163696,-1.290414810180664,0.4894413650035858
1761396619581103000,6.27310302734375,-1.201841950416565,-1.4049487113952637,1.1094512939453125
1761396619600480500,6.29248046875,-1.430604338645935,-1.5827052593231201,0.8670976758003235
1761396619619844400,6.31184423828125,-1.6046957969665527,-1.5982818603515625,0.04978405311703682
1761396619639235000,6.331235107421875,-1.8895032405853271,-1.5010044574737549,-0.7518002390861511
1761396619658612200,6.3506123046875,-2.1970648765563965,-1.7044165134429932,-0.9622371196746826
1761396619677976000,6.36997607421875,-2.363215446472168,-1.2710204124450684,-0.2767138183116913
1761396619697367000,6.389366943359375,-2.5408191680908203,-1.341115117073059,-0.17363333702087402
1761396619716744200,6.408744140625,-2.3186235427856445,-2.562656879425049,-2.0810039043426514
1761396619736108000,6.42810791015625,-1.1627477407455444,-1.5555225610733032,-3.6261420249938965
1761396619755498800,6.447498779296875,-0.03787253051996231,0.11575555801391602,-1.6796772480010986
1761396619774876200,6.466876220703125,0.7403468489646912,-0.9703308939933777,1.5937005281448364
1761396619794240000,6.486239990234375,0.7634063363075256,-3.4489963054656982,3.326826810836792
1761396619813630700,6.505630615234375,0.3830012381076813,-4.729485034942627,2.9952895641326904
1761396619833008000,6.525008056640625,0.03542914241552353,-3.5340569019317627,1.3592878580093384
1761396619852371700,6.544371826171875,-0.19088977575302124,-0.8614473342895508,-0.5491516590118408
1761396619871762700,6.5637626953125,-0.5561764240264893,0.8461761474609375,-1.7826050519943237
1761396619891139800,6.583139892578125,-1.0673028230667114,1.1406044960021973,-1.7847429513931274
1761396619910503700,6.602503662109375,-1.3718101978302002,0.763559103012085,-0.870151937007904
1761396619929894400,6.621894287109375,-1.5860649347305298,0.11453386396169662,0.16279079020023346
1761396619949271800,6.641271728515625,-1.79360032081604,-0.35887277126312256,0.7430956959724426
1761396619968635600,6.6606357421875,-1.8940846920013428,-0.5483881235122681,0.7371399402618408
1761396619988026400,6.6800263671875,-1.7601563930511475,-0.4679090082645416,0.2793098986148834
1761396620007403500,6.699403564453125,-1.3905937671661377,-0.21288026869297028,-0.37979426980018616
1761396620026767400,6.718767333984375,-1.148545503616333,0.1388150453567505,-0.6966713070869446
1761396620046158300,6.738158447265625,-1.3559281826019287,0.22540263831615448,-0.20875705778598785
1761396620065535500,6.757535400390625,-1.4047960042953491,0.19088977575302124,0.6580352187156677
1761396620084899300,6.7768994140625,-1.096165418624878,-0.0038177953101694584,0.9060391783714294
1761396620104290000,6.7962900390625,-0.6281036734580994,-0.5980194807052612,-0.5292991399765015
1761396620123667500,6.81566748046875,0.04550812020897865,-0.4037700295448303,-2.586174488067627
1761396620143031300,6.83503125,0.6016845703125,1.035691499710083,-2.653367757797241
1761396620162422000,6.854422119140625,1.0816577672958374,1.95562744140625,-0.6392516493797302
1761396620181799400,6.87379931640625,1.045465111732483,1.1592353582382202,1.1102149486541748
1761396620201163000,6.8931630859375,0.7953231334686279,-0.02489202655851841,1.5685030221939087
1761396620220554000,6.912553955078125,0.8938222527503967,-0.4309527277946472,0.8067765235900879
1761396620239931100,6.93193115234375,1.0144646167755127,-0.04337015375494957,-0.05543438717722893
1761396620259295000,6.951294921875,0.6858287453651428,0.43568679690361023,-0.5340332388877869
1761396620278685700,6.970685791015625,0.10216420143842697,0.32909396290779114,-0.7692093849182129
1761396620298063000,6.99006298828125,-0.5268557667732239,-0.14767232537269592,-0.8344173431396484
1761396620317427000,7.009427001953125,-0.6962131857872009,-0.28725093603134155,-0.41827765107154846
1761396620336817700,7.028817626953125,-0.561826765537262,-0.1119377613067627,0.20249587297439575
1761396620356195000,7.048195068359375,-0.5265503525733948,0.025808297097682953,0.23792500793933868
1761396620375558700,7.06755859375,-0.506239652633667,0.24128466844558716,-0.09009996801614761
1761396620394949600,7.08694970703125,-0.20997874438762665,0.16538690030574799,-0.46867257356643677
1761396620414326800,7.106326904296875,0.04214845970273018,0.33321717381477356,-0.6184828281402588
1761396620433690600,7.125690673828125,-0.19180603325366974,0.2551814317703247,-0.27197974920272827
1761396620453081300,7.145081298828125,-0.6794148683547974,-0.8777875304222107,-0.4656183123588562
1761396620472458800,7.164458740234375,-0.6033644080162048,-1.6329474449157715,-2.3702399730682373
1761396620491822600,7.183822509765625,0.04107947647571564,-0.4918847680091858,-3.752281904220581
1761396620511213300,7.20321337890625,0.855491578578949,0.9035958051681519,-2.3328256607055664
1761396620530590700,7.2225908203125,1.4428212642669678,0.9691091775894165,0.5563291311264038
1761396620549954300,7.241954345703125,1.6276025772094727,-0.2648022770881653,2.7084968090057373
1761396620569345300,7.26134521484375,1.3718101978302002,-1.4788612127304077,3.217179775238037
1761396620588722400,7.280722412109375,0.5971031785011292,-1.4950486421585083,1.6439427137374878
1761396620608086300,7.300086181640625,-0.22219568490982056,0.15286453068256378,-0.7702783942222595
1761396620627477000,7.31947705078125,-0.7853968739509583,1.2966760396957397,-2.152625799179077
1761396620646854400,7.3388544921875,-0.9177979826927185,1.3281346559524536,-1.3889139890670776
1761396620666218200,7.35821826171875,-0.788451075553894,0.6329904794692993,0.4489727318286896
1761396620685609000,7.37760888671875,-0.656660795211792,-0.07864658534526825,1.5123051404953003
1761396620704986400,7.396986328125,-0.261442631483078,-0.3903313875198364,1.3779187202453613
1761396620724350000,7.416349853515625,-0.01038440316915512,-0.3226800560951233,0.6340594291687012
1761396620743741000,7.435740966796875,-0.37704548239707947,0.2779355049133301,0.26220619678497314
1761396620763118000,7.4551181640625,-0.9930849075317383,0.7200362086296082,0.46867257356643677
1761396620782495500,7.47449560546875,-1.0318737030029297,0.31382277607917786,0.5909947156906128
1761396620801872600,7.49387255859375,-1.0094250440597534,0.4813476502895355,0.3045073449611664
1761396620821250000,7.51325,-0.7502731680870056,0.7576032876968384,0.20936790108680725
1761396620840627200,7.532627197265625,-0.16584503650665283,0.0984991192817688,0.19440214335918427
1761396620860004600,7.552004638671875,0.4540122151374817,-0.5051707029342651,0.04840964451432228
1761396620879381800,7.5713818359375,0.6969767212867737,-0.3173351585865021,-0.09071081876754761
1761396620898745600,7.59074560546875,0.7322531342506409,0.5696150660514832,-0.3374931216239929
1761396620918136600,7.610136474609375,0.45615020394325256,1.1260969638824463,-0.8241856694221497
1761396620937513700,7.629513671875,0.37689274549484253,1.1422843933105469,-1.2530004978179932
1761396620956877600,7.648877685546875,0.5340332388877869,0.818840742111206,-1.3692141771316528
1761396620976268300,7.668268310546875,0.7227849960327148,0.40331190824508667,-1.168398141860962
1761396620995645700,7.687645751953125,0.7991409301757812,-0.1453816443681717,-0.5590779781341553
1761396621015022800,7.70702294921875,0.7721109390258789,-0.4049917459487915,0.16172181069850922
1761396621034400300,7.726400146484375,0.6730009913444519,-0.3536805510520935,0.6998782753944397
1761396621053777400,7.74577734375,0.6323796510696411,-0.0065666078589856625,0.9706363081932068
1761396621073141200,7.765141357421875,0.5074613690376282,0.7594358325004578,0.80280601978302
1761396621092532000,7.784531982421875,0.2814478874206543,1.5417784452438354,0.44988900423049927
1761396621111909400,7.803909423828125,0.14721418917179108,0.9536852836608887,0.30939415097236633
1761396621131273200,7.823273193359375,0.5688515305519104,0.6337540149688721,0.7456917762756348
1761396621150664000,7.842663818359375,1.0370659828186035,1.0776872634887695,1.55170476436615
1761396621170041300,7.862041259765625,0.8527427911758423,0.40575528144836426,1.0790616273880005
1761396621189405000,7.881405029296875,0.41919392347335815,-0.6038225293159485,-0.5511369109153748
1761396621208796000,7.9007958984375,0.4614951014518738,0.31137940287590027,-1.563463568687439
1761396621228173000,7.920173095703125,0.6768187880516052,1.3547065258026123,-1.773136854171753
1761396621247537000,7.939536865234375,0.903901219367981,1.8945428133010864,-1.171757698059082
1761396621266927600,7.958927734375,0.9859074950218201,1.8763700723648071,-0.07024743407964706
1761396621286305000,7.978304931640625,0.8420529365539551,1.190388560295105,0.5648810267448425
1761396621305668900,7.9976689453125,0.7498149871826172,0.6974348425865173,0.5150969624519348
1761396621325059600,8.0170595703125,0.9478822350502014,0.9564340710639954,0.04978405311703682
1761396621344437000,8.03643701171875,1.5602566003799438,0.9642223715782166,-0.5160132050514221
1761396621363800600,8.055800537109375,1.8572810888290405,0.4627167880535126,-0.8052493929862976
1761396621383191600,8.075191650390625,1.4707674980163574,-0.06612421572208405,-0.7693621516227722
1761396621402568700,8.094568603515626,0.7953231334686279,-0.025197450071573257,-0.5404471158981323
1761396621421932500,8.1139326171875,0.17867282032966614,0.38575005531311035,-0.25945737957954407
1761396621441323300,8.1333232421875,0.03497100621461868,1.1928319931030273,0.16401249170303345
1761396621460700700,8.15270068359375,0.18401773273944855,2.1217780113220215,0.564728319644928
1761396621480064500,8.172064453125,0.33169007301330566,1.663184404373169,0.6048914790153503
1761396621499455200,8.191455322265625,0.5685460567474365,0.5384618639945984,0.8115105628967285
1761396621518832400,8.210832275390626,0.5812211632728577,0.34451785683631897,1.3253858089447021
1761396621538196200,8.2301962890625,0.3077143132686615,0.6036698222160339,1.482679009437561
1761396621557587200,8.249587158203125,0.19409671425819397,0.573585569858551,1.7572548389434814
1761396621576964400,8.26896435546875,0.1501157134771347,-0.011300674639642239,1.5949221849441528
1761396621596341800,8.288341796875,-0.028251685202121735,-1.3799039125442505,-0.18798823654651642
1761396621615719000,8.307718994140625,0.15683503448963165,-1.5978237390518188,-2.2630364894866943
1761396621635096300,8.327096435546874,0.7372926473617554,-0.04993676394224167,-2.4310193061828613
1761396621654460200,8.346460205078126,0.9823951125144958,0.9996515512466431,-1.0796725749969482
1761396621673851000,8.365850830078125,0.650094211101532,0.9616262912750244,0.26251161098480225
1761396621693228000,8.38522802734375,0.16721943020820618,0.3387148082256317,0.7171346545219421
1761396621712592000,8.404591796875,0.21425467729568481,-0.3871244490146637,0.028251685202121735
1761396621731982600,8.423982666015625,0.8162446618080139,-0.9672766327857971,-0.8083036541938782
1761396621751360000,8.443360107421874,1.2088667154312134,-0.09590301662683487,-0.30007871985435486
1761396621770723800,8.462723876953126,1.0407310724258423,0.7337802648544312,0.7101099491119385
1761396621790114600,8.482114501953125,0.6629219651222229,0.9495620727539062,1.1097567081451416
1761396621809491700,8.50149169921875,0.5150969624519348,0.8709154725074768,0.8736643195152283
1761396621828855600,8.52085546875,0.5592306852340698,0.836860716342926,0.323596328496933
1761396621848246500,8.54024658203125,0.9475768208503723,1.5627000331878662,-0.2843494117259979
1761396621867623700,8.559623779296874,1.5552171468734741,1.9583762884140015,-0.37475478649139404
1761396621886987500,8.578987548828126,1.6014888286590576,1.1415208578109741,0.5244123935699463
1761396621906378200,8.598378173828126,1.8103985786437988,-0.7650861740112305,1.3032426834106445
1761396621925755600,8.617755615234374,2.464463233947754,-3.202824831008911,0.6739172339439392
1761396621945119500,8.637119384765626,0.9077190160751343,-3.4577009677886963,-0.36574479937553406
1761396621964510200,8.65651025390625,-0.2710634768009186,-0.30374380946159363,-1.480999231338501
1761396621983887400,8.675887451171874,-0.21791976690292358,3.318580389022827,-2.6275594234466553
1761396622003251200,8.695251220703126,-0.11911521852016449,3.4954206943511963,-1.2704095840454102
1761396622022642000,8.714641845703126,-0.2730487287044525,1.8690398931503296,1.1870288848876953
1761396622042019300,8.734019287109374,-0.10934165865182877,1.351194143295288,1.9308881759643555
1761396622061383200,8.753383056640626,0.18065807223320007,1.870261549949646,1.5017679929733276
1761396622080774000,8.77277392578125,-0.1519482582807541,1.6726524829864502,1.164427638053894
1761396622100151300,8.7921513671875,-0.29320669174194336,1.0566130876541138,0.7479824423789978
1761396622119515000,8.811514892578124,-0.10384403169155121,0.5578562617301941,0.2539597451686859
1761396622138905900,8.83090576171875,-0.19623468816280365,0.17470231652259827,-0.26602399349212646
1761396622158283000,8.850282958984375,-0.21685077250003815,-0.07574506103992462,-0.895349383354187
1761396622177646800,8.869646728515624,-0.10949437320232391,-0.530062735080719,-1.3615785837173462
1761396622197037600,8.88903759765625,-0.0035123717971146107,-1.1651911735534668,-1.598129153251648
1761396622216415000,8.9084150390625,0.43981003761291504,-1.6657804250717163,-1.8862963914871216
1761396622235778800,8.92777880859375,1.0146173238754272,-1.8626259565353394,-1.9034000635147095
1761396622255169500,8.94716943359375,0.9801044464111328,-2.0025100708007812,-1.4599249362945557
1761396622274546700,8.966546630859375,0.8287670016288757,-1.825669765472412,-1.2633848190307617
1761396622293910500,8.98591064453125,0.8971819281578064,-1.1241116523742676,-1.1334271430969238
1761396622313301200,9.00530126953125,0.8276980519294739,-0.49768781661987305,-0.9248227477073669
1761396622332678700,9.0246787109375,0.520594596862793,0.2721324563026428,-0.2930539846420288
1761396622352042500,9.04404248046875,0.34421244263648987,1.1346487998962402,0.7343910932540894
1761396622371433200,9.06343310546875,0.7780666947364807,2.1106300354003906,2.045269250869751
1761396622390810600,9.082810546875,0.9333745837211609,1.8464385271072388,2.8593759536743164
1761396622410174200,9.10217431640625,0.666128933429718,0.8588512539863586,2.7932517528533936
1761396622429565200,9.121565185546874,0.961778998374939,0.7218687534332275,2.1428520679473877
1761396622448942300,9.1409423828125,0.9999569654464722,0.8725953102111816,1.439156174659729
1761396622468306200,9.16030615234375,0.41797223687171936,0.7931851744651794,0.9886562824249268
1761396622487697000,9.17969677734375,-0.14858859777450562,0.6981984376907349,0.46989426016807556
1761396622507074300,9.19907421875,-0.483485609292984,0.5285356044769287,-0.04413371533155441
1761396622526438100,9.218438232421875,-0.4706578254699707,0.21776704490184784,-0.3674246370792389
1761396622545828900,9.237828857421874,-0.17882554233074188,-0.30481278896331787,-0.43828290700912476
1761396622565206000,9.2572060546875,-0.03374931216239929,-0.8693883419036865,-0.5083776116371155
1761396622584569900,9.27656982421875,-0.08857285231351852,-1.3401988744735718,-0.7044596076011658
1761396622603960600,9.295960693359374,0.04489727318286896,-1.712815761566162,-0.7479824423789978
1761396622623338000,9.315337890625,0.5274665951728821,-2.2662432193756104,-0.8246437907218933
1761396622642701800,9.334701904296875,0.8993198871612549,-3.3398072719573975,-1.1613733768463135
1761396622662092500,9.354092529296874,0.707361102104187,-3.8607072830200195,-1.6584503650665283
1761396622681470000,9.373469970703125,0.4268295168876648,-1.8401774168014526,-2.3215250968933105
1761396622700833500,9.39283349609375,0.1363716572523117,1.3577607870101929,-1.4289244413375854
1761396622720224300,9.412224365234374,0.19821994006633759,2.334810972213745,0.883590579032898
1761396622739601700,9.4316015625,0.314586341381073,1.968302607536316,2.8076066970825195
1761396622758965500,9.450965576171875,0.1882936656475067,2.1251375675201416,3.2332146167755127
1761396622778356200,9.470356201171874,-0.28282228112220764,2.2427256107330322,2.392841339111328
1761396622797733600,9.489733642578125,-0.4297310411930084,1.7461068630218506,1.142895221710205
1761396622817097500,9.509097412109375,-0.6189410090446472,1.1047172546386719,0.0650552362203598
1761396622836488200,9.52848828125,-0.9095515608787537,0.8826742768287659,-0.5529694557189941
1761396622855865300,9.547865234375,-0.9929322004318237,0.705986738204956,-0.47676628828048706
1761396622875229200,9.567229248046875,-0.6200099587440491,0.17806197702884674,0.10170606523752213
1761396622894620000,9.586619873046875,-0.29091599583625793,-0.682774543762207,0.7395833134651184
1761396622913997300,9.605997314453125,-0.19501298666000366,-1.6457751989364624,0.7146912813186646
1761396622933361200,9.625361083984375,-0.36162158846855164,-2.2404351234436035,-0.09025268256664276
1761396622952751900,9.644751953125,-0.37597647309303284,-2.3326730728149414,-1.2099356651306152
1761396622972129000,9.66412890625,-0.43858832120895386,-2.2830417156219482,-2.329007863998413
1761396622991492900,9.683492919921875,-0.631463348865509,-1.4402251243591309,-1.7009042501449585
1761396623010883600,9.702883544921875,-1.021031141281128,-0.15210096538066864,0.6916317939758301
1761396623030261000,9.722260986328125,-1.032942771911621,-0.20707722008228302,2.0269439220428467
1761396623049624800,9.741624755859375,-0.6988092660903931,-0.9891144037246704,1.5327684879302979
1761396623069015600,9.761015625,-0.5633538961410522,-0.7638645172119141,0.48104220628738403
1761396623088392700,9.780392822265625,-0.4265241026878357,0.04184303805232048,-0.6820109486579895
1761396623107756500,9.799756591796875,-0.1426328420639038,0.6061131954193115,-1.1926792860031128
1761396623127147500,9.8191474609375,0.31504446268081665,0.6004628539085388,-0.6607840061187744
1761396623146524700,9.838524658203125,0.6187883019447327,0.571294903755188,0.4225535988807678
1761396623165888500,9.857888427734375,0.43706122040748596,0.6762079000473022,1.385859727859497
1761396623185279200,9.877279296875,0.18997350335121155,0.439351886510849,1.6176762580871582
1761396623204656600,9.89665673828125,-0.03512371703982353,0.28908345103263855,1.1219737529754639
1761396623224020200,9.916020263671875,-0.7139277458190918,0.48806697130203247,0.4627167880535126
1761396623243411200,9.9354111328125,-1.2226108312606812,1.100441336631775,-0.02092151902616024
1761396623262788400,9.954788330078125,-1.0570712089538574,1.1256388425827026,0.24021568894386292
1761396623282165800,9.974165771484374,-0.800515353679657,0.5978667736053467,0.6897992491722107
1761396623301543000,9.99354296875,-0.7058340311050415,0.06612421572208405,0.7989882230758667
1761396623320920300,10.01292041015625,-0.6980457305908203,-0.5454866290092468,0.5384618639945984
1761396623340284200,10.0322841796875,-0.6650599241256714,-1.0237799882888794,-0.03649812191724777
1761396623359675000,10.0516748046875,-0.691326379776001,-0.9301676750183105,-0.6574243903160095
1761396623379052000,10.071052001953126,-0.624285876750946,-0.9688037633895874,-0.5344913601875305
1761396623398416000,10.090415771484375,-0.3581092059612274,-0.7840224504470825,0.04703523963689804
1761396623417806600,10.109806640625,-0.629172682762146,-0.4622586667537689,0.27197974920272827
1761396623437184000,10.12918408203125,-1.0323318243026733,-0.6329904794692993,-0.17684027552604675
1761396623456547800,10.1485478515625,-0.9165763258934021,-0.4556920528411865,-1.0447015762329102
1761396623475938600,10.1679384765625,-0.6097782850265503,0.23868857324123383,-1.6228684186935425
1761396623495315700,10.187315673828126,-0.23838314414024353,0.23425991833209991,-1.2662863731384277
1761396623514679600,10.206679443359375,0.23273280262947083,-0.474017471075058,-0.3452814221382141
1761396623534070300,10.2260703125,0.3900259733200073,-0.6352811455726624,0.3626905679702759
1761396623553447700,10.24544775390625,0.30572906136512756,-0.44820916652679443,0.6444438695907593
1761396623572811500,10.2648115234375,0.24525517225265503,-0.07986827939748764,0.4471401870250702
1761396623592202200,10.2842021484375,0.10781454294919968,0.474017471075058,-0.2725905776023865
1761396623611579600,10.30357958984375,-0.2307475507259369,0.376740038394928,-0.40331190824508667
1761396623630943200,10.322943115234375,-0.3133646547794342,0.17363333702087402,0.3503209054470062
1761396623650334000,10.342333984375,-0.21303297579288483,0.2644968628883362,1.1800042390823364
1761396623669711400,10.36171142578125,-0.29442837834358215,0.21654535830020905,1.4791666269302368
1761396623689075200,10.3810751953125,-0.33596599102020264,0.16050012409687042,1.278656005859375
1761396623708466000,10.4004658203125,-0.31443363428115845,0.08078455179929733,0.9431481957435608
1761396623727843300,10.41984326171875,-0.24647687375545502,0.08857285231351852,0.922837495803833
1761396623747207000,10.43920703125,-0.3061871826648712,0.08124268800020218,1.1377030611038208
1761396623766598000,10.458597900390625,-0.45324867963790894,0.14217470586299896,1.3638691902160645
1761396623785975000,10.47797509765625,-0.35978904366493225,0.006108472589403391,1.3426423072814941
1761396623805339000,10.4973388671875,-0.17653486132621765,-0.26281702518463135,0.7113316059112549
1761396623824729600,10.5167294921875,0.17989452183246613,-0.04749337583780289,-0.21349111199378967
1761396623844107000,10.53610693359375,0.1519482582807541,-0.30633988976478577,-1.324774980545044
1761396623863470600,10.555470703125,-0.17622943222522736,-1.0158389806747437,-2.9610819816589355
1761396623882861600,10.574861572265625,0.060779303312301636,-1.461146593093872,-3.9530980587005615
1761396623902238700,10.59423876953125,0.21623992919921875,-1.3255385160446167,-2.6202292442321777
1761396623921602600,10.6136025390625,-0.2423536479473114,-0.6636855602264404,-0.21410197019577026
1761396623940993300,10.6329931640625,-0.4683671295642853,-0.2515163719654083,1.1610679626464844
1761396623960370700,10.65237060546875,-0.29885703325271606,0.19348587095737457,0.8890882134437561
1761396623979734300,10.671734375,-0.027029991149902344,0.4749337434768677,-0.20677179098129272
1761396623999125200,10.691125244140625,0.0656660795211792,0.5486935377120972,-0.9243646264076233
1761396624018502400,10.71050244140625,-0.03817795217037201,0.8452599048614502,-0.4474456310272217
1761396624037879800,10.7298798828125,-0.17989452183246613,0.9370396733283997,0.8330429196357727
1761396624057257000,10.749257080078126,-0.31137940287590027,0.5558710098266602,1.663489818572998
1761396624076634400,10.76863427734375,-0.21532365679740906,0.677582323551178,1.5324630737304688
1761396624095998000,10.787998046875,-0.2238755226135254,0.6015318632125854,1.1760337352752686
1761396624115389000,10.807388916015626,-0.04352286830544472,0.15515519678592682,0.7533273696899414
1761396624134766000,10.82676611328125,0.13469181954860687,0.6372663974761963,1.0434798002243042
1761396624154130000,10.8461298828125,0.006413896102458239,0.3996468186378479,2.048170804977417
1761396624173520600,10.865520751953126,-0.034818295389413834,-0.35169529914855957,2.4582021236419678
