time,seconds_elapsed,z,y,x
1761395645635617000,0.161616943359375,-0.4796678125858307,-0.30572906136512756,0.37170055508613586
1761395645655382300,0.18138232421875,-0.40728241205215454,-0.2716743052005768,0.33260634541511536
1761395645694912800,0.220912841796875,-0.2901524603366852,-0.12323843687772751,0.10109522193670273
1761395645714678000,0.240677978515625,-0.2852656841278076,-0.2701472043991089,0.07437065243721008
1761395645734443300,0.260443359375,-0.27060532569885254,-0.3176405727863312,0.04993676394224167
1761395645754208500,0.28020849609375,-0.2515163719654083,-0.254265159368515,-0.01435491070151329
1761395645773974000,0.29997412109375,-0.19318044185638428,-0.16599774360656738,-0.07207997888326645
1761395645793739300,0.3197392578125,-0.0978882759809494,-0.14858859777450562,-0.15866757929325104
1761395645813504500,0.33950439453125,-0.02367033064365387,-0.11377029865980148,-0.21562908589839935
1761395645833269800,0.359269775390625,-0.021379653364419937,-0.08490777015686035,-0.14675605297088623
1761395645852648000,0.37864794921875,-0.02886253222823143,-0.06459710001945496,-0.10918894410133362
1761395645872025900,0.39802587890625,-0.004275931045413017,-0.06261184066534042,-0.15347537398338318
1761395645891403500,0.417403564453125,-0.015576604753732681,-0.08032641559839249,-0.21272756159305573
1761395645910781400,0.436781494140625,-0.04352286830544472,-0.0653606578707695,-0.24815669655799866
1761395645930159000,0.4561591796875,-0.045355409383773804,-0.021837789565324783,-0.20127417147159576
1761395645949537000,0.475537109375,-0.04413371533155441,0.0650552362203598,-0.08368607610464096
1761395645968914700,0.494914794921875,0.026571854948997498,0.10369132459163666,0.008704573847353458
1761395645988292600,0.514292724609375,0.10155335813760757,0.08490777015686035,0.05803048983216286
1761395646007670300,0.533670166015625,0.10766182839870453,0.08139539510011673,0.1175880953669548
1761395646027048200,0.553048095703125,0.11010521650314331,0.08887827396392822,0.1360662281513214
1761395646046425900,0.57242578125,0.11712995916604996,0.08307522535324097,0.09544488787651062
1761395646065803800,0.5918037109375,0.08276980370283127,0.0713164210319519,0.012369656935334206
1761395646085181400,0.611181396484375,0.016187451779842377,0.054518118500709534,-0.0716218426823616
1761395646104559400,0.630559326171875,-0.021990500390529633,0.03161134570837021,-0.08490777015686035
1761395646123937000,0.64993701171875,-0.010537114925682545,0.06291726976633072,-0.039857782423496246
1761395646143315000,0.66931494140625,0.007330167107284069,0.08078455179929733,0.002748812548816204
1761395646162692600,0.688692626953125,-0.0010689827613532543,0.05986303091049194,-0.027793550863862038
1761395646182070500,0.708070556640625,-0.0009162708884105086,0.019088976085186005,-0.08063183724880219
1761395646201448200,0.7274482421875,0.007788302376866341,-0.012675080448389053,-0.08490777015686035
1761395646220826000,0.746826171875,0.011147962883114815,-0.005955760832875967,-0.0781884491443634
1761395646240203800,0.766203857421875,0.03542914241552353,0.04352286830544472,-0.07711946964263916
1761395646259581700,0.785581787109375,0.07085828483104706,0.04718795046210289,-0.06749862432479858
1761395646278959400,0.80495947265625,0.06963659077882767,-0.004428642801940441,-0.04978405311703682
1761395646298337300,0.824337158203125,0.06642963737249374,-0.07467607408761978,-0.0390942245721817
1761395646317715000,0.84371484375,0.06169557198882103,-0.12308572232723236,-0.042759306728839874
1761395646337092600,0.863092529296875,0.06062658876180649,-0.1044548824429512,-0.05268557742238045
1761395646356470500,0.882470458984375,0.05467082932591438,-0.060932014137506485,-0.028557108715176582
1761395646375848200,0.90184814453125,0.056961506605148315,-0.09086353331804276,0.010231691412627697
1761395646395226000,0.92122607421875,0.06047387793660164,-0.10842538625001907,0.02107422985136509
1761395646414604000,0.94060400390625,0.050547610968351364,-0.06306997686624527,0.017714571207761765
1761395646433981700,0.959981689453125,0.00519220158457756,-0.00992626789957285,0.005650337319821119
1761395646453359600,0.979359619140625,-0.04046862944960594,0.0261137206107378,-0.01435491070151329
1761395646472737300,0.9987373046875,-0.07360709458589554,0.06200099736452103,-0.009468132629990578
1761395646492115200,1.018115234375,-0.08994726091623306,0.09513945877552032,0.02764083817601204
1761395646511492900,1.037492919921875,-0.08628217875957489,0.037567105144262314,0.06047387793660164
1761395646530870500,1.05687060546875,-0.08276980370283127,-0.04443913698196411,0.046577103435993195
1761395646550248400,1.07624853515625,-0.06856760382652283,-0.07757759839296341,-0.002748812548816204
1761395646569626000,1.095626220703125,-0.06047387793660164,-0.0659715011715889,-0.08704573661088943
1761395646589004000,1.115004150390625,-0.05405998229980469,-0.042759306728839874,-0.1325538605451584
1761395646608381700,1.134381591796875,-0.027793550863862038,0.049173206090927124,-0.07543963938951492
1761395646627759600,1.153759521484375,-0.02107422985136509,0.10094250738620758,0.031916771084070206
1761395646647137300,1.17313720703125,-0.0015271181473508477,0.06734590977430344,0.06154286116361618
1761395646666515200,1.19251513671875,0.027029991149902344,0.020616095513105392,-0.0050394898280501366
1761395646685892900,1.211892822265625,0.029473381116986275,0.014507622458040714,-0.06734590977430344
1761395646705270800,1.231270751953125,0.007788302376866341,0.030389651656150818,-0.055892523378133774
1761395646724648400,1.2506484375,-0.015271181240677834,-0.018783552572131157,-0.05421269312500954
1761395646744026400,1.2700263671875,-0.05803048983216286,-0.07681404054164886,-0.07070557028055191
1761395646763404000,1.289404052734375,-0.09590301662683487,-0.08628217875957489,-0.11239589750766754
1761395646782782000,1.308781982421875,-0.11025793105363846,-0.03894151374697685,-0.130721315741539
1761395646802159600,1.32815966796875,-0.10063708573579788,-0.025655584409832954,-0.09529217332601547
1761395646821537500,1.34753759765625,-0.11422843486070633,-0.0656660795211792,-0.08490777015686035
1761395646840915200,1.366915283203125,-0.14125843346118927,-0.05772506445646286,-0.12812520563602448
1761395646860293000,1.386293212890625,-0.14522893726825714,-0.012216945178806782,-0.1557660549879074
1761395646879670800,1.4056708984375,-0.12690351903438568,0.016492875292897224,-0.14645062386989594
1761395646899048700,1.425048583984375,-0.12018419802188873,0.028404397889971733,-0.07711946964263916
1761395646918426400,1.44442626953125,-0.07711946964263916,0.07834116369485855,0.01710372418165207
1761395646937804300,1.46380419921875,0.02489202655851841,0.030847785994410515,0.0650552362203598
1761395646957182000,1.483181884765625,0.21746163070201874,0.028557108715176582,0.03955236077308655
1761395646976559900,1.502559814453125,0.26724568009376526,0.04199574887752533,-0.058335911482572556
1761395646995937500,1.5219375,0.2092151790857315,0.06016845628619194,-0.12323843687772751
1761395647015315500,1.5413154296875,0.16340164840221405,0.061084724962711334,-0.12323843687772751
1761395647034693000,1.560693115234375,0.08735115826129913,0.030389651656150818,-0.14186927676200867
1761395647054070800,1.58007080078125,0.033596597611904144,0.06673506647348404,-0.18814095854759216
1761395647073448700,1.59944873046875,0.0456608310341835,0.0916270911693573,-0.18585027754306793
1761395647092826400,1.618826416015625,0.03023693896830082,0.09086353331804276,-0.1566823273897171
1761395647112204300,1.638204345703125,-0.016492875292897224,0.13835690915584564,-0.1313321590423584
1761395647131582200,1.657582275390625,0.01817270554602146,0.19654010236263275,-0.13179029524326324
1761395647150959900,1.6769599609375,0.056961506605148315,0.14629791676998138,-0.16615045070648193
1761395647170337800,1.696337890625,0.016645587980747223,0.05543438717722893,-0.15454435348510742
1761395647189715500,1.715715576171875,-0.0647498071193695,0.0050394898280501366,-0.14767232537269592
1761395647209093400,1.73509326171875,-0.05360184609889984,0.05528167635202408,-0.15744587779045105
1761395647228471000,1.754470947265625,0.03023693896830082,0.06520794332027435,-0.1973036676645279
1761395647247848700,1.7738486328125,0.01817270554602146,0.05726693198084831,-0.21898874640464783
1761395647267226600,1.7932265625,0.0035123717971146107,0.09498675167560577,-0.12522368133068085
1761395647286604300,1.812604248046875,0.05115845799446106,0.06948387622833252,-0.014202198944985867
1761395647305982200,1.831982177734375,0.091932512819767,0.020463382825255394,-0.004275931045413017
1761395647325359900,1.85135986328125,0.11651911586523056,0.034818295389413834,-0.033596597611904144
1761395647344737800,1.87073779296875,0.1426328420639038,0.007635590620338917,-0.07437065243721008
1761395647364115500,1.890115478515625,0.16156910359859467,-0.042606595903635025,-0.06016845628619194
1761395647383493400,1.909493408203125,0.09559759497642517,0.05268557742238045,0.0065666078589856625
1761395647402871000,1.92887109375,0.004123218823224306,0.1632489264011383,0.08735115826129913
1761395647422249000,1.9482490234375,-0.025655584409832954,0.14461809396743774,0.09773556143045425
1761395647441626600,1.967626708984375,-0.05528167635202408,0.009620844386518002,0.023823043331503868
1761395647461004500,1.987004638671875,-0.04230117425322533,0.006108472589403391,-0.06154286116361618
1761395647480382200,2.00638232421875,-0.017714571207761765,0.013285927474498749,-0.09361234307289124
1761395647499760000,2.025760009765625,-0.028251685202121735,-0.01511846948415041,-0.0984991192817688
1761395647519137800,2.0451376953125,-0.01817270554602146,0.09972081333398819,-0.08765657991170883
1761395647538515700,2.064515625,-0.01725643500685692,0.16050012409687042,-0.02870982140302658
1761395647557893400,2.083893310546875,-0.01038440316915512,0.10873081535100937,0.03268032893538475
1761395647577271300,2.103271240234375,0.028404397889971733,0.042453885078430176,-0.006261184345930815
1761395647596649000,2.12264892578125,0.037261683493852615,0.05650337040424347,-0.13576079905033112
1761395647616027000,2.14202685546875,-0.021837789565324783,0.10277505218982697,-0.1820324808359146
1761395647635404500,2.161404541015625,-0.1360662281513214,0.017867282032966614,-0.197609081864357
1761395647654782500,2.180782470703125,-0.09376505762338638,0.043828289955854416,-0.2786990702152252
1761395647674160000,2.20016015625,0.03436015918850899,0.05085303261876106,-0.3978142738342285
1761395647693538000,2.2195380859375,0.013744063675403595,-0.05772506445646286,-0.4553866386413574
1761395647712915700,2.238915771484375,0.004886778071522713,0.020463382825255394,-0.4518742561340332
1761395647732293600,2.258293701171875,0.06795676052570343,-0.058183200657367706,-0.46424391865730286
1761395647751671300,2.27767138671875,0.0922379344701767,-0.16340164840221405,-0.5563291311264038
1761395647771049000,2.297049072265625,0.0525328628718853,-0.2304421216249466,-0.5923691391944885
1761395647790427000,2.316427001953125,0.10918894410133362,-0.3310792148113251,-0.6192464232444763
1761395647809804500,2.335804443359375,0.2848075330257416,-0.35230615735054016,-0.6989619731903076
1761395647829182500,2.355182373046875,0.3710896968841553,-0.29839888215065,-0.8034168481826782
1761395647848560000,2.37456005859375,0.3252761662006378,-0.30252209305763245,-0.8593093752861023
1761395647867938000,2.39393798828125,0.20539739727973938,-0.2683146595954895,-0.7107207775115967
1761395647887315700,2.413315673828125,-0.021837789565324783,-0.08689302206039429,-0.42514967918395996
1761395647906693600,2.432693603515625,-0.149199441075325,0.004581354558467865,-0.12705622613430023
1761395647926071300,2.4520712890625,-0.23502348363399506,0.019241688773036003,0.034665580838918686
1761395647945449200,2.47144921875,-0.21593450009822845,-0.03802524134516716,0.10964708030223846
1761395647964827000,2.490826904296875,-0.21593450009822845,-0.2154763638973236,0.17439688742160797
1761395647984204800,2.510204833984375,-0.1704263836145401,-0.38727715611457825,0.19440214335918427
1761395648003582500,2.52958251953125,-0.058335911482572556,-0.16645587980747223,0.2915268540382385
1761395648022960400,2.54896044921875,-0.08964183181524277,-0.10323318839073181,0.27442312240600586
1761395648042338000,2.568338134765625,-0.13148486614227295,-0.21471281349658966,0.04443913698196411
1761395648061716000,2.587716064453125,-0.24067382514476776,-0.20555010437965393,-0.1185043677687645
1761395648081093600,2.60709375,-0.32512345910072327,-0.25411245226860046,-0.19150061905384064
1761395648100471600,2.626471435546875,-0.3668137788772583,-0.337340384721756,-0.28999972343444824
1761395648119849200,2.64584912109375,-0.3781144618988037,-0.3005368411540985,-0.32939937710762024
1761395648139227100,2.66522705078125,-0.34314343333244324,-0.35138988494873047,-0.1820324808359146
1761395648158604800,2.684604736328125,-0.3367295563220978,-0.30313295125961304,0.03390202298760414
1761395648177982700,2.703982666015625,-0.3295520842075348,-0.18630841374397278,0.145687073469162
1761395648197360400,2.7233603515625,-0.2754921019077301,-0.10796725004911423,0.12736165523529053
1761395648216738300,2.74273828125,-0.21623992919921875,-0.04474456235766411,0.04703523963689804
1761395648236116000,2.762115966796875,-0.15943112969398499,0.05726693198084831,-0.0844496339559555
1761395648255494000,2.781493896484375,-0.11972606182098389,0.15378080308437347,-0.1369825005531311
1761395648274871600,2.80087158203125,-0.07269082218408585,0.18905723094940186,-0.05085303261876106
1761395648294249500,2.82024951171875,0.010231691412627697,0.18875180184841156,0.08887827396392822
1761395648313627100,2.839627197265625,0.07421794533729553,0.12781979143619537,0.16141638159751892
1761395648333004800,2.8590048828125,0.01572931744158268,0.16126367449760437,0.15393351018428802
1761395648352382700,2.8783828125,-0.07345438003540039,0.22845686972141266,0.10796725004911423
1761395648371760400,2.897760498046875,-0.07757759839296341,0.12262758612632751,0.08933641016483307
1761395648391138300,2.91713818359375,-0.017714571207761765,-0.02214321307837963,0.08246438205242157
1761395648410516000,2.936515869140625,0.0325276181101799,-0.01954711228609085,0.030695075169205666
1761395648429894000,2.955893798828125,0.07146912813186646,-0.0006108472589403391,-0.03955236077308655
1761395648449271600,2.975271484375,0.09956810623407364,-0.017714571207761765,-0.09009996801614761
1761395648468649500,2.9946494140625,0.1178935244679451,-0.007330167107284069,-0.10644013434648514
1761395648488027100,3.014027099609375,0.12079504877328873,0.05894676223397255,-0.0853659063577652
1761395648507405000,3.033405029296875,0.12354385852813721,0.029778804630041122,-0.056961506605148315
1761395648526782700,3.05278271484375,0.12644538283348083,-0.0594048947095871,0.0015271181473508477
1761395648546160600,3.07216064453125,0.09177979826927185,-0.091932512819767,0.06429167091846466
1761395648565538300,3.091538330078125,0.06520794332027435,-0.12033691257238388,0.11942064017057419
1761395648584916200,3.110916259765625,0.06200099736452103,-0.10827267915010452,0.14629791676998138
1761395648604294000,3.1302939453125,0.07605048269033432,-0.08689302206039429,0.1447708010673523
1761395648623671800,3.149671875,0.09620844572782516,-0.03588727489113808,0.125987246632576
1761395648643049500,3.169049560546875,0.11835165321826935,0.009773556143045425,0.07925742864608765
1761395648662427400,3.188427490234375,0.13499724864959717,0.04886778071522713,0.042606595903635025
1761395648681805000,3.20780517578125,0.14614520967006683,0.06490252166986465,0.03558185324072838
1761395648701183000,3.227182861328125,0.150421142578125,0.030389651656150818,0.011453386396169662
1761395648720560600,3.246560546875,0.13896775245666504,-0.015423892997205257,-0.03512371703982353
1761395648739938600,3.2659384765625,0.11315945535898209,-0.047798797488212585,-0.045202698558568954
1761395648759316200,3.285316162109375,0.07574506103992462,-0.07895200699567795,-0.014965757727622986
1761395648778694100,3.304694091796875,0.03451287001371384,-0.04474456235766411,-0.014965757727622986
1761395648798071800,3.32407177734375,0.0022906772792339325,0.016492875292897224,-0.011911521665751934
1761395648817449700,3.34344970703125,-0.010078979656100273,-0.012827792204916477,0.0525328628718853
1761395648836827400,3.362827392578125,-0.01969982497394085,-0.038788799196481705,0.07406523078680038
1761395648856205000,3.382205078125,-0.019394399598240852,-0.0035123717971146107,0.04337015375494957
1761395648875583000,3.4015830078125,-0.024433890357613564,-0.01817270554602146,0.014965757727622986
1761395648894960600,3.420960693359375,-0.03665083646774292,-0.0328330397605896,-0.011606098152697086
1761395648914338600,3.440338623046875,-0.03787253051996231,0.00916270911693573,-0.031000498682260513
1761395648933716200,3.45971630859375,-0.043981000781059265,0.06016845628619194,0.0007635590736754239
1761395648953094100,3.47909423828125,-0.05787777900695801,0.06551336497068405,0.023059483617544174
1761395648972471800,3.498471923828125,-0.051769305020570755,0.043981000781059265,0.010537114925682545
1761395648991849700,3.517849609375,-0.04489727318286896,0.025502873584628105,0.020157959312200546
1761395649011227400,3.537227294921875,-0.043981000781059265,0.028557108715176582,0.03833066672086716
1761395649030605300,3.556605224609375,-0.041384901851415634,0.05070032179355621,0.025808297097682953
1761395649049983000,3.57598291015625,-0.033596597611904144,0.05070032179355621,-0.004428642801940441
1761395649069361000,3.59536083984375,-0.022906772792339325,0.039857782423496246,-0.013133215717971325
1761395649088738600,3.614738525390625,-0.0024433890357613564,0.03542914241552353,-0.0038177953101694584
1761395649108116500,3.634116455078125,0.0068720318377017975,0.0397050715982914,0.009773556143045425
1761395649127494100,3.653494140625,0.009009997360408306,0.015271181240677834,0.015271181240677834
1761395649146872000,3.6728720703125,0.01725643500685692,0.009620844386518002,-0.0038177953101694584
1761395649166249700,3.692249755859375,0.029167955741286278,0.02870982140302658,-0.046577103435993195
1761395649185627600,3.711627685546875,0.026724567636847496,0.011453386396169662,-0.0716218426823616
1761395649205005300,3.73100537109375,0.021379653364419937,-0.02076880633831024,-0.06673506647348404
1761395649224383200,3.75038330078125,0.012369656935334206,-0.030695075169205666,-0.038483377546072006
1761395649243761000,3.769760986328125,0.012675080448389053,-0.019241688773036003,-0.010078979656100273
1761395649263138800,3.789138916015625,-0.00030542362947016954,0.017561858519911766,0.02764083817601204
1761395649282516500,3.8085166015625,-0.02244863659143448,0.017714571207761765,0.05405998229980469
1761395649301894400,3.827894287109375,-0.03374931216239929,-0.003970507066696882,0.05528167635202408
1761395649321272000,3.84727197265625,-0.023975754156708717,0.003970507066696882,0.007788302376866341
1761395649340650000,3.86664990234375,-0.008857285603880882,-0.0065666078589856625,-0.031000498682260513
1761395649360027600,3.886027587890625,0.0009162708884105086,0.031153209507465363,-0.02733541466295719
1761395649379405300,3.9054052734375,0.0050394898280501366,0.06001574173569679,0.029473381116986275
1761395649398783200,3.924783203125,0.0007635590736754239,0.08032641559839249,0.09025268256664276
1761395649418161000,3.944160888671875,0.005497625097632408,0.08719844371080399,0.059557609260082245
1761395649437538800,3.963538818359375,-0.00015271181473508477,0.06047387793660164,0.03420744836330414
1761395649456916500,3.98291650390625,-0.0022906772792339325,0.02870982140302658,0.02092151902616024
1761395649476294400,4.00229443359375,0.01175880990922451,-0.0050394898280501366,-0.012216945178806782
1761395649495672000,4.021672119140625,0.020157959312200546,-0.02107422985136509,-0.06062658876180649
1761395649515050000,4.041050048828125,0.01832541823387146,-0.01969982497394085,-0.04947862774133682
1761395649534427600,4.060427734375,0.009315420873463154,-0.0010689827613532543,-0.0065666078589856625
1761395649553805600,4.0798056640625,0.007330167107284069,-0.006413896102458239,0.013438640162348747
1761395649573183200,4.099183349609375,0.006108472589403391,-0.024281177669763565,0.009620844386518002
1761395649592561200,4.11856103515625,0.0038177953101694584,-0.023823043331503868,0.028557108715176582
1761395649611938800,4.137938720703125,-0.009620844386518002,-0.030847785994410515,0.09575030952692032
1761395649631316700,4.157316650390625,-0.027793550863862038,-0.022601349279284477,0.1913478970527649
1761395649650694400,4.1766943359375,-0.03634541109204292,0.0029015245381742716,0.2113531529903412
1761395649670072300,4.196072265625,-0.0390942245721817,0.04963133856654167,0.1638597846031189
1761395649689450000,4.215449951171875,-0.03451287001371384,0.09239064902067184,0.0787992998957634
1761395649708828000,4.234827880859375,-0.0331384651362896,0.06948387622833252,0.03802524134516716
1761395649728205600,4.25420556640625,-0.04230117425322533,0.0647498071193695,0.015576604753732681
1761395649747583500,4.27358349609375,-0.034818295389413834,0.0325276181101799,-0.015271181240677834
1761395649766961200,4.292961181640625,-0.0331384651362896,-0.0022906772792339325,0.0004581354442052543
1761395649786339000,4.312339111328125,-0.021837789565324783,0.007635590620338917,-0.008551862090826035
1761395649805716700,4.331716796875,-0.002748812548816204,-0.0007635590736754239,-0.04062134400010109
1761395649825094700,4.3510947265625,0.005497625097632408,-0.011911521665751934,-0.04306473210453987
1761395649844472300,4.370472412109375,0.016492875292897224,-0.018783552572131157,-0.03802524134516716
1761395649863850200,4.389850341796875,0.014813045971095562,-0.022601349279284477,-0.025502873584628105
1761395649883228000,4.409227783203125,0.016340164467692375,-0.028251685202121735,-0.030695075169205666
1761395649902605800,4.428605712890625,0.011147962883114815,-0.004123218823224306,0.0010689827613532543
1761395649921983500,4.4479833984375,0.0021379655227065086,0.01175880990922451,0.019241688773036003
1761395649941361200,4.467361083984375,0.0021379655227065086,-0.009468132629990578,0.0016798300202935934
1761395649960739000,4.486739013671875,0.0050394898280501366,0.0035123717971146107,-0.017714571207761765
1761395649980116700,4.50611669921875,-0.0022906772792339325,0.02489202655851841,-0.00259610079228878
1761395649999494700,4.52549462890625,-0.005344913341104984,0.005344913341104984,0.007482878863811493
1761395650018872300,4.544872314453125,-0.0065666078589856625,0.021379653364419937,0.015271181240677834
1761395650038250200,4.564250244140625,-0.0035123717971146107,0.05925218388438225,0.037261683493852615
1761395650057628000,4.5836279296875,0.008399149402976036,0.028251685202121735,0.027946261689066887
1761395650077005800,4.603005859375,0.023364907130599022,-0.01038440316915512,-0.010689826682209969
1761395650096383500,4.622383544921875,0.03268032893538475,-0.00015271181473508477,-0.04169032722711563
1761395650115761400,4.641761474609375,0.02626643143594265,0.0022906772792339325,-0.031916771084070206
1761395650135139000,4.66113916015625,0.028557108715176582,-0.056961506605148315,-0.02092151902616024
1761395650154517000,4.68051708984375,0.037414394319057465,-0.05635065957903862,-0.029473381116986275
1761395650173894700,4.699894775390625,0.03833066672086716,-0.04840964451432228,-0.025197450071573257
1761395650193272600,4.7192724609375,0.033443886786699295,-0.04504998400807381,-0.03558185324072838
1761395650212650200,4.738650146484375,0.028404397889971733,-0.03145863488316536,-0.0393996499478817
1761395650232028200,4.758028076171875,0.02244863659143448,0.005955760832875967,0.0035123717971146107
1761395650251405800,4.77740576171875,0.011911521665751934,0.0009162708884105086,0.0198525357991457
1761395650270783700,4.79678369140625,-0.011147962883114815,0.026571854948997498,0.013438640162348747
1761395650290161400,4.816161376953125,-0.03298575058579445,0.0856713280081749,0.02092151902616024
1761395650309539000,4.8355390625,-0.029626091942191124,0.0978882759809494,0.025197450071573257
1761395650328917000,4.8549169921875,-0.005344913341104984,0.04504998400807381,0.025808297097682953
1761395650348294700,4.874294677734375,0.020005248486995697,-0.024281177669763565,0.047646086663007736
1761395650367672600,4.893672607421875,0.046577103435993195,-0.06306997686624527,0.030695075169205666
1761395650387050200,4.91305029296875,0.06841489672660828,-0.07116370648145676,-0.004886778071522713
1761395650406428200,4.93242822265625,0.07299624383449554,-0.059557609260082245,-0.013438640162348747
1761395650425805800,4.951805908203125,0.08322793990373611,-0.06688777357339859,-0.042759306728839874
1761395650445183700,4.971183837890625,0.08460234850645065,-0.08964183181524277,-0.06581879407167435
1761395650464561400,4.9905615234375,0.06322269141674042,-0.06734590977430344,-0.08628217875957489
1761395650483939300,5.009939208984375,0.04214845970273018,-0.022754060104489326,-0.047646086663007736
1761395650503317000,5.02931689453125,0.013591351918876171,0.033291175961494446,-0.0016798300202935934
1761395650522695000,5.04869482421875,-0.020157959312200546,0.09529217332601547,0.024586603045463562
1761395650542072600,5.068072509765625,-0.04550812020897865,0.13988402485847473,0.037261683493852615
1761395650561450500,5.087450439453125,-0.07681404054164886,0.14889401197433472,0.06719319522380829
1761395650580828200,5.106828125,-0.09605573117733002,0.14339639246463776,0.06154286116361618
1761395650600206000,5.1262060546875,-0.10628741979598999,0.11896250396966934,0.08124268800020218
1761395650619583700,5.145583740234375,-0.0925433561205864,0.03497100621461868,0.09727742522954941
1761395650638961700,5.164961669921875,-0.046424392610788345,-0.02473931387066841,0.05528167635202408
1761395650658339300,5.18433935546875,-0.005344913341104984,-0.05986303091049194,0.0035123717971146107
1761395650677717200,5.20371728515625,0.034665580838918686,-0.0522274412214756,-0.05375456064939499
1761395650697095000,5.223094970703125,0.08002099394798279,-0.027182703837752342,-0.11117420345544815
1761395650716472800,5.242472900390625,0.09391776472330093,-0.03558185324072838,-0.08796200156211853
1761395650735850500,5.2618505859375,0.0853659063577652,-0.03771981969475746,-0.031000498682260513
1761395650755228400,5.281228515625,0.0784938707947731,-0.04413371533155441,-0.007177455350756645
1761395650774606000,5.300606201171875,0.0719272643327713,-0.06123743951320648,0.011606098152697086
1761395650793984000,5.31998388671875,0.06642963737249374,-0.060932014137506485,0.019241688773036003
1761395650813361700,5.339361572265625,0.05894676223397255,-0.02107422985136509,0.027946261689066887
1761395650832739300,5.3587392578125,0.06261184066534042,-0.011911521665751934,0.0397050715982914
1761395650852117200,5.3781171875,0.07009471952915192,0.007177455350756645,-0.004734066314995289
1761395650871495000,5.397494873046875,0.062153708189725876,0.05207473039627075,-0.029320668429136276
1761395650890872800,5.416872802734375,0.05070032179355621,0.019394399598240852,-0.010842538438737392
1761395650910250500,5.43625048828125,0.023212196305394173,0.02641914412379265,-0.009315420873463154
1761395650929628400,5.45562841796875,-0.0016798300202935934,0.06352811306715012,-0.031000498682260513
1761395650949006000,5.475006103515625,-0.001374406274408102,0.07650861889123917,-0.015423892997205257
1761395650968384000,5.494384033203125,0.014660334214568138,0.0587940476834774,-0.00259610079228878
1761395650987761700,5.51376171875,0.03298575058579445,0.05100574716925621,-0.007482878863811493
1761395651007139600,5.5331396484375,0.0522274412214756,0.06062658876180649,0.003970507066696882
1761395651026517200,5.552517333984375,0.06795676052570343,0.05100574716925621,0.025808297097682953
1761395651045895200,5.571895263671875,0.07956285774707794,0.042606595903635025,0.012980503961443901
1761395651065272800,5.59127294921875,0.07482878863811493,0.04474456235766411,0.0024433890357613564
1761395651084650800,5.610650634765625,0.05741964280605316,0.03497100621461868,-0.01725643500685692
1761395651104028400,5.6300283203125,0.04810422286391258,0.023059483617544174,-0.03405473381280899
1761395651123406300,5.64940625,0.025655584409832954,0.006719320081174374,-0.030389651656150818
1761395651142784000,5.668783935546875,0.012064233422279358,0.018783552572131157,-0.05344913527369499
1761395651162162000,5.688161865234375,0.014813045971095562,0.011300674639642239,-0.0716218426823616
1761395651181539600,5.70753955078125,-0.007635590620338917,0.016340164467692375,-0.08368607610464096
1761395651200917500,5.72691748046875,-0.007024743594229221,0.04428642615675926,-0.08185353130102158
1761395651220295200,5.746295166015625,0.00259610079228878,0.03665083646774292,-0.0456608310341835
1761395651239673000,5.765673095703125,0.004275931045413017,0.018783552572131157,0.03130592033267021
1761395651259050800,5.78505078125,0.004275931045413017,-0.037108972668647766,0.12247487902641296
1761395651278428700,5.8044287109375,0.021379653364419937,-0.11972606182098389,0.15087927877902985
1761395651297806300,5.823806396484375,0.028404397889971733,-0.17897824943065643,0.11865708231925964
1761395651317184300,5.843184326171875,0.02076880633831024,-0.21593450009822845,0.09025268256664276
1761395651336562000,5.86256201171875,0.014660334214568138,-0.28725093603134155,0.04337015375494957
1761395651355939600,5.881939697265625,-0.009620844386518002,-0.2918322682380676,0.007177455350756645
1761395651375317500,5.9013173828125,-0.04306473210453987,-0.29626092314720154,0.020005248486995697
1761395651394695200,5.920695068359375,-0.08017370104789734,-0.3052709102630615,-0.012369656935334206
1761395651414073000,5.940072998046875,-0.10231691598892212,-0.20096874237060547,-0.1056765764951706
1761395651433450800,5.95945068359375,-0.1501157134771347,-0.062153708189725876,-0.1185043677687645
1761395651452828700,5.97882861328125,-0.2157817929983139,0.07482878863811493,-0.10231691598892212
1761395651472206300,5.998206298828125,-0.26159533858299255,0.19241689145565033,-0.09834641218185425
1761395651491584300,6.017584228515625,-0.28633466362953186,0.24632415175437927,-0.07085828483104706
1761395651510962000,6.0369619140625,-0.24876753985881805,0.22555534541606903,-0.015271181240677834
1761395651530339800,6.05633984375,-0.18279604613780975,0.14186927676200867,0.06368082761764526
1761395651549717500,6.075717529296875,-0.13270656764507294,0.03023693896830082,0.10827267915010452
1761395651569095400,6.095095458984375,-0.08002099394798279,0.02626643143594265,0.04199574887752533
1761395651588473000,6.11447314453125,-0.025655584409832954,0.047951508313417435,-0.06276455521583557
1761395651607851000,6.13385107421875,0.008551862090826035,0.006261184345930815,-0.09575030952692032
1761395651627228700,6.153228759765625,0.03512371703982353,-0.013438640162348747,-0.10720369219779968
1761395651646606600,6.172606689453125,0.051463883370161057,-0.02641914412379265,-0.08826743066310883
1761395651665984300,6.191984375,0.039857782423496246,-0.06276455521583557,-0.05360184609889984
1761395651685362200,6.211362060546875,0.034665580838918686,-0.062306419014930725,-0.05207473039627075
1761395651704739800,6.23073974609375,0.038483377546072006,-0.029167955741286278,-0.04886778071522713
1761395651724117500,6.250117431640625,0.024586603045463562,-0.006413896102458239,-0.013133215717971325
1761395651743495400,6.269495361328125,0.013896775431931019,0.004581354558467865,0.013133215717971325
1761395651762873000,6.288873046875,0.025808297097682953,0.011147962883114815,0.016798298805952072
1761395651782251000,6.3082509765625,0.045202698558568954,-0.005344913341104984,0.013133215717971325
1761395651801628700,6.327628662109375,0.056808795779943466,-0.029167955741286278,-0.0022906772792339325
1761395651821006600,6.347006591796875,0.07177454978227615,-0.021532366052269936,-0.03558185324072838
1761395651840384500,6.366384521484375,0.08093725889921188,-0.014507622458040714,-0.028098974376916885
1761395651859762200,6.38576220703125,0.06444438546895981,-0.020463382825255394,-0.04734066128730774
1761395651879139800,6.405139892578125,0.055739812552928925,-0.02092151902616024,-0.07070557028055191
1761395651898517800,6.424517822265625,0.06963659077882767,-0.05238015204668045,-0.06459710001945496
1761395651917895400,6.4438955078125,0.08124268800020218,-0.053143709897994995,-0.06581879407167435
1761395651937273300,6.4632734375,0.08307522535324097,-0.03268032893538475,-0.10430216789245605
1761395651956651000,6.482651123046875,0.10216420143842697,-0.024128466844558716,-0.1369825005531311
1761395651976029000,6.50202880859375,0.12186402827501297,0.007330167107284069,-0.1325538605451584
1761395651995406600,6.521406494140625,0.14080029726028442,0.0594048947095871,-0.11682453751564026
1761395652014784500,6.540784423828125,0.17180079221725464,0.08292251825332642,-0.08658760040998459
1761395652034162200,6.560162109375,0.1782146841287613,0.07467607408761978,-0.06276455521583557
1761395652053540000,6.5795400390625,0.1907370537519455,0.07971556484699249,-0.06673506647348404
1761395652072917800,6.598917724609375,0.20555010437965393,0.07681404054164886,-0.04016320779919624
1761395652092295700,6.618295654296875,0.22036315500736237,0.0068720318377017975,0.008093725889921188
1761395652111673300,6.63767333984375,0.27152159810066223,-0.08826743066310883,0.12339114397764206
1761395652131051300,6.65705126953125,0.2545706033706665,-0.2522799074649811,0.15423893928527832
1761395652150429000,6.676428955078125,0.27717193961143494,-0.40453359484672546,0.12675081193447113
1761395652169806800,6.695806884765625,0.29946786165237427,-0.38040512800216675,-0.007941014133393764
1761395652189184500,6.7151845703125,0.38071054220199585,-0.34787750244140625,-0.16783028841018677
1761395652208562400,6.7345625,0.3733803927898407,-0.29091599583625793,-0.22738789021968842
1761395652227940000,6.753940185546875,0.270452618598938,-0.11285403370857239,-0.19119518995285034
1761395652247318000,6.773318115234375,0.1820324808359146,0.02214321307837963,-0.1979145109653473
1761395652266695700,6.79269580078125,0.15026842057704926,0.04504998400807381,-0.24510246515274048
1761395652286073300,6.8120732421875,0.1435490995645523,0.10857810080051422,-0.20585553348064423
1761395652305451300,6.831451171875,0.149199441075325,0.16584503650665283,-0.08735115826129913
1761395652324829000,6.850828857421875,0.21532365679740906,0.1760767251253128,-0.04443913698196411
1761395652344206800,6.870206787109375,0.2564031481742859,0.23868857324123383,-0.02764083817601204
1761395652363584500,6.88958447265625,0.2802261710166931,0.16615045070648193,0.055892523378133774
1761395652382962400,6.90896240234375,0.2608317732810974,0.06383354216814041,0.06673506647348404
1761395652402340000,6.928340087890625,0.23410721123218536,0.1435490995645523,0.023823043331503868
1761395652421718000,6.947718017578125,0.19226416945457458,0.03298575058579445,0.0716218426823616
1761395652441095700,6.967095703125,0.08231166750192642,0.0038177953101694584,0.009773556143045425
1761395652460473600,6.9864736328125,-0.023364907130599022,0.008246437646448612,-0.07421794533729553
1761395652479851300,7.005851318359375,-0.09895725548267365,-0.111632339656353,-0.04856235533952713
1761395652499229200,7.025229248046875,-0.23303823173046112,-0.06688777357339859,-0.08689302206039429
1761395652518606800,7.04460693359375,-0.39796698093414307,0.10796725004911423,-0.20463383197784424
1761395652537984800,7.06398486328125,-0.4480564594268799,0.2677038013935089,-0.29656633734703064
1761395652557362400,7.083362548828125,-0.3633013963699341,0.2980934679508209,-0.3110739588737488
1761395652576740400,7.102740234375,-0.2683146595954895,0.14339639246463776,-0.07773031294345856
1761395652596118000,7.122117919921875,-0.18050536513328552,-0.03451287001371384,0.22906772792339325
1761395652615496000,7.141495849609375,-0.2038702666759491,-0.08750387281179428,0.2933593988418579
1761395652634873600,7.16087353515625,-0.21425467729568481,-0.045202698558568954,0.182643324136734
1761395652654251500,7.18025146484375,-0.17913095653057098,-0.06352811306715012,0.07238540053367615
1761395652673629200,7.199629150390625,-0.1785201132297516,-0.09040539711713791,-0.031000498682260513
1761395652693007000,7.219007080078125,-0.14721418917179108,-0.14492350816726685,-0.06810946762561798
1761395652712384800,7.238384765625,-0.07055285573005676,-0.16065283119678497,-0.029778804630041122
1761395652731762700,7.2577626953125,-0.08139539510011673,-0.16691401600837708,0.058335911482572556
1761395652751140400,7.277140380859375,-0.09590301662683487,-0.11239589750766754,0.12690351903438568
1761395652770518300,7.296518310546875,-0.10674555599689484,0.033291175961494446,0.12003148347139359
1761395652789896000,7.31589599609375,-0.14171656966209412,0.13408097624778748,0.06887302547693253
1761395652809273600,7.335273681640625,-0.16187451779842377,0.12140589207410812,0.0719272643327713
1761395652828651500,7.354651611328125,-0.13927318155765533,0.02367033064365387,0.07925742864608765
1761395652848029200,7.374029296875,-0.07650861889123917,-0.012827792204916477,0.10155335813760757
1761395652867407000,7.393406982421875,-0.025197450071573257,-0.030389651656150818,0.14522893726825714
1761395652886784800,7.41278466796875,-0.012216945178806782,-0.02901524491608143,0.1372879147529602
1761395652906162700,7.43216259765625,-0.05238015204668045,-0.009468132629990578,0.03390202298760414
1761395652925540400,7.451540283203125,-0.08032641559839249,-0.0012216945178806782,-0.04428642615675926
1761395652944918300,7.470918212890625,-0.08582404255867004,-0.07391251623630524,-0.03955236077308655
1761395652964296000,7.4902958984375,-0.07452336698770523,-0.09422318637371063,-0.03130592033267021
1761395652983673900,7.509673828125,-0.029473381116986275,0.006108472589403391,-0.0068720318377017975
1761395653003051500,7.529051513671875,0.012216945178806782,-0.0006108472589403391,0.03436015918850899
1761395653022429400,7.548429443359375,0.013133215717971325,-0.08750387281179428,0.045355409383773804
1761395653041807000,7.56780712890625,0.03787253051996231,-0.06933116167783737,0.03894151374697685
1761395653061185000,7.58718505859375,0.046424392610788345,0.05543438717722893,0.008857285603880882
1761395653080562700,7.606562744140625,-0.0004581354442052543,0.0653606578707695,-0.017561858519911766
1761395653099940600,7.625940673828125,-0.013591351918876171,-0.004886778071522713,-0.030695075169205666
1761395653119318300,7.645318359375,-0.0022906772792339325,-0.03176405653357506,-0.025197450071573257
1761395653138696200,7.6646962890625,-0.0261137206107378,-0.019241688773036003,-0.020616095513105392
1761395653158073900,7.684073974609375,0.023059483617544174,0.016034740954637527,-0.007482878863811493
1761395653177451800,7.70345166015625,0.08231166750192642,0.014202198944985867,-0.0029015245381742716
1761395653196829400,7.722829345703125,0.055739812552928925,0.0006108472589403391,0.007635590620338917
1761395653216207400,7.742207275390625,0.05635065957903862,0.016034740954637527,0.012827792204916477
1761395653235585000,7.7615849609375,0.10979979485273361,-0.042759306728839874,-0.006261184345930815
1761395653254963000,7.780962890625,0.10918894410133362,-0.07345438003540039,-0.030389651656150818
1761395653274340600,7.800340576171875,0.047798797488212585,-0.01969982497394085,-0.024433890357613564
1761395653293718500,7.819718505859375,0.03787253051996231,-0.037567105144262314,-0.0004581354442052543
1761395653313096200,7.83909619140625,0.05787777900695801,-0.09345962852239609,-0.00519220158457756
1761395653332473900,7.858473876953125,0.04611896723508835,-0.06963659077882767,-0.021226942539215088
1761395653351851800,7.877851806640625,0.04856235533952713,-0.01175880990922451,0.02107422985136509
1761395653371229400,7.8972294921875,0.030389651656150818,-0.02367033064365387,0.029473381116986275
1761395653390607400,7.916607421875,0.028404397889971733,0.003359660040587187,-0.02107422985136509
1761395653409985000,7.935985107421875,0.027182703837752342,-0.004428642801940441,-0.03008422814309597
1761395653429363000,7.955363037109375,0.009773556143045425,-0.023212196305394173,0.010078979656100273
1761395653448740900,7.974740966796875,0.025961007922887802,0.0016798300202935934,0.01435491070151329
1761395653468118500,7.994118408203125,0.030542362481355667,0.018936265259981155,-0.004734066314995289
1761395653487496400,8.013496337890626,0.004734066314995289,-0.030542362481355667,-0.03008422814309597
1761395653506874000,8.0328740234375,0.012064233422279358,-0.014660334214568138,-0.013744063675403595
1761395653526251800,8.052251708984375,0.046577103435993195,0.005344913341104984,0.006719320081174374
1761395653545629700,8.071629638671874,0.05238015204668045,-0.016492875292897224,0.006108472589403391
1761395653565007400,8.09100732421875,0.04046862944960594,-0.029320668429136276,-0.00259610079228878
1761395653584385300,8.11038525390625,0.046729814261198044,-0.016034740954637527,0.012827792204916477
1761395653603763000,8.129762939453125,0.028251685202121735,-0.02748812735080719,0.03161134570837021
1761395653623140900,8.149140869140625,0.019241688773036003,-0.029626091942191124,0.02351761981844902
1761395653642518500,8.1685185546875,0.03665083646774292,-0.041384901851415634,-0.011300674639642239
1761395653661896400,8.187896484375,0.04947862774133682,-0.08826743066310883,-0.03268032893538475
1761395653681274000,8.207274169921876,0.032222192734479904,-0.07375980913639069,0.0032069480512291193
1761395653700652000,8.226652099609375,0.034665580838918686,-0.046424392610788345,0.014965757727622986
1761395653720029700,8.24602978515625,0.033443886786699295,-0.029320668429136276,-0.022906772792339325
1761395653739407600,8.26540771484375,-0.008857285603880882,-0.021379653364419937,-0.051922015845775604
1761395653758785300,8.284785400390625,-0.031916771084070206,0.024433890357613564,0.011300674639642239
1761395653778163200,8.3041630859375,-0.04459185153245926,0.0522274412214756,0.10964708030223846
1761395653797540900,8.323540771484375,-0.06719319522380829,0.05207473039627075,0.12690351903438568
1761395653816918800,8.342918701171875,-0.09269607067108154,0.05360184609889984,0.07421794533729553
1761395653836296400,8.36229638671875,-0.07467607408761978,0.072843536734581,0.027946261689066887
1761395653855674400,8.38167431640625,-0.062306419014930725,0.08139539510011673,0.02244863659143448
1761395653875052000,8.401052001953126,-0.057114217430353165,0.04825693368911743,-0.0007635590736754239
1761395653894430000,8.420429931640625,-0.04337015375494957,0.025961007922887802,-0.013438640162348747
1761395653913807600,8.4398076171875,-0.023059483617544174,0.005497625097632408,0.0068720318377017975
1761395653933185500,8.459185546875,-0.012369656935334206,-0.021990500390529633,0.047646086663007736
1761395653952563200,8.478563232421875,-0.014507622458040714,0.010231691412627697,0.045202698558568954
1761395653971941000,8.497941162109376,-0.01725643500685692,-0.004428642801940441,0.0029015245381742716
1761395653991318800,8.51731884765625,-0.020616095513105392,-0.06810946762561798,-0.04031591862440109
1761395654010696700,8.53669677734375,-0.025197450071573257,-0.09666658192873001,-0.055587101727724075
1761395654030074400,8.556074462890624,0.009468132629990578,-0.07024743407964706,-0.020005248486995697
1761395654049452000,8.5754521484375,0.04749337583780289,-0.0853659063577652,0.055587101727724075
1761395654068830000,8.594829833984376,0.03145863488316536,-0.05024218559265137,0.062153708189725876
1761395654088207600,8.61420751953125,-0.017561858519911766,0.0584886260330677,-0.023212196305394173
1761395654107585500,8.63358544921875,-0.06062658876180649,0.06902574002742767,-0.023212196305394173
1761395654126963200,8.652963134765624,-0.04153761267662048,0.07345438003540039,0.01954711228609085
1761395654146341000,8.672341064453125,-0.03833066672086716,0.0856713280081749,0.03374931216239929
1761395654165719000,8.691718994140626,-0.046424392610788345,0.07207997888326645,0.043981000781059265
1761395654185096700,8.7110966796875,-0.01710372418165207,0.020616095513105392,0.029473381116986275
1761395654204474600,8.730474609375,0.0015271181473508477,0.027793550863862038,-0.020463382825255394
1761395654223852300,8.749852294921874,-0.018783552572131157,0.08689302206039429,-0.014202198944985867
1761395654243230000,8.76922998046875,-0.012675080448389053,0.03161134570837021,0.015271181240677834
1761395654262608000,8.78860791015625,-0.005497625097632408,-0.02748812735080719,0.01710372418165207
1761395654281985500,8.807985595703125,-0.004275931045413017,0.004123218823224306,0.027946261689066887
1761395654301363500,8.827363525390625,0.0015271181473508477,-0.012216945178806782,0.028251685202121735
1761395654320741000,8.8467412109375,0.012369656935334206,-0.06978929787874222,0.015423892997205257
1761395654340119000,8.866119140625,-0.0038177953101694584,-0.06826218217611313,0.030847785994410515
1761395654359496700,8.88549658203125,-0.01511846948415041,-0.00015271181473508477,0.04611896723508835
1761395654378874600,8.90487451171875,-0.014965757727622986,0.0261137206107378,0.025350160896778107
1761395654398252300,8.924252197265625,-0.006413896102458239,0.029626091942191124,-0.0038177953101694584
1761395654417630200,8.943630126953124,-0.0010689827613532543,0.04092676565051079,0.017867282032966614
1761395654437008000,8.9630078125,-0.01588202826678753,0.01817270554602146,0.03527642786502838
1761395654456385800,8.9823857421875,-0.040010496973991394,-0.01817270554602146,0.02473931387066841
1761395654475763500,9.001763427734375,-0.020157959312200546,-0.010689826682209969,0.027182703837752342
1761395654495141400,9.021141357421875,0.0038177953101694584,-0.017714571207761765,0.03497100621461868
1761395654514519000,9.04051904296875,0.006108472589403391,-0.01572931744158268,0.004123218823224306
1761395654533897000,9.05989697265625,-0.020463382825255394,0.02214321307837963,-0.04214845970273018
1761395654553274600,9.079274658203126,-0.014813045971095562,0.0007635590736754239,-0.0007635590736754239
1761395654572652500,9.098652587890625,0.011606098152697086,-0.07299624383449554,0.049020491540431976
1761395654592030200,9.1180302734375,0.040010496973991394,-0.09727742522954941,0.03680354729294777
1761395654611408100,9.137408203125,0.06062658876180649,-0.08521319180727005,0.049173206090927124
1761395654630785800,9.156785888671875,0.07009471952915192,-0.08124268800020218,0.07345438003540039
1761395654650163700,9.176163818359376,0.03527642786502838,-0.005955760832875967,0.059710320085287094
1761395654669541400,9.195541259765625,0.018019994720816612,0.03436015918850899,0.02733541466295719
1761395654688919300,9.214919189453125,0.031153209507465363,0.00916270911693573,0.01252236869186163
1761395654708297000,9.234296875,0.016492875292897224,-0.011453386396169662,0.017409147694706917
1761395654727675000,9.2536748046875,0.007635590620338917,0.011147962883114815,0.021379653364419937
1761395654747052500,9.273052490234376,0.04504998400807381,0.004123218823224306,-0.0065666078589856625
1761395654766430500,9.292430419921875,0.04581354558467865,-0.029167955741286278,-0.0331384651362896
1761395654785808100,9.31180810546875,0.026724567636847496,-0.005803049076348543,-0.00992626789957285
1761395654805186000,9.33118603515625,0.020005248486995697,-0.010842538438737392,0.033443886786699295
1761395654824563700,9.350563720703125,0.021837789565324783,-0.027182703837752342,0.028251685202121735
1761395654843941600,9.369941650390626,0.004123218823224306,-0.0006108472589403391,-0.005344913341104984
1761395654863319300,9.3893193359375,-0.0038177953101694584,0.011453386396169662,0.00015271181473508477
1761395654882697200,9.408697265625,0.01832541823387146,-0.0016798300202935934,0.025808297097682953
1761395654902075000,9.428074951171874,-0.008704573847353458,-0.07085828483104706,0.06016845628619194
1761395654921452800,9.447452880859375,-0.03420744836330414,-0.09147437661886215,0.08017370104789734
1761395654940830500,9.46683056640625,-0.00015271181473508477,-0.013896775431931019,0.03436015918850899
1761395654960208100,9.4862080078125,0.030542362481355667,0.007635590620338917,-0.0198525357991457
1761395654979586000,9.5055859375,0.016034740954637527,-0.022601349279284477,-0.01710372418165207
1761395654998963700,9.524963623046874,-0.007024743594229221,-0.013438640162348747,0.016187451779842377
1761395655018341600,9.544341552734375,-0.01511846948415041,0.021990500390529633,0.007330167107284069
1761395655037719600,9.563719482421876,-0.0016798300202935934,-0.0024433890357613564,-0.016798298805952072
1761395655057097200,9.58309716796875,0.03924693539738655,-0.0068720318377017975,-0.009315420873463154
1761395655076475100,9.60247509765625,0.020463382825255394,-0.00259610079228878,0.014965757727622986
1761395655095852800,9.621852783203124,-0.029626091942191124,0.0050394898280501366,0.023823043331503868
1761395655115230700,9.641230712890625,-0.017561858519911766,-0.0038177953101694584,-0.0004581354442052543
1761395655134608400,9.6606083984375,0.025808297097682953,-0.006108472589403391,-0.005955760832875967
1761395655153986000,9.679986083984375,0.02351761981844902,-0.005650337319821119,0.018630841746926308
1761395655173364000,9.699364013671875,-0.004275931045413017,0.01954711228609085,0.024586603045463562
1761395655192741600,9.71874169921875,-0.017409147694706917,-0.008704573847353458,0.008399149402976036
1761395655212119600,9.73811962890625,-0.018630841746926308,-0.033291175961494446,-0.007330167107284069
1761395655231497200,9.757497314453126,-0.012675080448389053,0.004734066314995289,-0.011300674639642239
1761395655250875100,9.776875244140625,-0.0038177953101694584,0.00992626789957285,-0.0007635590736754239
1761395655270252800,9.796252685546875,-0.01511846948415041,0.004123218823224306,0.007482878863811493
1761395655289630700,9.815630615234374,-0.024128466844558716,-0.025197450071573257,-0.00030542362947016954
1761395655309008600,9.835008544921875,-0.006413896102458239,-0.0010689827613532543,0.028251685202121735
1761395655328386300,9.85438623046875,0.009468132629990578,0.012369656935334206,0.03161134570837021
1761395655347764000,9.873763916015625,-0.0032069480512291193,-0.0006108472589403391,0.0029015245381742716
1761395655367142000,9.893141845703125,-0.014813045971095562,0.012216945178806782,-0.051922015845775604
1761395655386519600,9.91251953125,0.01435491070151329,0.01511846948415041,-0.041384901851415634
1761395655405897500,9.9318974609375,0.028557108715176582,-0.02473931387066841,0.03802524134516716
1761395655425275100,9.951275146484376,0.004734066314995289,-0.019241688773036003,0.0522274412214756
1761395655444653000,9.970653076171875,0.01038440316915512,0.009773556143045425,0.02351761981844902
1761395655464030700,9.99003076171875,0.027029991149902344,-0.011911521665751934,0.03008422814309597
1761395655483408600,10.00940869140625,0.03833066672086716,-0.0456608310341835,0.03771981969475746
1761395655502786300,10.028786376953125,0.057114217430353165,-0.034665580838918686,0.07727217674255371
1761395655522164200,10.048164306640626,0.04077405482530594,-0.013896775431931019,0.08903098851442337
1761395655541542000,10.0675419921875,-0.026724567636847496,-0.0065666078589856625,-0.019088976085186005
1761395655560919800,10.086919921875,-0.09941539168357849,0.001985253533348441,-0.08811471611261368
1761395655580297500,10.10629736328125,-0.07589777559041977,0.007635590620338917,-0.07574506103992462
1761395655599675400,10.12567529296875,-0.037414394319057465,-0.021837789565324783,-0.034818295389413834
1761395655619053000,10.145052978515626,-0.01175880990922451,0.025961007922887802,0.014660334214568138
1761395655638431000,10.164430908203125,0.03802524134516716,0.0198525357991457,0.07482878863811493
1761395655657808600,10.18380859375,0.07467607408761978,-0.03298575058579445,0.08903098851442337
1761395655677186600,10.2031865234375,-0.01588202826678753,-0.0030542362947016954,0.0325276181101799
1761395655696564200,10.222564208984375,-0.10750912129878998,0.027182703837752342,-0.03817795217037201
1761395655715942100,10.241942138671876,-0.07070557028055191,-0.010231691412627697,-0.08139539510011673
1761395655735319800,10.26131982421875,-0.006413896102458239,-0.050394900143146515,-0.07207997888326645
1761395655754697700,10.28069775390625,0.004581354558467865,0.03405473381280899,-0.010231691412627697
1761395655774075400,10.300075439453124,-0.021685076877474785,0.052990999072790146,0.0584886260330677
1761395655793453300,10.319453369140625,-0.025197450071573257,-0.024433890357613564,0.05528167635202408
1761395655812831000,10.3388310546875,-0.025655584409832954,-0.026724567636847496,-0.011606098152697086
1761395655832209000,10.358208984375,0.020616095513105392,0.05497625470161438,-0.037414394319057465
1761395655851586600,10.377586669921875,0.05207473039627075,0.017409147694706917,0.01435491070151329
1761395655870964500,10.396964599609374,0.029778804630041122,-0.02229592576622963,0.038636088371276855
1761395655890342100,10.416342041015625,-0.021685076877474785,0.008093725889921188,0.022601349279284477
1761395655909720000,10.435719970703126,-0.0050394898280501366,0,0.00015271181473508477
1761395655948475600,10.4744755859375,0.04734066128730774,-0.02351761981844902,0.006719320081174374
1761395655967853300,10.493853271484374,0.025961007922887802,-0.0397050715982914,0.04550812020897865
1761395655987231200,10.513231201171875,0.07696675509214401,-0.06200099736452103,0.06551336497068405
1761395656006609000,10.53260888671875,0.1185043677687645,-0.06826218217611313,0.06994201242923737
1761395656025986800,10.55198681640625,0.10353861004114151,-0.04611896723508835,0.06520794332027435
1761395656045364500,10.571364501953125,0.04978405311703682,0.005650337319821119,0.02489202655851841
1761395656064742400,10.590742431640624,-0.010078979656100273,-0.006413896102458239,-0.030389651656150818
1761395656084120000,10.6101201171875,-0.020616095513105392,-0.05375456064939499,-0.036039989441633224
1761395656103498000,10.629498046875,-0.010537114925682545,-0.021226942539215088,-0.02733541466295719
1761395656122875600,10.648875732421875,-0.018783552572131157,0.060932014137506485,-0.021685076877474785
1761395656142253600,10.668253662109375,-0.01969982497394085,0.027029991149902344,0.007635590620338917
1761395656161631200,10.68763134765625,0.004886778071522713,0.007788302376866341,0.023364907130599022
1761395656181009200,10.707009033203125,0.0029015245381742716,0.01038440316915512,0.00015271181473508477
1761395656200386800,10.72638671875,0.00015271181473508477,-0.00519220158457756,-0.005803049076348543
1761395656219764700,10.7457646484375,0.03955236077308655,0.006413896102458239,0.007941014133393764
1761395656239142400,10.765142333984375,0.02489202655851841,0.0038177953101694584,0.015576604753732681
1761395656258520300,10.784520263671874,-0.03023693896830082,-0.014660334214568138,0.0035123717971146107
1761395656277898000,10.80389794921875,-0.025655584409832954,-0.0032069480512291193,-0.04734066128730774
1761395656297276000,10.82327587890625,0.020463382825255394,0.038483377546072006,-0.00992626789957285
1761395656316653600,10.842653564453125,0.0590994730591774,0.0068720318377017975,0.04963133856654167
1761395656336031500,10.862031494140625,0.05619794875383377,-0.0032069480512291193,0.02733541466295719
1761395656355409200,10.8814091796875,0.0018325417768210173,-0.0050394898280501366,-0.037108972668647766
1761395656374787000,10.900787109375,-0.005955760832875967,0.020463382825255394,-0.05008947476744652
1761395656394164700,10.920164794921876,0.03527642786502838,0.02764083817601204,0.0015271181473508477
1761395656413542700,10.939542724609375,0.04489727318286896,0.02870982140302658,0.05238015204668045
1761395656432920300,10.95892041015625,0.013285927474498749,0.02748812735080719,0.06902574002742767
1761395656452298200,10.97829833984375,-0.017409147694706917,0.040010496973991394,0.028557108715176582
1761395656471676000,10.997676025390625,-0.036192700266838074,0.01695101149380207,-0.007024743594229221
1761395656491053800,11.0170537109375,-0.015423892997205257,0.010231691412627697,-0.009468132629990578
1761395656510431500,11.036431396484375,0.0065666078589856625,-0.0021379655227065086,0.004123218823224306
1761395656529809400,11.055809326171875,-0.0007635590736754239,-0.03542914241552353,-0.016645587980747223
1761395656549187000,11.07518701171875,-0.003970507066696882,-0.01588202826678753,-0.05329642444849014
1761395656568565000,11.09456494140625,-0.021532366052269936,0.005955760832875967,-0.015271181240677834
1761395656587942700,11.113942626953126,-0.0397050715982914,-0.02351761981844902,0.022601349279284477
1761395656607320600,11.133320556640625,-0.03023693896830082,0.012675080448389053,0.018630841746926308
1761395656626698200,11.1526982421875,-0.01832541823387146,0.05375456064939499,0.0022906772792339325
1761395656646076200,11.172076171875,-0.041384901851415634,0.025350160896778107,0.004123218823224306
1761395656665453800,11.191453857421875,-0.03436015918850899,0.00519220158457756,-0.010689826682209969
1761395656684831700,11.210831787109376,-0.018019994720816612,0.04199574887752533,-0.020463382825255394
1761395656704209400,11.23020947265625,-0.008857285603880882,0.0390942245721817,-0.021990500390529633
1761395656723587300,11.24958740234375,0.00015271181473508477,0.025197450071573257,0.006413896102458239
1761395656742965000,11.268965087890624,0.029167955741286278,0.03298575058579445,0.03008422814309597
1761395656762343000,11.288343017578125,0.06856760382652283,0.023059483617544174,0.023059483617544174
1761395656781720600,11.307720458984376,0.04703523963689804,0.033596597611904144,-0.004123218823224306
1761395656801098500,11.327098388671875,0.01572931744158268,0.04459185153245926,-0.038636088371276855
1761395656820476200,11.34647607421875,0.03573456406593323,0.05467082932591438,-0.055892523378133774
1761395656839854000,11.36585400390625,0.0662769302725792,0.011300674639642239,-0.041384901851415634
1761395656859231700,11.385231689453125,0.08719844371080399,-0.013896775431931019,-0.018019994720816612
1761395656878609700,11.404609619140626,0.10017894953489304,0.007482878863811493,-0.024433890357613564
1761395656897987300,11.4239873046875,0.1122431829571724,0.0009162708884105086,0.0009162708884105086
1761395656917365200,11.443365234375,0.10705098509788513,-0.038483377546072006,0.028251685202121735
1761395656936743000,11.462742919921874,0.07345438003540039,-0.04306473210453987,0.024586603045463562
1761395656956120800,11.482120849609375,0.0462716780602932,0.02229592576622963,0.0036650835536420345
1761395656975498500,11.50149853515625,0.027793550863862038,0.05803048983216286,-0.014507622458040714
1761395656994876400,11.52087646484375,-0.007635590620338917,-0.014660334214568138,-0.0022906772792339325
1761395657014254000,11.540254150390625,-0.04703523963689804,0.004275931045413017,0.016798298805952072
1761395657033632000,11.559632080078124,-0.05894676223397255,0.06581879407167435,0.006261184345930815
1761395657053009700,11.579009765625,-0.07773031294345856,0.03894151374697685,0.0050394898280501366
1761395657072387600,11.5983876953125,-0.09697200357913971,0.04291202127933502,0.0198525357991457
1761395657091765200,11.61776513671875,-0.10430216789245605,0.03542914241552353,0.02473931387066841
1761395657111143200,11.63714306640625,-0.08322793990373611,0.00916270911693573,-0.010689826682209969
1761395657130520800,11.656520751953124,-0.05482354015111923,0.014660334214568138,-0.015271181240677834
1761395657149898800,11.675898681640625,-0.05803048983216286,0.009009997360408306,0.016798298805952072
1761395657169276400,11.6952763671875,-0.05543438717722893,0.01725643500685692,0.01252236869186163
1761395657188654300,11.714654296875,-0.025808297097682953,-0.012980503961443901,-0.020616095513105392
1761395657208032000,11.734031982421875,-0.014049487188458443,-0.04978405311703682,-0.019088976085186005
1761395657227410000,11.753409912109374,-0.02107422985136509,-0.00030542362947016954,0.019241688773036003
1761395657246787600,11.77278759765625,0.0035123717971146107,0.06123743951320648,0.03573456406593323
1761395657266165500,11.79216552734375,-0.0004581354442052543,0.021532366052269936,0.011911521665751934
1761395657285543200,11.811543212890625,-0.029473381116986275,0.002748812548816204,-0.023364907130599022
1761395657304921000,11.830921142578125,-0.02107422985136509,0.03023693896830082,-0.02229592576622963
1761395657324298800,11.850298828125,0.0006108472589403391,0.0456608310341835,0.0393996499478817
1761395657343676700,11.8696767578125,0.01038440316915512,0.038483377546072006,0.06123743951320648
1761395657363054300,11.889054443359376,0.010995250195264816,0.019088976085186005,0.01847812905907631
1761395657382432300,11.908432373046875,-0.01588202826678753,0.0328330397605896,-0.03161134570837021
1761395657401810000,11.927809814453125,-0.08078455179929733,0.03787253051996231,-0.05115845799446106
1761395657421187800,11.947187744140624,-0.17439688742160797,0.021532366052269936,-0.111632339656353
1761395657440565500,11.9665654296875,-0.32542887330055237,-0.055587101727724075,-0.2435753494501114
1761395657459943400,11.985943359375,-0.3721587061882019,-0.062306419014930725,-0.3901786804199219
1761395657479321000,12.005321044921875,-0.21379654109477997,0.014965757727622986,-0.42927291989326477
1761395657498699000,12.024698974609375,-0.2757975459098816,-0.14080029726028442,-0.14248012006282806
1761395657518076700,12.04407666015625,-0.4868452548980713,-0.3058817684650421,0.09284878522157669
1761395657537454600,12.06345458984375,-0.35856732726097107,-0.06352811306715012,0.08108997344970703
1761395657556832300,12.082832275390626,-0.10308047384023666,0.40667155385017395,-0.06520794332027435
1761395657576210200,12.102210205078125,-0.042759306728839874,0.42514967918395996,-0.22784602642059326
1761395657595587800,12.121587890625,-0.010078979656100273,0.13026317954063416,-0.2808370292186737
1761395657614965800,12.1409658203125,-0.0024433890357613564,0.144465371966362,-0.14431266486644745
1761395657634343400,12.160343505859375,-0.1423274129629135,0.0650552362203598,0.03833066672086716
1761395657653721300,12.179721435546876,-0.19088977575302124,0.0036650835536420345,0.005497625097632408
1761395657673099000,12.19909912109375,-0.12781979143619537,0.10811996459960938,-0.07482878863811493
1761395657692477000,12.218476806640625,-0.056961506605148315,0.07605048269033432,-0.14049486815929413
1761395657711854600,12.2378544921875,-0.019088976085186005,0.15500248968601227,0.03176405653357506
1761395657731232500,12.257232421875,-0.18462859094142914,0.11346487700939178,0.4080459773540497
1761395657750610200,12.276610107421876,-0.06933116167783737,-0.05650337040424347,0.40422818064689636
1761395657769988000,12.295988037109375,0.007788302376866341,-0.0787992998957634,0.1913478970527649
1761395657789365800,12.31536572265625,-0.09544488787651062,0.019241688773036003,0.0036650835536420345
1761395657808743700,12.33474365234375,-0.1328592747449875,0.01588202826678753,-0.2176143378019333
1761395657828121300,12.354121337890625,-0.07330167293548584,-0.1188097894191742,-0.4077405333518982
1761395657847499300,12.373499267578126,-0.15561333298683167,-0.13942588865756989,-0.21822518110275269
