time,seconds_elapsed,z,y,x
1761395645655382300,0.18138232421875,-0.40850409865379333,-0.27442312240600586,0.3280249834060669
1761395645694912800,0.220912841796875,-0.2915268540382385,-0.125987246632576,0.09651386737823486
1761395645714678000,0.240677978515625,-0.2864873707294464,-0.2730487287044525,0.06978929787874222
1761395645734443300,0.260443359375,-0.27197974920272827,-0.32038938999176025,0.045355409383773804
1761395645754208500,0.28020849609375,-0.25289076566696167,-0.25716668367385864,-0.018936265259981155
1761395645773974000,0.29997412109375,-0.19455485045909882,-0.16874656081199646,-0.07681404054164886
1761395645793739300,0.3197392578125,-0.09926267713308334,-0.1513374149799347,-0.1632489264011383
1761395645813504500,0.33950439453125,-0.02489202655851841,-0.11667182296514511,-0.22021043300628662
1761395645833269800,0.359269775390625,-0.022754060104489326,-0.08780929446220398,-0.1513374149799347
1761395645852648000,0.37864794921875,-0.03023693896830082,-0.06734590977430344,-0.11377029865980148
1761395645872025900,0.39802587890625,-0.005497625097632408,-0.0653606578707695,-0.1582094430923462
1761395645891403500,0.417403564453125,-0.01695101149380207,-0.08322793990373611,-0.21746163070201874
1761395645910781400,0.436781494140625,-0.04474456235766411,-0.06810946762561798,-0.25289076566696167
1761395645930159000,0.4561591796875,-0.046729814261198044,-0.024586603045463562,-0.20585553348064423
1761395645949537000,0.475537109375,-0.04550812020897865,0.062306419014930725,-0.08826743066310883
1761395645968914700,0.494914794921875,0.025350160896778107,0.10094250738620758,0.004123218823224306
1761395645988292600,0.514292724609375,0.10017894953489304,0.08215895295143127,0.05344913527369499
1761395646007670300,0.533670166015625,0.10628741979598999,0.07864658534526825,0.11300674080848694
1761395646027048200,0.553048095703125,0.10873081535100937,0.08612946420907974,0.13148486614227295
1761395646046425900,0.57242578125,0.11590826511383057,0.08032641559839249,0.09086353331804276
1761395646065803800,0.5918037109375,0.08139539510011673,0.06841489672660828,0.007788302376866341
1761395646085181400,0.611181396484375,0.014965757727622986,0.051769305020570755,-0.07620319724082947
1761395646104559400,0.630559326171875,-0.023364907130599022,0.02886253222823143,-0.08964183181524277
1761395646123937000,0.64993701171875,-0.011911521665751934,0.06001574173569679,-0.04443913698196411
1761395646143315000,0.66931494140625,0.006108472589403391,0.07803573459386826,-0.0018325417768210173
1761395646162692600,0.688692626953125,-0.0024433890357613564,0.057114217430353165,-0.0325276181101799
1761395646182070500,0.708070556640625,-0.0022906772792339325,0.016340164467692375,-0.08521319180727005
1761395646201448200,0.7274482421875,0.0065666078589856625,-0.015423892997205257,-0.08964183181524277
1761395646220826000,0.746826171875,0.009773556143045425,-0.008704573847353458,-0.08276980370283127
1761395646240203800,0.766203857421875,0.03420744836330414,0.04077405482530594,-0.08170082420110703
1761395646259581700,0.785581787109375,0.06963659077882767,0.04443913698196411,-0.072232685983181
1761395646278959400,0.80495947265625,0.06841489672660828,-0.007330167107284069,-0.054365407675504684
1761395646298337300,0.824337158203125,0.0650552362203598,-0.07757759839296341,-0.04367557913064957
1761395646317715000,0.84371484375,0.06032116711139679,-0.12583453953266144,-0.04749337583780289
1761395646337092600,0.863092529296875,0.05925218388438225,-0.10735640674829483,-0.05726693198084831
1761395646356470500,0.882470458984375,0.05344913527369499,-0.06368082761764526,-0.0331384651362896
1761395646375848200,0.90184814453125,0.055587101727724075,-0.09361234307289124,0.005650337319821119
1761395646395226000,0.92122607421875,0.0590994730591774,-0.11117420345544815,0.016492875292897224
1761395646414604000,0.94060400390625,0.04932591691613197,-0.06581879407167435,0.013133215717971325
1761395646433981700,0.959981689453125,0.003970507066696882,-0.012827792204916477,0.0010689827613532543
1761395646453359600,0.979359619140625,-0.04169032722711563,0.023212196305394173,-0.018936265259981155
1761395646472737300,0.9987373046875,-0.07498150318861008,0.05925218388438225,-0.014049487188458443
1761395646492115200,1.018115234375,-0.09116895496845245,0.09239064902067184,0.023059483617544174
1761395646511492900,1.037492919921875,-0.08765657991170883,0.034818295389413834,0.055892523378133774
1761395646530870500,1.05687060546875,-0.0841442123055458,-0.04734066128730774,0.04199574887752533
1761395646550248400,1.07624853515625,-0.06978929787874222,-0.08032641559839249,-0.007482878863811493
1761395646569626000,1.095626220703125,-0.06184828653931618,-0.06872031837701797,-0.0916270911693573
1761395646589004000,1.115004150390625,-0.05543438717722893,-0.0456608310341835,-0.13713520765304565
1761395646608381700,1.134381591796875,-0.029167955741286278,0.046424392610788345,-0.08002099394798279
1761395646627759600,1.153759521484375,-0.02244863659143448,0.0981936976313591,0.02733541466295719
1761395646647137300,1.17313720703125,-0.0029015245381742716,0.06459710001945496,0.056961506605148315
1761395646666515200,1.19251513671875,0.025808297097682953,0.017867282032966614,-0.009620844386518002
1761395646685892900,1.211892822265625,0.028251685202121735,0.01175880990922451,-0.0719272643327713
1761395646705270800,1.231270751953125,0.0065666078589856625,0.02748812735080719,-0.06047387793660164
1761395646724648400,1.2506484375,-0.016645587980747223,-0.021532366052269936,-0.0587940476834774
1761395646744026400,1.2700263671875,-0.0594048947095871,-0.07971556484699249,-0.07528692483901978
1761395646763404000,1.289404052734375,-0.09712471067905426,-0.08903098851442337,-0.1169772520661354
1761395646802159600,1.32815966796875,-0.10201149433851242,-0.028404397889971733,-0.09987352788448334
1761395646821537500,1.34753759765625,-0.11560284346342087,-0.06841489672660828,-0.08948912471532822
1761395646840915200,1.366915283203125,-0.1426328420639038,-0.06062658876180649,-0.13270656764507294
1761395646860293000,1.386293212890625,-0.14660334587097168,-0.014965757727622986,-0.16034740209579468
1761395646879670800,1.4056708984375,-0.12812520563602448,0.013744063675403595,-0.1510319858789444
1761395646899048700,1.425048583984375,-0.12140589207410812,0.025655584409832954,-0.08170082420110703
1761395646918426400,1.44442626953125,-0.0784938707947731,0.07543963938951492,0.01252236869186163
1761395646937804300,1.46380419921875,0.02367033064365387,0.028098974376916885,0.06047387793660164
1761395646957182000,1.483181884765625,0.21623992919921875,0.025808297097682953,0.03497100621461868
1761395646976559900,1.502559814453125,0.26602399349212646,0.03924693539738655,-0.06306997686624527
1761395646995937500,1.5219375,0.2079934924840927,0.05741964280605316,-0.12781979143619537
1761395647015315500,1.5413154296875,0.16217994689941406,0.058335911482572556,-0.12781979143619537
1761395647034693000,1.560693115234375,0.08612946420907974,0.02748812735080719,-0.14645062386989594
1761395647054070800,1.58007080078125,0.03237490355968475,0.06383354216814041,-0.19272230565547943
1761395647073448700,1.59944873046875,0.04428642615675926,0.08887827396392822,-0.19058434665203094
1761395647092826400,1.618826416015625,0.02886253222823143,0.08796200156211853,-0.16126367449760437
1761395647112204300,1.638204345703125,-0.017867282032966614,0.13560809195041656,-0.13591352105140686
1761395647131582200,1.657582275390625,0.016798298805952072,0.19379130005836487,-0.1363716572523117
1761395647150959900,1.6769599609375,0.055739812552928925,0.1435490995645523,-0.1707318127155304
1761395647170337800,1.696337890625,0.015271181240677834,0.05268557742238045,-0.15912571549415588
1761395647189715500,1.715715576171875,-0.06612421572208405,0.0022906772792339325,-0.1522536724805832
1761395647209093400,1.73509326171875,-0.05497625470161438,0.0525328628718853,-0.1620272397994995
1761395647228471000,1.754470947265625,0.02901524491608143,0.06245913356542587,-0.2020377367734909
1761395647247848700,1.7738486328125,0.016798298805952072,0.054365407675504684,-0.2235700935125351
1761395647267226600,1.7932265625,0.0021379655227065086,0.09208522737026215,-0.1298050433397293
1761395647286604300,1.812604248046875,0.04978405311703682,0.06673506647348404,-0.018783552572131157
1761395647305982200,1.831982177734375,0.09055810421705246,0.017714571207761765,-0.009009997360408306
1761395647325359900,1.85135986328125,0.11514470726251602,0.032069481909275055,-0.03817795217037201
1761395647344737800,1.87073779296875,0.14125843346118927,0.004886778071522713,-0.07895200699567795
1761395647364115500,1.890115478515625,0.16034740209579468,-0.04550812020897865,-0.0647498071193695
1761395647383493400,1.909493408203125,0.09422318637371063,0.04978405311703682,0.001985253533348441
1761395647402871000,1.92887109375,0.002748812548816204,0.16050012409687042,0.08276980370283127
1761395647422249000,1.9482490234375,-0.027029991149902344,0.14186927676200867,0.09315420687198639
1761395647441626600,1.967626708984375,-0.05665608495473862,0.0068720318377017975,0.019241688773036003
1761395647461004500,1.987004638671875,-0.04367557913064957,0.003359660040587187,-0.06612421572208405
1761395647480382200,2.00638232421875,-0.019088976085186005,0.01038440316915512,-0.0981936976313591
1761395647499760000,2.025760009765625,-0.029473381116986275,-0.017867282032966614,-0.10323318839073181
1761395647519137800,2.0451376953125,-0.019394399598240852,0.09697200357913971,-0.0922379344701767
1761395647538515700,2.064515625,-0.018630841746926308,0.15775130689144135,-0.033291175961494446
1761395647557893400,2.083893310546875,-0.01175880990922451,0.10598199814558029,0.028098974376916885
1761395647577271300,2.103271240234375,0.027029991149902344,0.0397050715982914,-0.010842538438737392
1761395647596649000,2.12264892578125,0.036039989441633224,0.05375456064939499,-0.14034216105937958
1761395647616027000,2.14202685546875,-0.023212196305394173,0.10002623498439789,-0.18661384284496307
1761395647635404500,2.161404541015625,-0.13744063675403595,0.014965757727622986,-0.20234315097332
1761395647654782500,2.180782470703125,-0.09498675167560577,0.04107947647571564,-0.2832804024219513
1761395647674160000,2.20016015625,0.03298575058579445,0.04810422286391258,-0.402395635843277
1761395647693538000,2.2195380859375,0.01252236869186163,-0.06062658876180649,-0.4599680006504059
1761395647712915700,2.238915771484375,0.0035123717971146107,0.017561858519911766,-0.45645561814308167
1761395647732293600,2.258293701171875,0.06658235192298889,-0.060932014137506485,-0.4688252806663513
1761395647751671300,2.27767138671875,0.0910162404179573,-0.16615045070648193,-0.5609105229377747
1761395647771049000,2.297049072265625,0.05115845799446106,-0.23319093883037567,-0.5971031785011292
1761395647790427000,2.316427001953125,0.10781454294919968,-0.33382803201675415,-0.6239804625511169
1761395647809804500,2.335804443359375,0.2835858464241028,-0.35505497455596924,-0.7036960124969482
1761395647829182500,2.355182373046875,0.3698680102825165,-0.3011476993560791,-0.8079982399940491
1761395647848560000,2.37456005859375,0.3239017724990845,-0.3052709102630615,-0.8638907074928284
1761395647867938000,2.39393798828125,0.2041756957769394,-0.2710634768009186,-0.7153021693229675
1761395647887315700,2.413315673828125,-0.023212196305394173,-0.08964183181524277,-0.429883748292923
1761395647906693600,2.432693603515625,-0.15057384967803955,0.0018325417768210173,-0.1316375881433487
1761395647926071300,2.4520712890625,-0.23624517023563385,0.016340164467692375,0.03008422814309597
1761395647945449200,2.47144921875,-0.217308908700943,-0.04092676565051079,0.1050657257437706
1761395647964827000,2.490826904296875,-0.217308908700943,-0.21837788820266724,0.1698155403137207
1761395647984204800,2.510204833984375,-0.17180079221725464,-0.3900259733200073,0.18966807425022125
1761395648003582500,2.52958251953125,-0.059710320085287094,-0.1692046970129013,0.28694549202919006
1761395648022960400,2.54896044921875,-0.09086353331804276,-0.10598199814558029,0.26968905329704285
1761395648042338000,2.568338134765625,-0.1328592747449875,-0.21746163070201874,0.039857782423496246
1761395648061716000,2.587716064453125,-0.2420482337474823,-0.208298921585083,-0.12308572232723236
1761395648081093600,2.60709375,-0.3264978528022766,-0.25686126947402954,-0.1960819661617279
1761395648100471600,2.626471435546875,-0.3680354654788971,-0.34008920192718506,-0.2945810854434967
1761395648119849200,2.64584912109375,-0.3793361485004425,-0.3032856583595276,-0.3339807391166687
1761395648139227100,2.66522705078125,-0.34451785683631897,-0.3542914092540741,-0.18661384284496307
1761395648158604800,2.684604736328125,-0.3381039500236511,-0.3058817684650421,0.029320668429136276
1761395648177982700,2.703982666015625,-0.3309265077114105,-0.18905723094940186,0.14110571146011353
1761395648197360400,2.7233603515625,-0.27686652541160583,-0.1107160672545433,0.12278030067682266
1761395648216738300,2.74273828125,-0.2176143378019333,-0.047646086663007736,0.042453885078430176
1761395648236116000,2.762115966796875,-0.16080553829669952,0.054365407675504684,-0.08903098851442337
1761395648255494000,2.781493896484375,-0.12110047042369843,0.15087927877902985,-0.14156384766101837
1761395648274871600,2.80087158203125,-0.07406523078680038,0.18630841374397278,-0.05543438717722893
1761395648294249500,2.82024951171875,0.009009997360408306,0.18600298464298248,0.08429691940546036
1761395648313627100,2.839627197265625,0.072843536734581,0.1250709742307663,0.15683503448963165
1761395648333004800,2.8590048828125,0.01435491070151329,0.1585148572921753,0.14935214817523956
1761395648352382700,2.8783828125,-0.07467607408761978,0.22570806741714478,0.10338589549064636
1761395648371760400,2.897760498046875,-0.07895200699567795,0.11987877637147903,0.0847550556063652
1761395648391138300,2.91713818359375,-0.019088976085186005,-0.02489202655851841,0.0778830274939537
1761395648410516000,2.936515869140625,0.03130592033267021,-0.02229592576622963,0.0261137206107378
1761395648429894000,2.955893798828125,0.07024743407964706,-0.003359660040587187,-0.04413371533155441
1761395648449271600,2.975271484375,0.0981936976313591,-0.020463382825255394,-0.09468132257461548
1761395648468649500,2.9946494140625,0.11667182296514511,-0.010231691412627697,-0.111021488904953
1761395648488027100,3.014027099609375,0.11942064017057419,0.05619794875383377,-0.08994726091623306
1761395648507405000,3.033405029296875,0.12232216447591782,0.027029991149902344,-0.06169557198882103
1761395648526782700,3.05278271484375,0.1250709742307663,-0.062153708189725876,-0.0032069480512291193
1761395648546160600,3.07216064453125,0.09040539711713791,-0.09468132257461548,0.059710320085287094
1761395648565538300,3.091538330078125,0.06383354216814041,-0.12308572232723236,0.11483928561210632
1761395648584916200,3.110916259765625,0.06062658876180649,-0.11117420345544815,0.14171656966209412
1761395648604294000,3.1302939453125,0.07482878863811493,-0.08964183181524277,0.14018943905830383
1761395648623671800,3.149671875,0.09498675167560577,-0.038788799196481705,0.12140589207410812
1761395648643049500,3.169049560546875,0.1169772520661354,0.0068720318377017975,0.07467607408761978
1761395648662427400,3.188427490234375,0.13377554714679718,0.04611896723508835,0.03802524134516716
1761395648681805000,3.20780517578125,0.14492350816726685,0.06200099736452103,0.031000498682260513
1761395648701183000,3.227182861328125,0.149199441075325,0.02764083817601204,0.0068720318377017975
1761395648720560600,3.246560546875,0.1375933438539505,-0.01817270554602146,-0.0397050715982914
1761395648739938600,3.2659384765625,0.1119377613067627,-0.050547610968351364,-0.04978405311703682
1761395648759316200,3.285316162109375,0.07437065243721008,-0.08170082420110703,-0.01954711228609085
1761395648778694100,3.304694091796875,0.033291175961494446,-0.047646086663007736,-0.01954711228609085
1761395648798071800,3.32407177734375,0.0010689827613532543,0.013744063675403595,-0.016492875292897224
1761395648817449700,3.34344970703125,-0.011300674639642239,-0.015576604753732681,0.047951508313417435
1761395648836827400,3.362827392578125,-0.02092151902616024,-0.04153761267662048,0.06948387622833252
1761395648856205000,3.382205078125,-0.02076880633831024,-0.006261184345930815,0.038788799196481705
1761395648875583000,3.4015830078125,-0.025808297097682953,-0.02107422985136509,0.01038440316915512
1761395648894960600,3.420960693359375,-0.03802524134516716,-0.03558185324072838,-0.016340164467692375
1761395648914338600,3.440338623046875,-0.03924693539738655,0.006261184345930815,-0.03558185324072838
1761395648933716200,3.45971630859375,-0.045355409383773804,0.05741964280605316,-0.0038177953101694584
1761395648953094100,3.47909423828125,-0.05925218388438225,0.06261184066534042,0.01847812905907631
1761395648972471800,3.498471923828125,-0.053143709897994995,0.041232191026210785,0.005955760832875967
1761395648991849700,3.517849609375,-0.04611896723508835,0.022754060104489326,0.015576604753732681
1761395649011227400,3.537227294921875,-0.045355409383773804,0.025655584409832954,0.03374931216239929
1761395649030605300,3.556605224609375,-0.042759306728839874,0.047951508313417435,0.021226942539215088
1761395649049983000,3.57598291015625,-0.03497100621461868,0.047798797488212585,-0.00916270911693573
1761395649069361000,3.59536083984375,-0.024281177669763565,0.037108972668647766,-0.017714571207761765
1761395649088738600,3.614738525390625,-0.0038177953101694584,0.03268032893538475,-0.008399149402976036
1761395649108116500,3.634116455078125,0.005650337319821119,0.03695625811815262,0.00519220158457756
1761395649127494100,3.653494140625,0.007635590620338917,0.012369656935334206,0.010689826682209969
1761395649146872000,3.6728720703125,0.01588202826678753,0.0068720318377017975,-0.008399149402976036
1761395649166249700,3.692249755859375,0.027793550863862038,0.025961007922887802,-0.05131116881966591
1761395649185627600,3.711627685546875,0.025502873584628105,0.008704573847353458,-0.07635590434074402
1761395649205005300,3.73100537109375,0.020157959312200546,-0.02351761981844902,-0.07146912813186646
1761395649224383200,3.75038330078125,0.011147962883114815,-0.033443886786699295,-0.04306473210453987
1761395649243761000,3.769760986328125,0.011300674639642239,-0.02214321307837963,-0.014660334214568138
1761395649263138800,3.789138916015625,-0.0016798300202935934,0.014813045971095562,0.023059483617544174
1761395649282516500,3.8085166015625,-0.023823043331503868,0.014965757727622986,0.04947862774133682
1761395649301894400,3.827894287109375,-0.03512371703982353,-0.006719320081174374,0.05070032179355621
1761395649321272000,3.84727197265625,-0.025350160896778107,0.0010689827613532543,0.0032069480512291193
1761395649340650000,3.86664990234375,-0.010231691412627697,-0.009468132629990578,-0.03558185324072838
1761395649360027600,3.886027587890625,-0.00030542362947016954,0.028251685202121735,-0.031916771084070206
1761395649379405300,3.9054052734375,0.0036650835536420345,0.05726693198084831,0.02489202655851841
1761395649398783200,3.924783203125,-0.0004581354442052543,0.07757759839296341,0.0856713280081749
1761395649418161000,3.944160888671875,0.004275931045413017,0.0844496339559555,0.05497625470161438
1761395649437538800,3.963538818359375,-0.0015271181473508477,0.05772506445646286,0.029626091942191124
1761395649456916500,3.98291650390625,-0.0036650835536420345,0.025961007922887802,0.016340164467692375
1761395649476294400,4.00229443359375,0.01038440316915512,-0.007788302376866341,-0.016798298805952072
1761395649495672000,4.021672119140625,0.018936265259981155,-0.023823043331503868,-0.06520794332027435
1761395649515050000,4.041050048828125,0.01695101149380207,-0.02244863659143448,-0.05405998229980469
1761395649534427600,4.060427734375,0.007941014133393764,-0.003970507066696882,-0.011300674639642239
1761395649553805600,4.0798056640625,0.006108472589403391,-0.00916270911693573,0.008857285603880882
1761395649573183200,4.099183349609375,0.004734066314995289,-0.027029991149902344,0.0050394898280501366
1761395649592561200,4.11856103515625,0.00259610079228878,-0.026571854948997498,0.023975754156708717
1761395649611938800,4.137938720703125,-0.010995250195264816,-0.03374931216239929,0.09116895496845245
1761395649631316700,4.157316650390625,-0.029167955741286278,-0.025502873584628105,0.18661384284496307
1761395649650694400,4.1766943359375,-0.03771981969475746,0.00015271181473508477,0.20677179098129272
1761395649670072300,4.196072265625,-0.04046862944960594,0.046729814261198044,0.15927842259407043
1761395649689450000,4.215449951171875,-0.03588727489113808,0.08964183181524277,0.07421794533729553
1761395649708828000,4.234827880859375,-0.03451287001371384,0.06673506647348404,0.033443886786699295
1761395649728205600,4.25420556640625,-0.04352286830544472,0.06200099736452103,0.010995250195264816
1761395649747583500,4.27358349609375,-0.036192700266838074,0.029626091942191124,-0.0198525357991457
1761395649766961200,4.292961181640625,-0.03451287001371384,-0.0050394898280501366,-0.004275931045413017
1761395649786339000,4.312339111328125,-0.023212196305394173,0.004886778071522713,-0.013133215717971325
1761395649805716700,4.331716796875,-0.004123218823224306,-0.0036650835536420345,-0.045202698558568954
1761395649825094700,4.3510947265625,0.004123218823224306,-0.014660334214568138,-0.047646086663007736
1761395649844472300,4.370472412109375,0.01511846948415041,-0.021532366052269936,-0.042759306728839874
1761395649863850200,4.389850341796875,0.013438640162348747,-0.025350160896778107,-0.03008422814309597
1761395649883228000,4.409227783203125,0.01511846948415041,-0.031000498682260513,-0.03527642786502838
1761395649902605800,4.428605712890625,0.009773556143045425,-0.007024743594229221,-0.0035123717971146107
1761395649921983500,4.4479833984375,0.0009162708884105086,0.009009997360408306,0.014660334214568138
1761395649941361200,4.467361083984375,0.0009162708884105086,-0.012216945178806782,-0.0029015245381742716
1761395649960739000,4.486739013671875,0.0038177953101694584,0.0006108472589403391,-0.02229592576622963
1761395649980116700,4.50611669921875,-0.0036650835536420345,0.02214321307837963,-0.007177455350756645
1761395649999494700,4.52549462890625,-0.006719320081174374,0.00259610079228878,0.0029015245381742716
1761395650018872300,4.544872314453125,-0.007941014133393764,0.018630841746926308,0.010689826682209969
1761395650038250200,4.564250244140625,-0.004886778071522713,0.05650337040424347,0.03268032893538475
1761395650057628000,4.5836279296875,0.007024743594229221,0.025502873584628105,0.023364907130599022
1761395650077005800,4.603005859375,0.021990500390529633,-0.013133215717971325,-0.015271181240677834
1761395650096383500,4.622383544921875,0.03145863488316536,-0.0029015245381742716,-0.046424392610788345
1761395650115761400,4.641761474609375,0.02489202655851841,-0.0006108472589403391,-0.03649812191724777
1761395650135139000,4.66113916015625,0.027182703837752342,-0.05986303091049194,-0.025502873584628105
1761395650154517000,4.68051708984375,0.036039989441633224,-0.0590994730591774,-0.03405473381280899
1761395650173894700,4.699894775390625,0.03695625811815262,-0.05115845799446106,-0.029778804630041122
1761395650193272600,4.7192724609375,0.032069481909275055,-0.047798797488212585,-0.04031591862440109
1761395650212650200,4.738650146484375,0.027029991149902344,-0.03420744836330414,-0.043981000781059265
1761395650232028200,4.758028076171875,0.02107422985136509,0.0032069480512291193,-0.0010689827613532543
1761395650251405800,4.77740576171875,0.010537114925682545,-0.0018325417768210173,0.015271181240677834
1761395650270783700,4.79678369140625,-0.01252236869186163,0.02367033064365387,0.008857285603880882
1761395650290161400,4.816161376953125,-0.03436015918850899,0.08292251825332642,0.016340164467692375
1761395650309539000,4.8355390625,-0.031000498682260513,0.09513945877552032,0.020616095513105392
1761395650328917000,4.8549169921875,-0.006719320081174374,0.04230117425322533,0.021226942539215088
1761395650348294700,4.874294677734375,0.018630841746926308,-0.027182703837752342,0.04306473210453987
1761395650367672600,4.893672607421875,0.045202698558568954,-0.0659715011715889,0.0261137206107378
1761395650387050200,4.91305029296875,0.06704048812389374,-0.07406523078680038,-0.009468132629990578
1761395650406428200,4.93242822265625,0.07177454978227615,-0.06245913356542587,-0.018019994720816612
1761395650425805800,4.951805908203125,0.08185353130102158,-0.06978929787874222,-0.04734066128730774
1761395650445183700,4.971183837890625,0.08322793990373611,-0.09239064902067184,-0.07055285573005676
1761395650464561400,4.9905615234375,0.06200099736452103,-0.07009471952915192,-0.09086353331804276
1761395650483939300,5.009939208984375,0.04077405482530594,-0.025502873584628105,-0.0522274412214756
1761395650503317000,5.02931689453125,0.012369656935334206,0.030389651656150818,-0.006261184345930815
1761395650522695000,5.04869482421875,-0.021532366052269936,0.0925433561205864,0.020005248486995697
1761395650542072600,5.068072509765625,-0.04688252881169319,0.13713520765304565,0.03268032893538475
1761395650561450500,5.087450439453125,-0.0781884491443634,0.1459924876689911,0.06261184066534042
1761395650580828200,5.106828125,-0.09727742522954941,0.14064757525920868,0.056961506605148315
1761395650600206000,5.1262060546875,-0.10766182839870453,0.11621369421482086,0.07666133344173431
1761395650619583700,5.145583740234375,-0.09391776472330093,0.032222192734479904,0.09269607067108154
1761395650638961700,5.164961669921875,-0.047798797488212585,-0.02748812735080719,0.05070032179355621
1761395650658339300,5.18433935546875,-0.0065666078589856625,-0.06276455521583557,-0.0012216945178806782
1761395650677717200,5.20371728515625,0.033443886786699295,-0.05512896552681923,-0.0584886260330677
1761395650697095000,5.223094970703125,0.0787992998957634,-0.03008422814309597,-0.11575555801391602
1761395650716472800,5.242472900390625,0.09269607067108154,-0.038483377546072006,-0.0925433561205864
1761395650735850500,5.2618505859375,0.0841442123055458,-0.04062134400010109,-0.03558185324072838
1761395650755228400,5.281228515625,0.07727217674255371,-0.04688252881169319,-0.011911521665751934
1761395650774606000,5.300606201171875,0.07070557028055191,-0.06398624926805496,0.007024743594229221
1761395650793984000,5.31998388671875,0.0650552362203598,-0.06383354216814041,0.014660334214568138
1761395650813361700,5.339361572265625,0.05757235363125801,-0.023823043331503868,0.023364907130599022
1761395650832739300,5.3587392578125,0.06123743951320648,-0.014813045971095562,0.03512371703982353
1761395650852117200,5.3781171875,0.06887302547693253,0.004275931045413017,-0.009315420873463154
1761395650871495000,5.397494873046875,0.060779303312301636,0.04932591691613197,-0.03390202298760414
1761395650890872800,5.416872802734375,0.04932591691613197,0.016645587980747223,-0.015423892997205257
1761395650910250500,5.43625048828125,0.021837789565324783,0.02367033064365387,-0.013896775431931019
1761395650929628400,5.45562841796875,-0.0030542362947016954,0.060779303312301636,-0.03558185324072838
1761395650949006000,5.475006103515625,-0.002748812548816204,0.07375980913639069,-0.020157959312200546
1761395650968384000,5.494384033203125,0.013285927474498749,0.055892523378133774,-0.007177455350756645
1761395650987761700,5.51376171875,0.03161134570837021,0.04825693368911743,-0.012064233422279358
1761395651007139600,5.5331396484375,0.05085303261876106,0.05787777900695801,-0.0006108472589403391
1761395651026517200,5.552517333984375,0.06658235192298889,0.04825693368911743,0.021226942539215088
1761395651045895200,5.571895263671875,0.07834116369485855,0.039857782423496246,0.008399149402976036
1761395651065272800,5.59127294921875,0.07345438003540039,0.04199574887752533,-0.0021379655227065086
1761395651084650800,5.610650634765625,0.05619794875383377,0.032222192734479904,-0.021990500390529633
1761395651104028400,5.6300283203125,0.046729814261198044,0.020310672000050545,-0.038636088371276855
1761395651123406300,5.64940625,0.024281177669763565,0.003970507066696882,-0.03497100621461868
1761395651142784000,5.668783935546875,0.010689826682209969,0.016034740954637527,-0.05803048983216286
1761395651162162000,5.688161865234375,0.013591351918876171,0.008551862090826035,-0.07620319724082947
1761395651181539600,5.70753955078125,-0.009009997360408306,0.013591351918876171,-0.08842013776302338
1761395651200917500,5.72691748046875,-0.008246437646448612,0.04153761267662048,-0.08643488585948944
1761395651220295200,5.746295166015625,0.0012216945178806782,0.03390202298760414,-0.050394900143146515
1761395651239673000,5.765673095703125,0.0030542362947016954,0.01588202826678753,0.026724567636847496
1761395651259050800,5.78505078125,0.0030542362947016954,-0.040010496973991394,0.1178935244679451
1761395651278428700,5.8044287109375,0.020005248486995697,-0.12247487902641296,0.14629791676998138
1761395651297806300,5.823806396484375,0.027029991149902344,-0.1817270666360855,0.11407572776079178
1761395651317184300,5.843184326171875,0.019394399598240852,-0.21883602440357208,0.0856713280081749
1761395651336562000,5.86256201171875,0.013285927474498749,-0.28999972343444824,0.038788799196481705
1761395651355939600,5.881939697265625,-0.010995250195264816,-0.2945810854434967,0.00259610079228878
1761395651375317500,5.9013173828125,-0.04443913698196411,-0.2990097403526306,0.015423892997205257
1761395651394695200,5.920695068359375,-0.08154810965061188,-0.3080197274684906,-0.01695101149380207
1761395651414073000,5.940072998046875,-0.10369132459163666,-0.2038702666759491,-0.11025793105363846
1761395651433450800,5.95945068359375,-0.15149012207984924,-0.0650552362203598,-0.12308572232723236
1761395651452828700,5.97882861328125,-0.21715620160102844,0.07207997888326645,-0.10705098509788513
1761395651472206300,5.998206298828125,-0.2629697322845459,0.18966807425022125,-0.10292776674032211
1761395651491584300,6.017584228515625,-0.2877090573310852,0.2435753494501114,-0.07543963938951492
1761395651510962000,6.0369619140625,-0.2501419484615326,0.22280654311180115,-0.0198525357991457
1761395651530339800,6.05633984375,-0.1841704547405243,0.1391204595565796,0.0590994730591774
1761395651549717500,6.075717529296875,-0.13392825424671173,0.02748812735080719,0.10369132459163666
1761395651569095400,6.095095458984375,-0.08139539510011673,0.02351761981844902,0.037414394319057465
1761395651588473000,6.11447314453125,-0.027029991149902344,0.04504998400807381,-0.06734590977430344
1761395651607851000,6.13385107421875,0.007177455350756645,0.0035123717971146107,-0.10033166408538818
1761395651627228700,6.153228759765625,0.03390202298760414,-0.016340164467692375,-0.11178504675626755
1761395651646606600,6.172606689453125,0.05024218559265137,-0.029167955741286278,-0.09300149232149124
1761395651665984300,6.191984375,0.038636088371276855,-0.0656660795211792,-0.058183200657367706
1761395651685362200,6.211362060546875,0.033443886786699295,-0.0650552362203598,-0.05665608495473862
1761395651704739800,6.23073974609375,0.037108972668647766,-0.031916771084070206,-0.05344913527369499
1761395651724117500,6.250117431640625,0.023212196305394173,-0.00916270911693573,-0.017714571207761765
1761395651743495400,6.269495361328125,0.01252236869186163,0.0018325417768210173,0.008551862090826035
1761395651762873000,6.288873046875,0.024433890357613564,0.008399149402976036,0.012216945178806782
1761395651782251000,6.3082509765625,0.043981000781059265,-0.008093725889921188,0.008551862090826035
1761395651801628700,6.327628662109375,0.055587101727724075,-0.031916771084070206,-0.0068720318377017975
1761395651821006600,6.347006591796875,0.07040014863014221,-0.024281177669763565,-0.04016320779919624
1761395651840384500,6.366384521484375,0.07956285774707794,-0.01725643500685692,-0.03268032893538475
1761395651859762200,6.38576220703125,0.06306997686624527,-0.023212196305394173,-0.051922015845775604
1761395651879139800,6.405139892578125,0.054365407675504684,-0.023823043331503868,-0.07528692483901978
1761395651898517800,6.424517822265625,0.06826218217611313,-0.05528167635202408,-0.06917845457792282
1761395651917895400,6.4438955078125,0.07986827939748764,-0.05604523420333862,-0.07040014863014221
1761395651937273300,6.4632734375,0.08170082420110703,-0.03558185324072838,-0.10888352245092392
1761395651956651000,6.482651123046875,0.10078980028629303,-0.027029991149902344,-0.14156384766101837
1761395651976029000,6.50202880859375,0.12048961967229843,0.004581354558467865,-0.1372879147529602
1761395651995406600,6.521406494140625,0.13942588865756989,0.05650337040424347,-0.12140589207410812
1761395652014784500,6.540784423828125,0.17057909071445465,0.08017370104789734,-0.09116895496845245
1761395652034162200,6.560162109375,0.17684027552604675,0.0719272643327713,-0.06734590977430344
1761395652053540000,6.5795400390625,0.18936264514923096,0.07696675509214401,-0.0713164210319519
1761395652072917800,6.598917724609375,0.2041756957769394,0.07391251623630524,-0.04474456235766411
1761395652092295700,6.618295654296875,0.21914145350456238,0.004123218823224306,0.0035123717971146107
1761395652111673300,6.63767333984375,0.2701472043991089,-0.09116895496845245,0.1188097894191742
1761395652131051300,6.65705126953125,0.2533488869667053,-0.25502872467041016,0.14965757727622986
1761395652150429000,6.676428955078125,0.27595025300979614,-0.40728241205215454,0.12216944992542267
1761395652169806800,6.695806884765625,0.2980934679508209,-0.3831539452075958,-0.012675080448389053
1761395652189184500,6.7151845703125,0.3793361485004425,-0.3506263196468353,-0.17256435751914978
1761395652208562400,6.7345625,0.3721587061882019,-0.293664813041687,-0.23196925222873688
1761395652227940000,6.753940185546875,0.2692309319972992,-0.11560284346342087,-0.1957765519618988
1761395652247318000,6.773318115234375,0.18065807223320007,0.019394399598240852,-0.20249587297439575
1761395652266695700,6.79269580078125,0.14889401197433472,0.04230117425322533,-0.24968381226062775
1761395652286073300,6.8120732421875,0.14217470586299896,0.10582929104566574,-0.2104368805885315
1761395652305451300,6.831451171875,0.14797775447368622,0.16309621930122375,-0.091932512819767
1761395652324829000,6.850828857421875,0.21410197019577026,0.17332790791988373,-0.049020491540431976
1761395652344206800,6.870206787109375,0.25502872467041016,0.23593975603580475,-0.032222192734479904
1761395652363584500,6.88958447265625,0.27885177731513977,0.16340164840221405,0.05131116881966591
1761395652382962400,6.90896240234375,0.2596100866794586,0.061084724962711334,0.062153708189725876
1761395652402340000,6.928340087890625,0.23288552463054657,0.14080029726028442,0.019241688773036003
1761395652421718000,6.947718017578125,0.1910424828529358,0.03023693896830082,0.06704048812389374
1761395652441095700,6.967095703125,0.08093725889921188,0.0010689827613532543,0.00519220158457756
1761395652460473600,6.9864736328125,-0.024586603045463562,0.005497625097632408,-0.0787992998957634
1761395652479851300,7.005851318359375,-0.10033166408538818,-0.11453386396169662,-0.053143709897994995
1761395652499229200,7.025229248046875,-0.23441264033317566,-0.06963659077882767,-0.09147437661886215
1761395652518606800,7.04460693359375,-0.39918869733810425,0.1050657257437706,-0.2092151790857315
1761395652537984800,7.06398486328125,-0.4492781460285187,0.2648022770881653,-0.30130040645599365
1761395652557362400,7.083362548828125,-0.36452311277389526,0.29534465074539185,-0.31565532088279724
1761395652576740400,7.102740234375,-0.2695363461971283,0.14064757525920868,-0.08231166750192642
1761395652596118000,7.122117919921875,-0.18187977373600006,-0.037261683493852615,0.2244863659143448
1761395652615496000,7.141495849609375,-0.20524467527866364,-0.09040539711713791,0.28877803683280945
1761395652634873600,7.16087353515625,-0.21562908589839935,-0.04810422286391258,0.17806197702884674
1761395652654251500,7.18025146484375,-0.18050536513328552,-0.06642963737249374,0.06780404597520828
1761395652673629200,7.199629150390625,-0.17974179983139038,-0.09330692142248154,-0.03558185324072838
1761395652693007000,7.219007080078125,-0.14858859777450562,-0.14767232537269592,-0.07269082218408585
1761395652712384800,7.238384765625,-0.07177454978227615,-0.16340164840221405,-0.03436015918850899
1761395652731762700,7.2577626953125,-0.08261708915233612,-0.16966283321380615,0.05375456064939499
1761395652751140400,7.277140380859375,-0.09727742522954941,-0.11514470726251602,0.12232216447591782
1761395652770518300,7.296518310546875,-0.10811996459960938,0.030389651656150818,0.11545012891292572
1761395652789896000,7.31589599609375,-0.1429382562637329,0.1313321590423584,0.06429167091846466
1761395652809273600,7.335273681640625,-0.1632489264011383,0.11865708231925964,0.06734590977430344
1761395652828651500,7.354651611328125,-0.14064757525920868,0.02092151902616024,0.07467607408761978
1761395652848029200,7.374029296875,-0.0778830274939537,-0.015576604753732681,0.09697200357913971
1761395652867407000,7.393406982421875,-0.026571854948997498,-0.0331384651362896,0.14064757525920868
1761395652886784800,7.41278466796875,-0.013591351918876171,-0.03176405653357506,0.13270656764507294
1761395652906162700,7.43216259765625,-0.05375456064939499,-0.012369656935334206,0.029320668429136276
1761395652925540400,7.451540283203125,-0.08170082420110703,-0.004123218823224306,-0.049020491540431976
1761395652944918300,7.470918212890625,-0.08704573661088943,-0.07681404054164886,-0.04413371533155441
1761395652964296000,7.4902958984375,-0.07589777559041977,-0.09697200357913971,-0.03588727489113808
1761395652983673900,7.509673828125,-0.030847785994410515,0.0032069480512291193,-0.011606098152697086
1761395653003051500,7.529051513671875,0.010842538438737392,-0.0035123717971146107,0.029778804630041122
1761395653022429400,7.548429443359375,0.01175880990922451,-0.09025268256664276,0.04077405482530594
1761395653041807000,7.56780712890625,0.03665083646774292,-0.07207997888326645,0.03436015918850899
1761395653061185000,7.58718505859375,0.04504998400807381,0.05268557742238045,0.004275931045413017
1761395653080562700,7.606562744140625,-0.0018325417768210173,0.06245913356542587,-0.02229592576622963
1761395653099940600,7.625940673828125,-0.014813045971095562,-0.007788302376866341,-0.03527642786502838
1761395653119318300,7.645318359375,-0.0036650835536420345,-0.034665580838918686,-0.029778804630041122
1761395653138696200,7.6646962890625,-0.02748812735080719,-0.02214321307837963,-0.025197450071573257
1761395653158073900,7.684073974609375,0.021837789565324783,0.013285927474498749,-0.012216945178806782
1761395653177451800,7.70345166015625,0.08108997344970703,0.011453386396169662,-0.007482878863811493
1761395653196829400,7.722829345703125,0.054365407675504684,-0.0022906772792339325,0.0030542362947016954
1761395653216207400,7.742207275390625,0.05497625470161438,0.013285927474498749,0.008246437646448612
1761395653235585000,7.7615849609375,0.10842538625001907,-0.0456608310341835,-0.010842538438737392
1761395653254963000,7.780962890625,0.10781454294919968,-0.07620319724082947,-0.03497100621461868
1761395653274340600,7.800340576171875,0.046577103435993195,-0.022601349279284477,-0.029167955741286278
1761395653293718500,7.819718505859375,0.03665083646774292,-0.04031591862440109,-0.0050394898280501366
1761395653313096200,7.83909619140625,0.05665608495473862,-0.09620844572782516,-0.009773556143045425
1761395653332473900,7.858473876953125,0.04489727318286896,-0.07238540053367615,-0.025808297097682953
1761395653351851800,7.877851806640625,0.04734066128730774,-0.014507622458040714,0.016492875292897224
1761395653371229400,7.8972294921875,0.029167955741286278,-0.026571854948997498,0.02489202655851841
1761395653390607400,7.916607421875,0.027029991149902344,0.0006108472589403391,-0.025655584409832954
1761395653409985000,7.935985107421875,0.025808297097682953,-0.007177455350756645,-0.034665580838918686
1761395653429363000,7.955363037109375,0.008399149402976036,-0.0261137206107378,0.005497625097632408
1761395653448740900,7.974740966796875,0.02473931387066841,-0.0010689827613532543,0.009773556143045425
1761395653468118500,7.994118408203125,0.029167955741286278,0.016034740954637527,-0.009315420873463154
1761395653487496400,8.013496337890626,0.0035123717971146107,-0.033291175961494446,-0.034665580838918686
1761395653506874000,8.0328740234375,0.010689826682209969,-0.017561858519911766,-0.01832541823387146
1761395653526251800,8.052251708984375,0.045202698558568954,0.00259610079228878,0.0021379655227065086
1761395653545629700,8.071629638671874,0.05100574716925621,-0.019241688773036003,0.0015271181473508477
1761395653565007400,8.09100732421875,0.0390942245721817,-0.032069481909275055,-0.007177455350756645
1761395653584385300,8.11038525390625,0.04550812020897865,-0.018783552572131157,0.008246437646448612
1761395653603763000,8.129762939453125,0.027029991149902344,-0.03023693896830082,0.027029991149902344
1761395653623140900,8.149140869140625,0.017867282032966614,-0.0325276181101799,0.018936265259981155
1761395653642518500,8.1685185546875,0.03542914241552353,-0.04428642615675926,-0.01588202826678753
1761395653661896400,8.187896484375,0.04825693368911743,-0.0910162404179573,-0.037261683493852615
1761395653681274000,8.207274169921876,0.031000498682260513,-0.07650861889123917,-0.001374406274408102
1761395653700652000,8.226652099609375,0.033443886786699295,-0.04932591691613197,0.01038440316915512
1761395653720029700,8.24602978515625,0.032222192734479904,-0.032069481909275055,-0.02764083817601204
1761395653739407600,8.26540771484375,-0.010231691412627697,-0.024281177669763565,-0.05665608495473862
1761395653758785300,8.284785400390625,-0.033291175961494446,0.021685076877474785,0.006719320081174374
1761395653778163200,8.3041630859375,-0.0459662564098835,0.04932591691613197,0.1050657257437706
1761395653797540900,8.323540771484375,-0.06856760382652283,0.04932591691613197,0.12232216447591782
1761395653816918800,8.342918701171875,-0.09407047927379608,0.05085303261876106,0.06963659077882767
1761395653836296400,8.36229638671875,-0.07605048269033432,0.07009471952915192,0.023364907130599022
1761395653855674400,8.38167431640625,-0.06368082761764526,0.07864658534526825,0.017867282032966614
1761395653875052000,8.401052001953126,-0.0584886260330677,0.04550812020897865,-0.005497625097632408
1761395653894430000,8.420429931640625,-0.04474456235766411,0.023212196305394173,-0.018019994720816612
1761395653913807600,8.4398076171875,-0.024433890357613564,0.002748812548816204,0.0022906772792339325
1761395653933185500,8.459185546875,-0.013744063675403595,-0.02473931387066841,0.04306473210453987
1761395653952563200,8.478563232421875,-0.01572931744158268,0.007482878863811493,0.04062134400010109
1761395653971941000,8.497941162109376,-0.018630841746926308,-0.007330167107284069,-0.0016798300202935934
1761395653991318800,8.51731884765625,-0.021990500390529633,-0.07085828483104706,-0.04489727318286896
1761395654010696700,8.53669677734375,-0.026571854948997498,-0.09941539168357849,-0.06016845628619194
1761395654030074400,8.556074462890624,0.008246437646448612,-0.07299624383449554,-0.024586603045463562
1761395654049452000,8.5754521484375,0.0462716780602932,-0.08811471611261368,0.05100574716925621
1761395654068830000,8.594829833984376,0.03008422814309597,-0.053143709897994995,0.05757235363125801
1761395654088207600,8.61420751953125,-0.018936265259981155,0.055739812552928925,-0.027793550863862038
1761395654107585500,8.63358544921875,-0.06200099736452103,0.06612421572208405,-0.027946261689066887
1761395654126963200,8.652963134765624,-0.04291202127933502,0.07070557028055191,0.014965757727622986
1761395654146341000,8.672341064453125,-0.03955236077308655,0.08276980370283127,0.029167955741286278
1761395654165719000,8.691718994140626,-0.047646086663007736,0.06933116167783737,0.0393996499478817
1761395654185096700,8.7110966796875,-0.01847812905907631,0.017867282032966614,0.02489202655851841
1761395654204474600,8.730474609375,0.00015271181473508477,0.02489202655851841,-0.02504473738372326
1761395654223852300,8.749852294921874,-0.020157959312200546,0.0841442123055458,-0.018936265259981155
1761395654243230000,8.76922998046875,-0.014049487188458443,0.02886253222823143,0.010689826682209969
1761395654262608000,8.78860791015625,-0.0068720318377017975,-0.03023693896830082,0.01252236869186163
1761395654281985500,8.807985595703125,-0.005650337319821119,0.0012216945178806782,0.023364907130599022
1761395654301363500,8.827363525390625,0.00015271181473508477,-0.01511846948415041,0.02367033064365387
1761395654320741000,8.8467412109375,0.010995250195264816,-0.0725381150841713,0.010842538438737392
1761395654340119000,8.866119140625,-0.00519220158457756,-0.07101099193096161,0.02626643143594265
1761395654359496700,8.88549658203125,-0.016492875292897224,-0.0029015245381742716,0.04153761267662048
1761395654378874600,8.90487451171875,-0.016187451779842377,0.023364907130599022,0.02076880633831024
1761395654398252300,8.924252197265625,-0.007788302376866341,0.026877280324697495,-0.008399149402976036
1761395654417630200,8.943630126953124,-0.0024433890357613564,0.03802524134516716,0.013285927474498749
1761395654437008000,8.9630078125,-0.01725643500685692,0.015423892997205257,0.030695075169205666
1761395654456385800,8.9823857421875,-0.041384901851415634,-0.02092151902616024,0.020157959312200546
1761395654475763500,9.001763427734375,-0.021532366052269936,-0.013438640162348747,0.022601349279284477
1761395654495141400,9.021141357421875,0.00259610079228878,-0.020616095513105392,0.030389651656150818
1761395654514519000,9.04051904296875,0.004886778071522713,-0.01847812905907631,-0.0004581354442052543
1761395654533897000,9.05989697265625,-0.021685076877474785,0.019241688773036003,-0.046729814261198044
1761395654553274600,9.079274658203126,-0.016187451779842377,-0.0021379655227065086,-0.005497625097632408
1761395654572652500,9.098652587890625,0.010231691412627697,-0.07574506103992462,0.04443913698196411
1761395654592030200,9.1180302734375,0.038636088371276855,-0.10002623498439789,0.032222192734479904
1761395654611408100,9.137408203125,0.0594048947095871,-0.08796200156211853,0.04459185153245926
1761395654630785800,9.156785888671875,0.06872031837701797,-0.08399149775505066,0.06887302547693253
1761395654650163700,9.176163818359376,0.03390202298760414,-0.008704573847353458,0.05512896552681923
1761395654669541400,9.195541259765625,0.016798298805952072,0.03161134570837021,0.022754060104489326
1761395654688919300,9.214919189453125,0.02993151545524597,0.006261184345930815,0.007941014133393764
1761395654708297000,9.234296875,0.01511846948415041,-0.014202198944985867,0.012827792204916477
1761395654727675000,9.2536748046875,0.006413896102458239,0.008399149402976036,0.016798298805952072
1761395654747052500,9.273052490234376,0.043828289955854416,0.001374406274408102,-0.011147962883114815
1761395654766430500,9.292430419921875,0.04443913698196411,-0.031916771084070206,-0.03771981969475746
1761395654785808100,9.31180810546875,0.025502873584628105,-0.008551862090826035,-0.014660334214568138
1761395654805186000,9.33118603515625,0.018783552572131157,-0.013744063675403595,0.02886253222823143
1761395654824563700,9.350563720703125,0.020616095513105392,-0.03008422814309597,0.02367033064365387
1761395654843941600,9.369941650390626,0.002748812548816204,-0.003359660040587187,-0.010078979656100273
1761395654863319300,9.3893193359375,-0.00519220158457756,0.008704573847353458,-0.004428642801940441
1761395654882697200,9.408697265625,0.01695101149380207,-0.004581354558467865,0.021226942539215088
1761395654902075000,9.428074951171874,-0.010078979656100273,-0.07360709458589554,0.055587101727724075
1761395654921452800,9.447452880859375,-0.03558185324072838,-0.09437590092420578,0.07559234648942947
1761395654940830500,9.46683056640625,-0.0015271181473508477,-0.016645587980747223,0.029778804630041122
1761395654960208100,9.4862080078125,0.029167955741286278,0.004886778071522713,-0.024433890357613564
1761395654979586000,9.5055859375,0.014660334214568138,-0.025350160896778107,-0.021837789565324783
1761395654998963700,9.524963623046874,-0.008399149402976036,-0.016340164467692375,0.011606098152697086
1761395655018341600,9.544341552734375,-0.016492875292897224,0.019088976085186005,0.002748812548816204
1761395655037719600,9.563719482421876,-0.0030542362947016954,-0.00519220158457756,-0.021379653364419937
1761395655057097200,9.58309716796875,0.03787253051996231,-0.009620844386518002,-0.014049487188458443
1761395655076475100,9.60247509765625,0.019241688773036003,-0.005344913341104984,0.01038440316915512
1761395655095852800,9.621852783203124,-0.031000498682260513,0.0022906772792339325,0.019241688773036003
1761395655115230700,9.641230712890625,-0.018936265259981155,-0.006719320081174374,-0.00519220158457756
1761395655134608400,9.6606083984375,0.024433890357613564,-0.008857285603880882,-0.010689826682209969
1761395655153986000,9.679986083984375,0.02214321307837963,-0.008399149402976036,0.014049487188458443
1761395655173364000,9.699364013671875,-0.005497625097632408,0.016798298805952072,0.020005248486995697
1761395655192741600,9.71874169921875,-0.018783552572131157,-0.011606098152697086,0.0038177953101694584
1761395655212119600,9.73811962890625,-0.0198525357991457,-0.036039989441633224,-0.011911521665751934
1761395655231497200,9.757497314453126,-0.014049487188458443,0.001985253533348441,-0.01588202826678753
1761395655250875100,9.776875244140625,-0.00519220158457756,0.007177455350756645,-0.005344913341104984
1761395655270252800,9.796252685546875,-0.016492875292897224,0.0012216945178806782,0.0029015245381742716
1761395655289630700,9.815630615234374,-0.025502873584628105,-0.027946261689066887,-0.004886778071522713
1761395655309008600,9.835008544921875,-0.007788302376866341,-0.003970507066696882,0.02367033064365387
1761395655328386300,9.85438623046875,0.008093725889921188,0.009620844386518002,0.027029991149902344
1761395655347764000,9.873763916015625,-0.004581354558467865,-0.0035123717971146107,-0.0016798300202935934
1761395655367142000,9.893141845703125,-0.016187451779842377,0.009315420873463154,-0.05665608495473862
1761395655386519600,9.91251953125,0.013133215717971325,0.012369656935334206,-0.04611896723508835
1761395655405897500,9.9318974609375,0.02733541466295719,-0.02764083817601204,0.033443886786699295
1761395655425275100,9.951275146484376,0.003359660040587187,-0.02214321307837963,0.047646086663007736
1761395655444653000,9.970653076171875,0.00916270911693573,0.0068720318377017975,0.018936265259981155
1761395655464030700,9.99003076171875,0.025808297097682953,-0.014813045971095562,0.025502873584628105
1761395655483408600,10.00940869140625,0.03695625811815262,-0.04840964451432228,0.0331384651362896
1761395655502786300,10.028786376953125,0.055739812552928925,-0.037414394319057465,0.07269082218408585
1761395655522164200,10.048164306640626,0.03955236077308655,-0.016798298805952072,0.0844496339559555
1761395655541542000,10.0675419921875,-0.028098974376916885,-0.009468132629990578,-0.02367033064365387
1761395655560919800,10.086919921875,-0.10063708573579788,-0.0007635590736754239,-0.09284878522157669
1761395655580297500,10.10629736328125,-0.07727217674255371,0.004886778071522713,-0.08032641559839249
1761395655599675400,10.12567529296875,-0.038788799196481705,-0.024586603045463562,-0.0393996499478817
1761395655619053000,10.145052978515626,-0.013133215717971325,0.023059483617544174,0.010078979656100273
1761395655638431000,10.164430908203125,0.03665083646774292,0.01710372418165207,0.07024743407964706
1761395655657808600,10.18380859375,0.07345438003540039,-0.03573456406593323,0.0844496339559555
1761395655677186600,10.2031865234375,-0.01725643500685692,-0.005803049076348543,0.027946261689066887
1761395655696564200,10.222564208984375,-0.10888352245092392,0.024433890357613564,-0.042759306728839874
1761395655715942100,10.241942138671876,-0.07207997888326645,-0.012980503961443901,-0.0859767496585846
1761395655735319800,10.26131982421875,-0.007788302376866341,-0.05329642444849014,-0.07666133344173431
1761395655754697700,10.28069775390625,0.0032069480512291193,0.03130592033267021,-0.014965757727622986
1761395655774075400,10.300075439453124,-0.023059483617544174,0.05008947476744652,0.05390727147459984
1761395655793453300,10.319453369140625,-0.026571854948997498,-0.02733541466295719,0.05070032179355621
1761395655812831000,10.3388310546875,-0.027029991149902344,-0.029473381116986275,-0.016340164467692375
1761395655832209000,10.358208984375,0.019394399598240852,0.0522274412214756,-0.04199574887752533
1761395655851586600,10.377586669921875,0.05070032179355621,0.014660334214568138,0.009773556143045425
1761395655870964500,10.396964599609374,0.028404397889971733,-0.025197450071573257,0.03405473381280899
1761395655890342100,10.416342041015625,-0.023059483617544174,0.005344913341104984,0.018019994720816612
1761395655909720000,10.435719970703126,-0.006413896102458239,-0.0029015245381742716,-0.004428642801940441
1761395655948475600,10.4744755859375,0.04611896723508835,-0.02641914412379265,0.0021379655227065086
1761395655967853300,10.493853271484374,0.02473931387066841,-0.042453885078430176,0.04092676565051079
1761395655987231200,10.513231201171875,0.07559234648942947,-0.0647498071193695,0.060932014137506485
1761395656006609000,10.53260888671875,0.11712995916604996,-0.07101099193096161,0.0653606578707695
1761395656025986800,10.55198681640625,0.10216420143842697,-0.049020491540431976,0.06062658876180649
1761395656045364500,10.571364501953125,0.04840964451432228,0.002748812548816204,0.020310672000050545
1761395656064742400,10.590742431640624,-0.011453386396169662,-0.00916270911693573,-0.03497100621461868
1761395656084120000,10.6101201171875,-0.021990500390529633,-0.05665608495473862,-0.04062134400010109
1761395656103498000,10.629498046875,-0.011911521665751934,-0.024128466844558716,-0.031916771084070206
1761395656122875600,10.648875732421875,-0.020157959312200546,0.05803048983216286,-0.02626643143594265
1761395656142253600,10.668253662109375,-0.02107422985136509,0.024281177669763565,0.0030542362947016954
1761395656161631200,10.68763134765625,0.0035123717971146107,0.0050394898280501366,0.018783552572131157
1761395656181009200,10.707009033203125,0.0015271181473508477,0.007482878863811493,-0.004428642801940441
1761395656200386800,10.72638671875,-0.0012216945178806782,-0.007941014133393764,-0.01038440316915512
1761395656219764700,10.7457646484375,0.03817795217037201,0.0036650835536420345,0.003359660040587187
1761395656239142400,10.765142333984375,0.02351761981844902,0.0010689827613532543,0.010995250195264816
1761395656258520300,10.784520263671874,-0.03161134570837021,-0.017409147694706917,-0.0010689827613532543
1761395656277898000,10.80389794921875,-0.027029991149902344,-0.005955760832875967,-0.05207473039627075
1761395656297276000,10.82327587890625,0.019088976085186005,0.03573456406593323,-0.014507622458040714
1761395656316653600,10.842653564453125,0.05787777900695801,0.003970507066696882,0.04504998400807381
1761395656336031500,10.862031494140625,0.05482354015111923,-0.005955760832875967,0.022754060104489326
1761395656355409200,10.8814091796875,0.0004581354442052543,-0.007788302376866341,-0.04169032722711563
1761395656374787000,10.900787109375,-0.007330167107284069,0.017714571207761765,-0.05467082932591438
1761395656394164700,10.920164794921876,0.03405473381280899,0.02489202655851841,-0.0032069480512291193
1761395656413542700,10.939542724609375,0.04352286830544472,0.025961007922887802,0.047798797488212585
1761395656432920300,10.95892041015625,0.011911521665751934,0.02473931387066841,0.06444438546895981
1761395656452298200,10.97829833984375,-0.018630841746926308,0.037261683493852615,0.023975754156708717
1761395656471676000,10.997676025390625,-0.037567105144262314,0.014202198944985867,-0.011606098152697086
1761395656491053800,11.0170537109375,-0.016798298805952072,0.007482878863811493,-0.014049487188458443
1761395656510431500,11.036431396484375,0.00519220158457756,-0.004886778071522713,-0.0004581354442052543
1761395656529809400,11.055809326171875,-0.0021379655227065086,-0.03833066672086716,-0.021226942539215088
1761395656549187000,11.07518701171875,-0.005344913341104984,-0.018783552572131157,-0.05787777900695801
1761395656568565000,11.09456494140625,-0.022754060104489326,0.0030542362947016954,-0.0198525357991457
1761395656587942700,11.113942626953126,-0.04107947647571564,-0.02641914412379265,0.018019994720816612
1761395656607320600,11.133320556640625,-0.03161134570837021,0.00992626789957285,0.014049487188458443
1761395656626698200,11.1526982421875,-0.01969982497394085,0.05100574716925621,-0.0022906772792339325
1761395656646076200,11.172076171875,-0.042759306728839874,0.02244863659143448,-0.0004581354442052543
1761395656665453800,11.191453857421875,-0.03573456406593323,0.0022906772792339325,-0.015271181240677834
1761395656684831700,11.210831787109376,-0.019394399598240852,0.03924693539738655,-0.02504473738372326
1761395656704209400,11.23020947265625,-0.010231691412627697,0.03634541109204292,-0.026571854948997498
1761395656723587300,11.24958740234375,-0.0012216945178806782,0.02244863659143448,0.0018325417768210173
1761395656742965000,11.268965087890624,0.027793550863862038,0.03023693896830082,0.025502873584628105
1761395656762343000,11.288343017578125,0.06719319522380829,0.020310672000050545,0.01847812905907631
1761395656781720600,11.307720458984376,0.0456608310341835,0.030847785994410515,-0.008704573847353458
1761395656801098500,11.327098388671875,0.01435491070151329,0.04184303805232048,-0.04321744292974472
1761395656820476200,11.34647607421875,0.03436015918850899,0.051922015845775604,-0.06047387793660164
1761395656839854000,11.36585400390625,0.0650552362203598,0.008399149402976036,-0.0459662564098835
1761395656859231700,11.385231689453125,0.0859767496585846,-0.016645587980747223,-0.022601349279284477
1761395656878609700,11.404609619140626,0.0988045409321785,0.004734066314995289,-0.02901524491608143
1761395656897987300,11.4239873046875,0.111021488904953,-0.001985253533348441,-0.0036650835536420345
1761395656917365200,11.443365234375,0.10582929104566574,-0.041232191026210785,0.02367033064365387
1761395656936743000,11.462742919921874,0.072232685983181,-0.04581354558467865,0.020005248486995697
1761395656956120800,11.482120849609375,0.04489727318286896,0.01954711228609085,-0.0010689827613532543
1761395656975498500,11.50149853515625,0.026571854948997498,0.05528167635202408,-0.019088976085186005
1761395656994876400,11.52087646484375,-0.008857285603880882,-0.017409147694706917,-0.007024743594229221
1761395657014254000,11.540254150390625,-0.04840964451432228,0.0015271181473508477,0.012216945178806782
1761395657033632000,11.559632080078124,-0.06032116711139679,0.06291726976633072,0.0016798300202935934
1761395657053009700,11.579009765625,-0.0791047215461731,0.036192700266838074,0.0004581354442052543
1761395657072387600,11.5983876953125,-0.09834641218185425,0.04016320779919624,0.015271181240677834
1761395657091765200,11.61776513671875,-0.1056765764951706,0.03268032893538475,0.020157959312200546
1761395657111143200,11.63714306640625,-0.08460234850645065,0.006413896102458239,-0.015271181240677834
1761395657130520800,11.656520751953124,-0.05604523420333862,0.011911521665751934,-0.020005248486995697
1761395657149898800,11.675898681640625,-0.0594048947095871,0.006261184345930815,0.012216945178806782
1761395657169276400,11.6952763671875,-0.056808795779943466,0.014507622458040714,0.007941014133393764
1761395657188654300,11.714654296875,-0.027182703837752342,-0.01588202826678753,-0.025197450071573257
1761395657208032000,11.734031982421875,-0.015423892997205257,-0.05268557742238045,-0.02367033064365387
1761395657227410000,11.753409912109374,-0.02244863659143448,-0.0032069480512291193,0.014660334214568138
1761395657246787600,11.77278759765625,0.0021379655227065086,0.058335911482572556,0.031153209507465363
1761395657266165500,11.79216552734375,-0.0018325417768210173,0.018783552572131157,0.007330167107284069
1761395657285543200,11.811543212890625,-0.030695075169205666,0,-0.027946261689066887
1761395657304921000,11.830921142578125,-0.02244863659143448,0.02748812735080719,-0.027029991149902344
1761395657324298800,11.850298828125,-0.0007635590736754239,0.04291202127933502,0.034818295389413834
1761395657343676700,11.8696767578125,0.009009997360408306,0.03558185324072838,0.05665608495473862
1761395657363054300,11.889054443359376,0.009773556143045425,0.016340164467692375,0.013896775431931019
1761395657382432300,11.908432373046875,-0.01710372418165207,0.02993151545524597,-0.036192700266838074
1761395657401810000,11.927809814453125,-0.08215895295143127,0.03512371703982353,-0.055739812552928925
1761395657421187800,11.947187744140624,-0.17561858892440796,0.018783552572131157,-0.11621369421482086
1761395657440565500,11.9665654296875,-0.3268032968044281,-0.0584886260330677,-0.24815669655799866
1761395657459943400,11.985943359375,-0.3733803927898407,-0.0650552362203598,-0.39476004242897034
1761395657479321000,12.005321044921875,-0.21501824259757996,0.012064233422279358,-0.4340069890022278
1761395657498699000,12.024698974609375,-0.27717193961143494,-0.1435490995645523,-0.14706148207187653
1761395657518076700,12.04407666015625,-0.48806697130203247,-0.3086305856704712,0.08826743066310883
1761395657537454600,12.06345458984375,-0.3599417507648468,-0.0662769302725792,0.07650861889123917
1761395657556832300,12.082832275390626,-0.1044548824429512,0.4039227366447449,-0.06978929787874222
1761395657576210200,12.102210205078125,-0.043981000781059265,0.42224815487861633,-0.23242738842964172
1761395657595587800,12.121587890625,-0.011300674639642239,0.12751436233520508,-0.2855710983276367
1761395657614965800,12.1409658203125,-0.0036650835536420345,0.14171656966209412,-0.14889401197433472
1761395657634343400,12.160343505859375,-0.14370182156562805,0.062306419014930725,0.03374931216239929
1761395657653721300,12.179721435546876,-0.19226416945457458,0.0009162708884105086,0.0009162708884105086
1761395657673099000,12.19909912109375,-0.1291942000389099,0.1053711548447609,-0.0794101431965828
1761395657692477000,12.218476806640625,-0.058335911482572556,0.07330167293548584,-0.1450762301683426
1761395657711854600,12.2378544921875,-0.020463382825255394,0.1522536724805832,0.027182703837752342
1761395657731232500,12.257232421875,-0.18600298464298248,0.1107160672545433,0.4034646153450012
1761395657750610200,12.276610107421876,-0.07055285573005676,-0.05925218388438225,0.3996468186378479
1761395657769988000,12.295988037109375,0.006413896102458239,-0.08154810965061188,0.18661384284496307
1761395657789365800,12.31536572265625,-0.09681928902864456,0.016492875292897224,-0.0009162708884105086
1761395657808743700,12.33474365234375,-0.13423368334770203,0.013133215717971325,-0.2223484069108963
1761395657828121300,12.354121337890625,-0.07467607408761978,-0.12155860662460327,-0.41232189536094666
1761395657847499300,12.373499267578126,-0.1569877415895462,-0.1423274129629135,-0.22280654311180115
