time,seconds_elapsed,z,y,x
1761395645636737000,0.162737060546875,3.6340994834899902,8.484949111938477,-2.4939193725585938
1761395645656502300,0.182502197265625,3.1818559169769287,8.851051330566406,-2.7846474647521973
1761395645696032800,0.22203271484375,3.2679975032806396,8.489136695861816,-2.222334146499634
1761395645715798000,0.241798095703125,3.3481571674346924,8.673981666564941,-2.256431818008423
1761395645735563300,0.261563232421875,3.1244282722473145,8.641678810119629,-2.2097716331481934
1761395645755328500,0.28132861328125,3.122633457183838,8.553742408752441,-2.324028968811035
1761395645775094000,0.301093994140625,3.1100711822509766,8.541180610656738,-2.586043119430542
1761395645794859300,0.320859375,3.132802963256836,8.815756797790527,-2.4299113750457764
1761395645814624500,0.34062451171875,3.586841106414795,8.724231719970703,-2.11405873298645
1761395645834389800,0.3603896484375,3.8333017826080322,8.617751121520996,-2.0027925968170166
1761395645853768000,0.379767822265625,3.431307554244995,8.891729354858398,-2.1206390857696533
1761395645873145900,0.399145751953125,3.418147087097168,8.970093727111816,-2.007578134536743
1761395645892523500,0.4185234375,3.525225877761841,8.786444664001465,-1.7856439352035522
1761395645911901400,0.4379013671875,3.837489366531372,8.812167167663574,-1.8831514120101929
1761395645931279000,0.457279052734375,4.211966037750244,8.726025581359863,-1.7653049230575562
1761395645950657000,0.476656982421875,4.263411521911621,8.685347557067871,-1.965105652809143
1761395645970034700,0.49603466796875,4.0558342933654785,8.86361312866211,-2.255235433578491
1761395645989412600,0.51541259765625,4.125824451446533,8.779266357421875,-2.103889226913452
1761395646008790300,0.534790283203125,3.9451663494110107,8.772088050842285,-1.9316060543060303
1761395646028168200,0.554168212890625,3.675375461578369,8.878568649291992,-1.944766640663147
1761395646047545900,0.5735458984375,3.34576416015625,8.967103004455566,-1.7467604875564575
1761395646066923800,0.592923828125,3.1477582454681396,8.991629600524902,-1.3938192129135132
1761395646086301400,0.612301513671875,3.3302109241485596,8.93240737915039,-1.3872389793395996
1761395646105679400,0.631679443359375,3.6047873497009277,8.792427062988281,-1.7748762369155884
1761395646125057000,0.65105712890625,3.906881093978882,8.828319549560547,-1.9435701370239258
1761395646144435000,0.67043505859375,3.733999729156494,8.870193481445312,-1.7718851566314697
1761395646163812600,0.6898125,3.5168511867523193,8.903095245361328,-1.7521443367004395
1761395646183190500,0.7091904296875,3.6885361671447754,8.862417221069336,-1.9280169010162354
1761395646202568200,0.728568115234375,3.817748546600342,8.764909744262695,-1.862214207649231
1761395646221946000,0.747946044921875,3.7740795612335205,8.836095809936523,-1.8442680835723877
1761395646241323800,0.76732373046875,3.7669010162353516,8.873184204101562,-2.035095691680908
1761395646260701700,0.78670166015625,3.872185230255127,8.858229637145996,-2.026122570037842
1761395646280079400,0.806079345703125,3.88594388961792,8.786444664001465,-1.9609181880950928
1761395646299457300,0.825457275390625,3.7950167655944824,8.739784240722656,-1.947757601737976
1761395646318835000,0.8448349609375,3.702893018722534,8.732605934143066,-1.8993029594421387
1761395646338212600,0.864212646484375,3.81655216217041,8.72482967376709,-1.730010747909546
1761395646357590500,0.883590576171875,3.950550079345703,8.803792953491211,-1.721037745475769
1761395646376968200,0.90296826171875,3.9493536949157715,8.883354187011719,-1.7222341299057007
1761395646396346000,0.92234619140625,3.8907296657562256,8.982656478881836,-1.4829518795013428
1761395646415724000,0.94172412109375,3.8835511207580566,9.049057006835938,-1.2436695098876953
1761395646435101700,0.961101806640625,3.8159539699554443,9.005986213684082,-1.332203984260559
1761395646454479600,0.980479736328125,3.8811583518981934,8.967103004455566,-1.4213366508483887
1761395646473857300,0.999857177734375,4.084548473358154,8.929415702819824,-1.4656038284301758
1761395646493235200,1.019235107421875,4.207180500030518,8.906683921813965,-1.6450655460357666
1761395646512612900,1.03861279296875,4.012763500213623,8.951549530029297,-1.805384635925293
1761395646531990500,1.057990478515625,3.748356580734253,8.876175880432129,-1.7904295921325684
1761395646551368400,1.077368408203125,3.4169507026672363,8.780462265014648,-1.7240287065505981
1761395646570746000,1.09674609375,3.466601848602295,8.689535140991211,-1.6869399547576904
1761395646590124000,1.1161240234375,3.9499518871307373,8.676374435424805,-1.7569299936294556
1761395646609501700,1.135501708984375,4.460221290588379,8.745766639709473,-1.7240287065505981
1761395646628879600,1.154879638671875,4.329812526702881,8.84925651550293,-1.867598056793213
1761395646648257300,1.17425732421875,3.867997884750366,8.95693302154541,-2.1056840419769287
1761395646667635200,1.19363525390625,3.6095728874206543,8.922835350036621,-2.0781664848327637
1761395646687012900,1.213012939453125,3.8045880794525146,8.715856552124023,-1.80717933177948
1761395646706390800,1.232390869140625,3.820739507675171,8.664410591125488,-1.77607262134552
1761395646725768400,1.2517685546875,3.7734813690185547,8.58185863494873,-1.7635103464126587
1761395646745146400,1.271146484375,3.6777684688568115,8.662615776062012,-1.7126628160476685
1761395646764524000,1.29052392578125,3.7124643325805664,8.699705123901367,-1.7252250909805298
1761395646803279600,1.329279541015625,4.198207378387451,8.850452423095703,-2.0297117233276367
1761395646822657500,1.348657470703125,4.01037073135376,8.930612564086914,-1.8681962490081787
1761395646842035200,1.36803515625,4.047459602355957,8.92821979522705,-1.8789639472961426
1761395646861413000,1.3874130859375,4.225724697113037,8.912666320800781,-2.100898265838623
1761395646880790800,1.406790771484375,4.4614176750183105,8.921041488647461,-1.9896320104599
1761395646900168700,1.426168701171875,4.566103935241699,8.82233715057373,-1.872383713722229
1761395646919546400,1.44554638671875,4.28734016418457,8.673383712768555,-2.046461582183838
1761395646938924300,1.46492431640625,3.8500516414642334,8.39282512664795,-2.9383862018585205
1761395646958302000,1.484302001953125,3.6329028606414795,8.242077827453613,-2.7900311946868896
1761395646977680000,1.503679931640625,3.6843485832214355,8.24147891998291,-2.056631088256836
1761395646997057500,1.5230576171875,3.9122650623321533,8.37727165222168,-1.9357935190200806
1761395647016435500,1.542435546875,4.165306091308594,8.571688652038574,-1.8819550275802612
1761395647035813000,1.561813232421875,4.113860130310059,8.70508861541748,-1.5337992906570435
1761395647055190800,1.581190673828125,4.237689018249512,8.810373306274414,-1.6971094608306885
1761395647074568700,1.600568603515625,4.497310161590576,8.888139724731445,-1.6217355728149414
1761395647093946400,1.6199462890625,4.561916351318359,8.930013656616211,-1.2604193687438965
1761395647113324300,1.63932421875,4.266402721405029,8.902496337890625,-1.4297115802764893
1761395647132702200,1.6587021484375,4.095315933227539,8.947361946105957,-1.820937991142273
1761395647152080000,1.678079833984375,4.238885402679443,8.767302513122559,-1.6342978477478027
1761395647171457800,1.697457763671875,4.369892120361328,8.81515884399414,-1.1359925270080566
1761395647190835500,1.71683544921875,4.314259052276611,8.775078773498535,-1.194616675376892
1761395647210213400,1.73621337890625,4.247260093688965,8.591429710388184,-2.169093608856201
1761395647229591000,1.755591064453125,4.314857482910156,8.618349075317383,-1.8987047672271729
1761395647248968700,1.77496875,4.6438703536987305,8.461020469665527,-1.5248262882232666
1761395647268346600,1.7943466796875,4.975276470184326,8.350951194763184,-1.97407865524292
1761395647287724300,1.813724365234375,4.754538536071777,8.408378601074219,-2.1720848083496094
1761395647307102200,1.833102294921875,4.457828521728516,8.452646255493164,-1.9932212829589844
1761395647326480000,1.85247998046875,4.231706619262695,8.473583221435547,-2.017747640609741
1761395647345857800,1.87185791015625,4.359723091125488,8.456833839416504,-2.1409780979156494
1761395647365235500,1.8912353515625,4.6648077964782715,8.46161937713623,-1.8035900592803955
1761395647384613400,1.91061328125,4.701298236846924,8.57348346710205,-1.2993026971817017
1761395647403991000,1.929990966796875,4.49252462387085,8.69910717010498,-1.6002001762390137
1761395647423369000,1.949368896484375,4.1623148918151855,8.646464347839355,-1.7276179790496826
1761395647442746600,1.96874658203125,3.9864425659179688,8.638688087463379,-1.7461622953414917
1761395647462124500,1.98812451171875,3.951746702194214,8.676973342895508,-1.9938194751739502
1761395647481502200,2.007502197265625,4.235894203186035,8.611170768737793,-1.9537396430969238
1761395647500880100,2.026880126953125,4.225724697113037,8.590831756591797,-1.9453648328781128
1761395647520257800,2.0462578125,4.596612453460693,8.459226608276367,-1.7365909814834595
1761395647539635700,2.0656357421875,4.650450706481934,8.514261245727539,-1.9202401638031006
1761395647559013400,2.085013427734375,4.271786689758301,8.529814720153809,-2.3048863410949707
1761395647578391300,2.104391357421875,3.909274101257324,8.443673133850098,-2.2713868618011475
1761395647597769000,2.12376904296875,4.0935211181640625,8.245068550109863,-2.204387903213501
1761395647617147000,2.14314697265625,4.3896331787109375,8.263014793395996,-1.949552297592163
1761395647636524500,2.162524658203125,4.147958278656006,8.596813201904297,-2.0584256649017334
1761395647655902500,2.18190234375,3.933800458908081,8.748757362365723,-3.046063184738159
1761395647675280100,2.201280029296875,4.24367094039917,8.425128936767578,-2.7349963188171387
1761395647694658000,2.220657958984375,4.400999069213867,8.350951194763184,-1.8592232465744019
1761395647714035700,2.24003564453125,4.865804672241211,8.170890808105469,-2.417947292327881
1761395647733413600,2.25941357421875,4.742574691772461,8.280363082885742,-2.407777786254883
1761395647752791300,2.278791259765625,4.695914268493652,8.151150703430176,-1.8065811395645142
1761395647772169000,2.2981689453125,5.006382942199707,8.064410209655762,-1.989033818244934
1761395647791547000,2.317546875,4.8777689933776855,7.950153350830078,-2.5088746547698975
1761395647810924500,2.336924560546875,4.595416069030762,8.383254051208496,-2.266601324081421
1761395647830302500,2.356302490234375,4.865206718444824,7.6474609375,-0.9002995491027832
1761395647849680100,2.37568017578125,5.633302688598633,7.567899703979492,-0.8883354067802429
1761395647869058000,2.39505810546875,6.446264266967773,7.968099594116211,-0.29012975096702576
1761395647888435700,2.414435791015625,7.068996429443359,8.055437088012695,-0.28175488114356995
1761395647907813600,2.433813720703125,6.87816858291626,8.670392990112305,-0.3762713670730591
1761395647927191300,2.45319140625,6.378068923950195,8.069794654846191,-1.067797064781189
1761395647946569200,2.4725693359375,6.345167636871338,7.6630144119262695,-1.6115660667419434
1761395647965947000,2.49194677734375,6.080162525177002,7.772486209869385,-1.8305093050003052
1761395647985324800,2.51132470703125,5.8719868659973145,7.7593255043029785,-2.0470597743988037
1761395648004702500,2.530702392578125,5.5142598152160645,8.006982803344727,-1.4967105388641357
1761395648024080400,2.550080322265625,5.3078789710998535,7.237690448760986,-0.39541393518447876
1761395648043458000,2.5694580078125,4.928616523742676,6.926024913787842,-0.02153540402650833
1761395648062836000,2.5888359375,5.370092391967773,7.080362319946289,-0.2554338276386261
1761395648082213600,2.608213623046875,5.664409637451172,7.352545738220215,-0.36311084032058716
1761395648101591600,2.627591552734375,5.480162143707275,7.4949188232421875,-0.7704889178276062
1761395648120969200,2.64696923828125,6.595217227935791,7.520641803741455,-1.1527422666549683
1761395648140347100,2.66634716796875,7.146762847900391,7.574480056762695,-1.551147222518921
1761395648159724800,2.685724853515625,6.709474563598633,7.502097129821777,-1.6121642589569092
1761395648179102700,2.705102783203125,6.135197162628174,7.759923934936523,-1.9986051321029663
1761395648198480400,2.72448046875,5.56869649887085,7.9968132972717285,-2.4394826889038086
1761395648217858300,2.7438583984375,5.248058319091797,8.111668586730957,-2.513660192489624
1761395648237236000,2.763236083984375,5.26600456237793,8.26660442352295,-2.593221426010132
1761395648256614000,2.78261376953125,5.682953834533691,8.246265411376953,-2.6177480220794678
1761395648275991600,2.801991455078125,6.01675271987915,8.437092781066895,-3.0759735107421875
1761395648295369500,2.821369384765625,6.0466628074646,8.828917503356934,-3.514458179473877
1761395648314747100,2.8407470703125,5.604588985443115,7.933403491973877,-2.4125633239746094
1761395648334124800,2.860124755859375,4.94775915145874,7.326822757720947,-1.311864972114563
1761395648353502700,2.879502685546875,5.139184951782227,7.437490940093994,-1.5188441276550293
1761395648372880400,2.89888037109375,5.690132141113281,7.748558044433594,-2.0512471199035645
1761395648392258300,2.91825830078125,5.633302688598633,7.886145114898682,-2.0679969787597656
1761395648411636000,2.937635986328125,5.526223659515381,7.934599876403809,-1.828116536140442
1761395648431014000,2.957013916015625,5.5962138175964355,7.847859859466553,-1.825723648071289
1761395648450391600,2.9763916015625,5.762515068054199,7.818548202514648,-1.9172492027282715
1761395648469769500,2.99576953125,5.965306758880615,7.753942012786865,-2.011167526245117
1761395648489147100,3.015147216796875,5.921638011932373,7.682157039642334,-1.8897316455841064
1761395648508525000,3.034525146484375,6.055037498474121,7.740781307220459,-2.0644078254699707
1761395648527902700,3.05390283203125,6.14417028427124,7.677371501922607,-1.7593228816986084
1761395648547280600,3.07328076171875,6.123831272125244,7.611568927764893,-1.545763373374939
1761395648566658300,3.092658203125,5.946762561798096,7.638488292694092,-1.6737794876098633
1761395648586036200,3.1120361328125,5.760122299194336,7.736593723297119,-1.690529227256775
1761395648605414000,3.131413818359375,5.622535228729248,7.885547161102295,-1.7276179790496826
1761395648624791800,3.150791748046875,5.474778175354004,7.9040913581848145,-1.7365909814834595
1761395648644169500,3.17016943359375,5.362913608551025,7.922635555267334,-1.698904037475586
1761395648663547400,3.18954736328125,5.4418768882751465,7.849056243896484,-1.7138592004776
1761395648682925000,3.208925048828125,5.460421085357666,7.859225749969482,-1.7126628160476685
1761395648702303000,3.228302978515625,5.356333255767822,7.892725467681885,-1.6534404754638672
1761395648721680600,3.2476806640625,5.442475318908691,7.920841217041016,-1.662413477897644
1761395648741058600,3.26705859375,5.766702651977539,7.883154392242432,-1.550549030303955
1761395648760436200,3.286436279296875,5.761318683624268,7.844869136810303,-1.4949159622192383
1761395648779814100,3.305814208984375,5.628517150878906,7.827520847320557,-1.4141582250595093
1761395648799191800,3.32519189453125,5.861817359924316,7.7461652755737305,-1.5361921787261963
1761395648818569700,3.34456982421875,6.0125651359558105,7.747959613800049,-1.6426727771759033
1761395648837947400,3.363947509765625,5.640480995178223,7.834699630737305,-1.5391831398010254
1761395648857325000,3.383324951171875,5.525027275085449,7.839485168457031,-1.4847464561462402
1761395648876703000,3.402702880859375,5.566901683807373,7.87777042388916,-1.4111671447753906
1761395648896080600,3.42208056640625,5.55015230178833,7.875975608825684,-1.3884353637695312
1761395648915458600,3.44145849609375,5.700301647186279,7.835297584533691,-1.5092729330062866
1761395648934836200,3.460836181640625,5.8337016105651855,7.886743545532227,-1.4769697189331055
1761395648954214100,3.480214111328125,5.730810165405273,7.908278942108154,-1.6606189012527466
1761395648973591800,3.499591796875,5.636891841888428,7.8819580078125,-1.7682958841323853
1761395648992969700,3.5189697265625,5.800800323486328,7.858627796173096,-1.7353945970535278
1761395649012347400,3.538347412109375,5.6793646812438965,7.829914093017578,-1.7641085386276245
1761395649031725300,3.557725341796875,5.4658050537109375,7.8317084312438965,-1.8340985774993896
1761395649051103000,3.57710302734375,5.519643783569336,7.875975608825684,-1.877767562866211
1761395649070481000,3.59648095703125,5.699105262756348,7.88494873046875,-1.8747764825820923
1761395649089858600,3.615858642578125,5.691926956176758,7.878368377685547,-1.7796618938446045
1761395649109236500,3.635236572265625,5.624927997589111,7.864011764526367,-1.6761722564697266
1761395649128614100,3.6546142578125,5.474180221557617,7.840083599090576,-1.74496591091156
1761395649147992000,3.673991943359375,5.283352375030518,7.861020565032959,-1.7670994997024536
1761395649167369700,3.69336962890625,5.303092956542969,7.922635555267334,-1.6618152856826782
1761395649186747600,3.71274755859375,5.520840167999268,7.9351983070373535,-1.5852450132369995
1761395649206125300,3.732125244140625,5.710471153259277,7.9040913581848145,-1.532004714012146
1761395649225503200,3.751503173828125,5.733801364898682,7.865208148956299,-1.5535401105880737
1761395649244881000,3.770880859375,5.86421012878418,7.844270706176758,-1.5649060010910034
1761395649264258800,3.7902587890625,5.959922790527344,7.859225749969482,-1.4273186922073364
1761395649283636500,3.809636474609375,5.970690727233887,7.874779224395752,-1.4620146751403809
1761395649303014400,3.829014404296875,5.72422981262207,7.852047443389893,-1.6307085752487183
1761395649322392000,3.84839208984375,5.622535228729248,7.8795647621154785,-1.7001005411148071
1761395649341770000,3.86777001953125,5.840281963348389,7.868198871612549,-1.7282161712646484
1761395649361147600,3.887147705078125,5.819942951202393,7.841279983520508,-1.597209095954895
1761395649380525600,3.906525634765625,5.938985824584961,7.814360618591309,-1.6002001762390137
1761395649399903200,3.9259033203125,5.49930477142334,7.821538925170898,-1.6348960399627686
1761395649419281000,3.945281005859375,5.347958564758301,7.840681552886963,-1.6917256116867065
1761395649438658800,3.964658935546875,5.3748779296875,7.823931694030762,-1.6815561056137085
1761395649458036500,3.984036376953125,5.26600456237793,7.820940971374512,-1.8526428937911987
1761395649477414400,4.003414306640625,5.205585479736328,7.858627796173096,-1.8861424922943115
1761395649496792000,4.0227919921875,5.423332691192627,7.867002487182617,-1.7629120349884033
1761395649516170000,4.042169921875,5.722435474395752,7.834699630737305,-1.7156537771224976
1761395649535547600,4.061547607421875,5.733202934265137,7.8179497718811035,-1.6917256116867065
1761395649554925600,4.080925537109375,5.681159019470215,7.841279983520508,-1.730010747909546
1761395649574303200,4.10030322265625,5.737988471984863,7.829914093017578,-1.7593228816986084
1761395649593681200,4.11968115234375,6.033502101898193,7.82692289352417,-1.6893328428268433
1761395649613058800,4.139058837890625,6.189035892486572,7.894520282745361,-1.5990036725997925
1761395649632436700,4.158436767578125,5.939583778381348,7.899305820465088,-1.6869399547576904
1761395649651814400,4.177814453125,5.607579708099365,7.940581798553467,-1.7832510471343994
1761395649671192300,4.1971923828125,5.223531723022461,7.963313579559326,-1.755135416984558
1761395649690570000,4.216570068359375,5.221138954162598,7.984848976135254,-1.7934205532073975
1761395649709948000,4.235947998046875,5.440680503845215,7.982456207275391,-1.700698733329773
1761395649729325600,4.25532568359375,5.26600456237793,7.956135272979736,-1.7880367040634155
1761395649748703500,4.274703369140625,5.410171985626221,7.907082557678223,-1.8711873292922974
1761395649768081200,4.2940810546875,5.416752338409424,7.875975608825684,-1.8496519327163696
1761395649787459000,4.313458984375,5.117051124572754,7.898707389831543,-1.8496519327163696
1761395649806836700,4.332836669921875,5.2283172607421875,7.867002487182617,-1.8586249351501465
1761395649826214700,4.352214599609375,5.346164226531982,7.858627796173096,-1.8400806188583374
1761395649845592300,4.37159228515625,5.515456199645996,7.898707389831543,-1.820937991142273
1761395649864970200,4.39097021484375,5.469992637634277,7.9040913581848145,-1.7934205532073975
1761395649884348000,4.410347900390625,5.6823554039001465,7.882555961608887,-1.8616160154342651
1761395649903725800,4.429725830078125,5.733801364898682,7.911868095397949,-1.7365909814834595
1761395649923103500,4.449103515625,5.637490272521973,7.981858253479004,-1.80717933177948
1761395649942481200,4.468481201171875,5.5142598152160645,7.961519241333008,-1.8221344947814941
1761395649961859000,4.487859130859375,5.625525951385498,7.967501163482666,-1.7647067308425903
1761395649981236700,4.50723681640625,5.636293888092041,7.9351983070373535,-1.7240287065505981
1761395650000614700,4.52661474609375,5.539982795715332,7.950751304626465,-1.7467604875564575
1761395650019992300,4.545992431640625,5.614758491516113,7.911868095397949,-1.710868239402771
1761395650039370200,4.565370361328125,5.469394207000732,7.944769382476807,-1.7563318014144897
1761395650058748000,4.584747802734375,5.231308460235596,7.9585280418396,-1.7964116334915161
1761395650078125800,4.604125732421875,5.163113117218018,7.907082557678223,-1.7886348962783813
1761395650097503500,4.62350341796875,5.37906551361084,7.874181270599365,-1.695314884185791
1761395650116881400,4.64288134765625,5.4867424964904785,7.923233985900879,-1.7282161712646484
1761395650136259000,4.662259033203125,5.4628143310546875,7.913662910461426,-1.797009825706482
1761395650155637000,4.681636962890625,5.554937839508057,7.921439170837402,-1.794616937637329
1761395650175014700,4.7010146484375,5.586642742156982,7.944769382476807,-1.6737794876098633
1761395650194392600,4.720392578125,5.537590026855469,7.944769382476807,-1.683350682258606
1761395650213770200,4.739770263671875,5.7517476081848145,7.920242786407471,-1.7688941955566406
1761395650233148200,4.759148193359375,5.737390518188477,7.909475326538086,-1.7916259765625
1761395650252525800,4.77852587890625,5.599205017089844,7.929215908050537,-1.726421594619751
1761395650271903700,4.79790380859375,5.587240695953369,7.886145114898682,-1.6558332443237305
1761395650291281400,4.817281494140625,5.628517150878906,7.8628153800964355,-1.7623138427734375
1761395650310659000,4.8366591796875,5.5244293212890625,7.8795647621154785,-1.8921245336532593
1761395650330037000,4.856037109375,5.579464435577393,7.8658061027526855,-1.8993029594421387
1761395650349414700,4.87541455078125,5.385645389556885,7.83410120010376,-1.8556339740753174
1761395650368792600,4.89479248046875,5.111069202423096,7.861618995666504,-1.7676976919174194
1761395650388170200,4.914170166015625,5.1774702072143555,7.878368377685547,-1.6085749864578247
1761395650407548200,4.933548095703125,5.184648513793945,7.878368377685547,-1.6468602418899536
1761395650426925800,4.95292578125,5.287539958953857,7.926225185394287,-1.7132610082626343
1761395650446303700,4.9723037109375,5.49930477142334,7.9585280418396,-1.5696916580200195
1761395650465681400,4.991681396484375,5.887540340423584,7.959724426269531,-1.6588243246078491
1761395650485059300,5.011059326171875,6.180660724639893,7.9860453605651855,-1.461416482925415
1761395650504437000,5.03043701171875,6.142375946044922,8.113463401794434,-1.4087743759155273
1761395650523815000,5.04981494140625,6.03529691696167,8.153543472290039,-1.4105689525604248
1761395650543192600,5.069192626953125,5.849853038787842,8.152944564819336,-1.4374881982803345
1761395650562570500,5.088570556640625,5.669793128967285,8.084151268005371,-1.540379524230957
1761395650581948200,5.1079482421875,5.486144065856934,7.983652591705322,-1.6217355728149414
1761395650601326000,5.127326171875,5.426921844482422,7.8664045333862305,-1.74496591091156
1761395650620703700,5.146703857421875,5.057828903198242,7.785646915435791,-1.9262222051620483
1761395650640081700,5.16608154296875,4.847260475158691,7.727022647857666,-2.0279171466827393
1761395650659459300,5.185459228515625,4.922036170959473,7.688138961791992,-1.9812572002410889
1761395650678837200,5.204837158203125,4.901697158813477,7.686344623565674,-2.1158533096313477
1761395650698215000,5.22421484375,5.358726501464844,7.7700934410095215,-2.08713960647583
1761395650717592800,5.2435927734375,5.879165172576904,7.8664045333862305,-1.9160526990890503
1761395650736970500,5.262970458984375,5.91924524307251,7.938787460327148,-1.9076778888702393
1761395650756348400,5.282348388671875,5.772684574127197,7.970492362976074,-1.9208383560180664
1761395650775726000,5.30172607421875,5.694319725036621,7.936992645263672,-1.9226330518722534
1761395650795104000,5.32110400390625,5.526223659515381,7.904689788818359,-1.8598214387893677
1761395650814481700,5.340481689453125,5.521438121795654,7.904689788818359,-1.8634105920791626
1761395650833859300,5.359859375,5.3318071365356445,7.976474285125732,-1.82273268699646
1761395650853237200,5.3792373046875,5.25762939453125,8.048856735229492,-1.5978072881698608
1761395650872615000,5.398614990234375,5.4795637130737305,8.117650985717773,-1.4374881982803345
1761395650891992800,5.417992919921875,5.60099983215332,8.173283576965332,-1.2855439186096191
1761395650911370500,5.43737060546875,5.534000396728516,8.199007034301758,-1.103689432144165
1761395650930748400,5.45674853515625,5.6344990730285645,8.201997756958008,-1.2454642057418823
1761395650950126000,5.4761259765625,5.807978630065918,8.1493558883667,-1.3752747774124146
1761395650969504000,5.49550390625,5.750551223754883,8.093722343444824,-1.2975081205368042
1761395650988881700,5.514881591796875,5.661418437957764,8.004590034484863,-1.2652050256729126
1761395651008259600,5.534259521484375,5.72841739654541,7.967501163482666,-1.2233306169509888
1761395651027637200,5.55363720703125,5.578267574310303,8.037490844726562,-1.1276177167892456
1761395651047015200,5.57301513671875,5.508277893066406,8.065607070922852,-1.0654042959213257
1761395651066392800,5.592392822265625,5.431707382202148,8.062017440795898,-1.0360921621322632
1761395651085770800,5.611770751953125,5.2977094650268555,8.0081787109375,-1.1383854150772095
1761395651105148400,5.6311484375,5.429912567138672,7.901698589324951,-1.225723385810852
1761395651124526300,5.6505263671875,5.370092391967773,7.8693952560424805,-1.2532408237457275
1761395651143904000,5.669904052734375,5.310271739959717,7.835297584533691,-1.384247899055481
1761395651163282000,5.689281982421875,5.547759532928467,7.901698589324951,-1.506281852722168
1761395651182659600,5.70865966796875,5.578866004943848,7.992027759552002,-1.5002998113632202
1761395651202037500,5.72803759765625,5.822933673858643,8.01356315612793,-1.7994025945663452
1761395651221415200,5.747415283203125,6.0472612380981445,7.989036560058594,-1.8705891370773315
1761395651240793000,5.76679296875,5.967101573944092,7.94716215133667,-1.85383939743042
1761395651260170800,5.786170654296875,5.656632900238037,7.8526458740234375,-1.963310956954956
1761395651279548700,5.805548583984375,5.185246467590332,7.765905857086182,-1.893320918083191
1761395651298926300,5.82492626953125,4.923830986022949,7.686344623565674,-1.7096717357635498
1761395651318304300,5.84430419921875,4.907081127166748,7.6600236892700195,-1.7096717357635498
1761395651337682000,5.863681884765625,5.014758110046387,7.632505893707275,-1.5571293830871582
1761395651357059600,5.8830595703125,5.31266450881958,7.592426300048828,-1.466800332069397
1761395651376437500,5.9024375,5.456233978271484,7.65164852142334,-1.5780665874481201
1761395651395815200,5.921815185546875,5.338387489318848,7.710870742797852,-1.5858432054519653
1761395651415193000,5.941193115234375,5.734997749328613,7.817351341247559,-1.516451358795166
1761395651434570800,5.96057080078125,6.2428741455078125,7.984848976135254,-1.3764712810516357
1761395651453948700,5.97994873046875,6.345765590667725,8.143373489379883,-1.3698909282684326
1761395651473326300,5.999326416015625,6.4354963302612305,8.194819450378418,-1.44945228099823
1761395651492704300,6.018704345703125,6.22193717956543,8.112865447998047,-1.7180466651916504
1761395651512082000,6.03808203125,6.128018856048584,7.844869136810303,-2.2785654067993164
1761395651531459800,6.0574599609375,5.8061842918396,7.7730841636657715,-2.245065927505493
1761395651550837500,6.07683740234375,5.106283664703369,7.753942012786865,-2.091326951980591
1761395651570215400,6.09621533203125,4.482355117797852,7.768298625946045,-2.007578134536743
1761395651589593000,6.115593017578125,4.65224552154541,7.8454670906066895,-1.9166508913040161
1761395651608971000,6.134970947265625,5.054837703704834,7.9627156257629395,-1.7892330884933472
1761395651628348700,6.1543486328125,5.323431968688965,7.982456207275391,-1.8131613731384277
1761395651647726600,6.1737265625,5.810969829559326,7.989634990692139,-1.893320918083191
1761395651667104300,6.193104248046875,5.832505226135254,8.01236629486084,-1.8544375896453857
1761395651686482200,6.212482177734375,5.715256690979004,7.9728851318359375,-1.9537396430969238
1761395651705859800,6.23185986328125,5.8343000411987305,7.932805061340332,-1.8388842344284058
1761395651725237500,6.251237548828125,5.884549140930176,7.919644832611084,-1.719243049621582
1761395651744615400,6.270615478515625,5.793023586273193,7.9250288009643555,-1.6911274194717407
1761395651763993000,6.2899931640625,5.662614822387695,7.93998384475708,-1.6259230375289917
1761395651783371000,6.30937109375,5.615954875946045,7.916055679321289,-1.5451651811599731
1761395651802748700,6.328748779296875,5.426323413848877,7.875975608825684,-1.4105689525604248
1761395651822126600,6.348126708984375,5.416752338409424,7.8664045333862305,-1.3794622421264648
1761395651841504500,6.36750439453125,5.504090309143066,7.88913631439209,-1.2717852592468262
1761395651860882200,6.386882080078125,5.547759532928467,7.937591075897217,-1.296311616897583
1761395651880259800,6.406259765625,5.637490272521973,7.9860453605651855,-1.412961721420288
1761395651899637800,6.4256376953125,5.736194133758545,7.9968132972717285,-1.4344971179962158
1761395651919015400,6.445015380859375,5.639883041381836,8.034500122070312,-1.3334003686904907
1761395651938393300,6.464393310546875,5.636293888092041,8.050053596496582,-1.444068431854248
1761395651957771000,6.48377099609375,5.901298999786377,8.045268058776855,-1.5553346872329712
1761395651977149000,6.50314892578125,5.999404430389404,8.018946647644043,-1.547558069229126
1761395651996526600,6.522526611328125,6.068796634674072,7.968697547912598,-1.8269200325012207
1761395652015904500,6.541904541015625,6.015556335449219,7.89631462097168,-1.9525432586669922
1761395652035282200,6.5612822265625,5.72841739654541,7.856235027313232,-1.922034740447998
1761395652054660000,6.58066015625,5.535196781158447,7.766504287719727,-2.2169501781463623
1761395652074037800,6.600037841796875,5.718846321105957,7.5978102684021,-2.163111686706543
1761395652093415700,6.619415771484375,5.705087184906006,7.292725086212158,-2.4598217010498047
1761395652112793300,6.63879345703125,5.3216376304626465,7.1162543296813965,-2.4089741706848145
1761395652132171300,6.658171142578125,5.0566325187683105,7.094120979309082,-2.3503501415252686
1761395652151549000,6.677548828125,4.722833633422852,7.095317363739014,-2.0679969787597656
1761395652170926800,6.6969267578125,4.4584269523620605,7.365706443786621,-1.9399809837341309
1761395652190304500,6.716304443359375,5.045864582061768,7.599604606628418,-1.7425731420516968
1761395652209682400,6.735682373046875,6.017949104309082,7.513463020324707,-0.7878368496894836
1761395652229060000,6.75506005859375,6.267998695373535,7.581060409545898,-0.6203392744064331
1761395652248437800,6.774437744140625,6.21356201171875,7.685148239135742,-0.9349954724311829
1761395652267815700,6.793815673828125,6.7345991134643555,7.652246952056885,-1.2011969089508057
1761395652287193300,6.813193359375,7.0067830085754395,7.572685241699219,-1.1168500185012817
1761395652306571300,6.8325712890625,6.964908599853516,7.618149280548096,-1.1395817995071411
1761395652325949000,6.851948974609375,6.473781585693359,7.8388872146606445,-0.8482556343078613
1761395652345326800,6.871326904296875,6.333801746368408,7.853243827819824,-0.5605186820030212
1761395652364704500,6.89070458984375,6.232106685638428,7.974081516265869,-0.44446679949760437
1761395652384082400,6.91008251953125,5.502893924713135,8.101499557495117,0.14297115802764893
1761395652403460000,6.929460205078125,5.700900077819824,8.014759063720703,0.3613162338733673
1761395652422838000,6.948838134765625,5.706881999969482,8.206185340881348,0.7902296781539917
1761395652442215700,6.968215576171875,5.219344615936279,8.373085021972656,1.2149556875228882
1761395652461593600,6.987593505859375,5.7170515060424805,8.528617858886719,1.0109676122665405
1761395652480971300,7.00697119140625,5.8923258781433105,8.495118141174316,1.1730812788009644
1761395652500349200,7.02634912109375,5.554339408874512,8.436494827270508,1.44945228099823
1761395652519726800,7.045726806640625,5.800201892852783,8.227720260620117,0.908674418926239
1761395652539104800,7.065104736328125,6.307480335235596,7.9627156257629395,-0.19142581522464752
1761395652558482400,7.084482421875,7.142575740814209,7.427919864654541,-1.1772687435150146
1761395652577860400,7.1038603515625,7.731209754943848,7.296912670135498,-1.4111671447753906
1761395652597238000,7.123238037109375,6.835696220397949,7.378866672515869,-1.109073281288147
1761395652616616000,7.142615966796875,5.483152866363525,7.582854747772217,-0.8446664214134216
1761395652635993600,7.16199365234375,5.1529436111450195,7.557132244110107,-1.3076776266098022
1761395652655371500,7.18137158203125,5.205585479736328,7.4847493171691895,-1.3657035827636719
1761395652674749200,7.200749267578125,5.511268615722656,7.41535758972168,-1.3387842178344727
1761395652694127000,7.220127197265625,6.14417028427124,7.363313674926758,-1.8077775239944458
1761395652713504800,7.2395048828125,6.635895252227783,7.437490940093994,-1.5607185363769531
1761395652732882700,7.258882568359375,6.793821811676025,7.613363265991211,-1.2939188480377197
1761395652752260400,7.27826025390625,6.594020843505859,7.710870742797852,-1.545763373374939
1761395652771638300,7.29763818359375,6.059823513031006,7.802396297454834,-1.3758729696273804
1761395652791016000,7.317015869140625,5.988038539886475,7.802994728088379,-1.420140266418457
1761395652810393600,7.3363935546875,5.8995041847229,7.713263988494873,-1.674377679824829
1761395652829771500,7.355771484375,5.798407554626465,7.632505893707275,-1.8580267429351807
1761395652849149200,7.375149169921875,5.835496425628662,7.581658363342285,-1.8604196310043335
1761395652868527000,7.394527099609375,5.705087184906006,7.6013994216918945,-1.7569299936294556
1761395652887904800,7.41390478515625,5.263611793518066,7.7007012367248535,-1.490728497505188
1761395652907282700,7.43328271484375,5.134997367858887,7.778468132019043,-1.3262219429016113
1761395652926660400,7.452660400390625,5.552545070648193,7.710870742797852,-1.5541383028030396
1761395652946038300,7.472038330078125,5.860620975494385,7.613363265991211,-1.5858432054519653
1761395652965416000,7.491416015625,5.946164131164551,7.5326056480407715,-1.6534404754638672
1761395652984793900,7.5107939453125,6.115456581115723,7.509275436401367,-1.7461622953414917
1761395653004171500,7.530171630859375,6.089135646820068,7.643273830413818,-1.604387640953064
1761395653023549400,7.549549560546875,5.941977024078369,7.712665557861328,-1.511067509651184
1761395653042927000,7.568927001953125,5.8923258781433105,7.678567886352539,-1.5146567821502686
1761395653062305000,7.588304931640625,5.761318683624268,7.744968891143799,-1.1318050622940063
1761395653081682700,7.6076826171875,5.770890235900879,7.810771465301514,-1.2149556875228882
1761395653101060600,7.627060546875,5.84147834777832,7.743772506713867,-1.5068800449371338
1761395653120438300,7.646438232421875,5.828317642211914,7.682157039642334,-1.2502498626708984
1761395653139816200,7.665816162109375,5.877370834350586,7.643273830413818,-1.337587833404541
1761395653159193900,7.68519384765625,5.939583778381348,7.613961696624756,-1.7048860788345337
1761395653178571800,7.70457177734375,5.877370834350586,7.681559085845947,-1.2538390159606934
1761395653197949400,7.723949462890625,5.835496425628662,7.762914657592773,-1.0492527484893799
1761395653217327400,7.743327392578125,5.763113498687744,7.731209754943848,-1.319043517112732
1761395653236705000,7.762705078125,5.752345561981201,7.728816986083984,-1.3268201351165771
1761395653256083000,7.7820830078125,5.780461311340332,7.813164234161377,-0.719641387462616
1761395653275460600,7.801460693359375,5.941378593444824,7.83111047744751,-0.7800601720809937
1761395653294838500,7.820838623046875,5.993422508239746,7.806583881378174,-1.164108157157898
1761395653314216200,7.84021630859375,5.870192050933838,7.791628837585449,-1.0253244638442993
1761395653333593900,7.85959375,6.045466423034668,7.730013370513916,-1.0163514614105225
1761395653352971800,7.8789716796875,6.203392505645752,7.792226791381836,-1.1156535148620605
1761395653372349400,7.898349365234375,5.840879917144775,7.847261905670166,-1.0707881450653076
1761395653391727400,7.917727294921875,5.80199670791626,7.798807144165039,-1.2149556875228882
1761395653411105000,7.93710498046875,6.051448345184326,7.755138397216797,-1.1126625537872314
1761395653430483000,7.95648291015625,5.96889591217041,7.727620601654053,-1.1623135805130005
1761395653449860900,7.97586083984375,5.793023586273193,7.739584922790527,-1.220937728881836
1761395653469238500,7.995238525390625,5.742176055908203,7.755736351013184,-1.0995019674301147
1761395653488616400,8.014616455078125,5.878567218780518,7.777271747589111,-1.1156535148620605
1761395653507994000,8.033994140625,6.014957904815674,7.723433494567871,-1.2855439186096191
1761395653527371800,8.053371826171874,5.962913990020752,7.744370460510254,-1.2047861814498901
1761395653546749700,8.072749755859375,5.873781204223633,7.736593723297119,-1.0253244638442993
1761395653566127400,8.09212744140625,5.903093338012695,7.719245910644531,-1.038485050201416
1761395653585505300,8.11150537109375,5.996413707733154,7.744968891143799,-0.9595218896865845
1761395653604883000,8.130883056640625,5.881557941436768,7.787441253662109,-0.908674418926239
1761395653624260900,8.1502607421875,5.781657695770264,7.773682594299316,-1.0325030088424683
1761395653643638500,8.169638427734375,5.7170515060424805,7.754539966583252,-1.033101201057434
1761395653663016400,8.189016357421876,5.997011661529541,7.778468132019043,-0.8703892230987549
1761395653682394000,8.20839404296875,6.085546016693115,7.7940216064453125,-0.8243274092674255
1761395653701772000,8.22777197265625,5.966503143310547,7.835297584533691,-0.9571290612220764
1761395653721149700,8.247149658203124,5.890531063079834,7.871788501739502,-0.7525427341461182
1761395653740527600,8.266527587890625,6.248856544494629,7.861618995666504,-0.6963114142417908
1761395653759905300,8.2859052734375,6.568896293640137,7.860422611236572,-0.8434699773788452
1761395653779283200,8.305283203125,6.344569206237793,7.911269664764404,-0.8739784955978394
1761395653798660900,8.324660888671875,5.857629776000977,7.926225185394287,-0.8015955686569214
1761395653818038800,8.344038818359374,5.657230854034424,7.886145114898682,-1.0067801475524902
1761395653837416400,8.36341650390625,5.727818965911865,7.798209190368652,-1.1162517070770264
1761395653856794400,8.38279443359375,5.711069583892822,7.771289825439453,-1.1377872228622437
1761395653876172000,8.402172119140625,5.592624664306641,7.752147197723389,-1.2370892763137817
1761395653895550000,8.421550048828125,5.702096462249756,7.726424217224121,-1.280758261680603
1761395653914927600,8.440927734375,5.843272686004639,7.707281589508057,-1.2598211765289307
1761395653934305500,8.460305419921875,5.810969829559326,7.720442295074463,-1.1670992374420166
1761395653953683200,8.47968310546875,5.61116886138916,7.7838521003723145,-1.1252248287200928
1761395653973061000,8.49906103515625,5.5932230949401855,7.8113694190979,-1.2023934125900269
1761395653992438800,8.518438720703125,5.708078384399414,7.810173034667969,-1.1437692642211914
1761395654011816700,8.537816650390624,5.9509501457214355,7.719843864440918,-1.231107234954834
1761395654031194400,8.5571943359375,6.233303070068359,7.6875410079956055,-1.3824533224105835
1761395654050572000,8.576572021484376,6.214160442352295,7.69531774520874,-1.3076776266098022
1761395654069950000,8.595949951171875,5.618347644805908,7.8179497718811035,-0.9122636318206787
1761395654089327600,8.61532763671875,5.7619171142578125,7.906484127044678,-0.8422735929489136
1761395654108705500,8.63470556640625,6.168098449707031,7.878368377685547,-1.1282159090042114
1761395654128083200,8.654083251953125,6.059225082397461,7.848458290100098,-1.2179467678070068
1761395654147461000,8.673461181640626,5.873183250427246,7.846065521240234,-1.042074203491211
1761395654166839000,8.692839111328125,5.797211170196533,7.786843299865723,-1.2329018115997314
1761395654186216700,8.712216796875,5.625525951385498,7.731209754943848,-1.3226326704025269
1761395654205594600,8.7315947265625,5.66201639175415,7.762316703796387,-1.0091729164123535
1761395654224972300,8.75097216796875,5.867799282073975,7.7940216064453125,-1.090528964996338
1761395654244350000,8.770349853515626,5.828317642211914,7.802396297454834,-1.2418749332427979
1761395654263727900,8.789727783203125,5.782854080200195,7.80837869644165,-1.1682956218719482
1761395654283105500,8.80910546875,5.810371398925781,7.777271747589111,-1.1599208116531372
1761395654302483500,8.8284833984375,5.73978328704834,7.790432453155518,-1.2400803565979004
1761395654321861000,8.847861083984375,5.828317642211914,7.790432453155518,-1.1455638408660889
1761395654341239000,8.867239013671876,5.931209087371826,7.777271747589111,-1.0205388069152832
1761395654360616700,8.88661669921875,5.887540340423584,7.8287177085876465,-1.1300104856491089
1761395654379994600,8.90599462890625,5.766104221343994,7.895118236541748,-1.1778669357299805
1761395654399372300,8.925372314453124,5.889933109283447,7.89332389831543,-1.1874382495880127
1761395654418750200,8.944750244140625,5.918646812438965,7.875377655029297,-1.1599208116531372
1761395654438127900,8.9641279296875,5.724828243255615,7.850851058959961,-1.0378868579864502
1761395654457505800,8.983505859375,5.697310924530029,7.823931694030762,-1.2382856607437134
1761395654476883500,9.002883544921875,5.74696159362793,7.787441253662109,-1.31365966796875
1761395654496261400,9.022261474609374,5.6793646812438965,7.810771465301514,-1.2699905633926392
1761395654515639000,9.04163916015625,5.508875846862793,7.850253105163574,-1.0671988725662231
1761395654535017000,9.061016845703126,5.779862880706787,7.843672752380371,-1.1521440744400024
1761395654554394600,9.08039453125,6.069394588470459,7.821538925170898,-1.423729419708252
1761395654573772500,9.0997724609375,5.828916072845459,7.785048484802246,-1.3860424757003784
1761395654593150200,9.119150146484374,5.776273727416992,7.740781307220459,-1.3256237506866455
1761395654612528000,9.138528076171875,5.997011661529541,7.709076404571533,-1.332203984260559
1761395654631905800,9.15790576171875,5.85284423828125,7.850851058959961,-1.1264212131500244
1761395654651283700,9.17728369140625,5.630311489105225,7.929814338684082,-0.9846464991569519
1761395654670661400,9.196661376953125,5.614160060882568,7.934001445770264,-1.2299108505249023
1761395654690039300,9.216039306640624,5.715256690979004,7.875975608825684,-1.196411371231079
1761395654709417000,9.2354169921875,5.659623622894287,7.846663475036621,-0.9696913957595825
1761395654728795000,9.254794921875,5.601597785949707,7.83410120010376,-1.1832507848739624
1761395654748172500,9.274172607421875,5.594419479370117,7.861618995666504,-1.2191431522369385
1761395654767550500,9.293550537109375,5.745765209197998,7.905287742614746,-0.9589236974716187
1761395654786928000,9.31292822265625,5.9676995277404785,7.899903774261475,-0.989432156085968
1761395654806306000,9.33230615234375,5.883352756500244,7.9142608642578125,-1.0456634759902954
1761395654825683700,9.35168359375,5.654240131378174,7.945367813110352,-0.99481600522995
1761395654845061600,9.3710615234375,5.683551788330078,7.912466049194336,-0.9080761671066284
1761395654864439300,9.390439208984375,5.866004943847656,7.863413333892822,-1.1730812788009644
1761395654883817200,9.409817138671874,5.836094379425049,7.874779224395752,-1.077966570854187
1761395654903195000,9.42919482421875,5.842674732208252,7.913662910461426,-0.8955138921737671
1761395654922572800,9.44857275390625,5.5728840827941895,7.902894973754883,-1.1072787046432495
1761395654941950500,9.467950439453125,5.450251579284668,7.898109436035156,-1.2765709161758423
1761395654961328000,9.487328125,5.6099724769592285,7.925626754760742,-1.1084750890731812
1761395654980706000,9.5067060546875,5.843871116638184,7.923233985900879,-0.9278169870376587
1761395655000083700,9.526083740234375,5.815157413482666,7.902894973754883,-0.9625129103660583
1761395655019461600,9.545461669921876,5.61954402923584,7.936992645263672,-1.0402796268463135
1761395655038839600,9.564839599609375,5.753541946411133,7.8795647621154785,-1.2352946996688843
1761395655058217200,9.58421728515625,5.851647853851318,7.840681552886963,-1.1204391717910767
1761395655077595100,9.60359521484375,5.814558982849121,7.913064479827881,-0.7178468108177185
1761395655096972800,9.622972900390625,5.665007591247559,7.921439170837402,-0.9367900490760803
1761395655116350700,9.642350830078126,5.666802406311035,7.905886173248291,-1.2239288091659546
1761395655135728400,9.661728271484375,5.8061842918396,7.869993686676025,-1.1365907192230225
1761395655155106000,9.68110595703125,5.759523868560791,7.933403491973877,-0.8638089895248413
1761395655174484000,9.70048388671875,5.627320766448975,7.977670669555664,-0.9260223507881165
1761395655193861600,9.719861572265625,5.629115104675293,7.960920810699463,-1.0061819553375244
1761395655213239600,9.739239501953126,5.672784328460693,7.923233985900879,-1.0426725149154663
1761395655232617200,9.7586171875,5.721837043762207,7.901100158691406,-1.069591760635376
1761395655251995100,9.7779951171875,5.774479389190674,7.911868095397949,-1.089930772781372
1761395655271372800,9.797372802734374,5.669195175170898,7.906484127044678,-1.043868899345398
1761395655290750700,9.816750732421875,5.802595138549805,7.8819580078125,-1.1623135805130005
1761395655310128600,9.836128662109376,5.822335720062256,7.840681552886963,-1.2161520719528198
1761395655329506300,9.85550634765625,5.640480995178223,7.892127513885498,-1.1162517070770264
1761395655348884000,9.874884033203125,5.509474277496338,7.941778182983398,-1.0145567655563354
1761395655368262000,9.894261962890624,5.569892883300781,7.883154392242432,-1.1443674564361572
1761395655387639600,9.9136396484375,6.014957904815674,7.832904815673828,-1.3142578601837158
1761395655407017500,9.933017578125,5.934200286865234,7.848458290100098,-1.0193424224853516
1761395655426395100,9.95239501953125,5.60399055480957,7.914859294891357,-1.028315544128418
1761395655445773000,9.97177294921875,5.66201639175415,7.895118236541748,-1.1700903177261353
1761395655465150700,9.991150634765624,5.784648895263672,7.878966808319092,-1.2161520719528198
1761395655484528600,10.010528564453125,5.805585861206055,7.895118236541748,-1.1282159090042114
1761395655503906300,10.02990625,5.8923258781433105,7.871190071105957,-1.1228320598602295
1761395655523284200,10.0492841796875,5.280959606170654,7.9968132972717285,-0.802193820476532
1761395655542662000,10.068661865234375,5.164309501647949,8.11944580078125,-0.537188708782196
1761395655562039800,10.088039794921874,5.5106706619262695,8.055437088012695,-0.8177471160888672
1761395655581417500,10.10741748046875,5.817550182342529,7.945965766906738,-1.1443674564361572
1761395655600795400,10.12679541015625,5.91804838180542,7.923832416534424,-1.0761719942092896
1761395655620173000,10.146173095703125,5.9539408683776855,7.8287177085876465,-1.067797064781189
1761395655639551000,10.165551025390625,5.974279880523682,7.854440212249756,-1.3070793151855469
1761395655658928600,10.1849287109375,5.6207404136657715,7.945367813110352,-0.8668000102043152
1761395655678306600,10.204306640625,5.325226783752441,8.056633949279785,-0.3481557071208954
1761395655697684200,10.223684326171876,5.377869129180908,8.069794654846191,-0.9649057388305664
1761395655717062100,10.243062255859375,5.644070625305176,7.960920810699463,-1.454836130142212
1761395655736439800,10.262439697265625,5.878567218780518,7.834699630737305,-1.2442678213119507
1761395655755817700,10.281817626953124,5.948556900024414,7.818548202514648,-0.8787640929222107
1761395655775195400,10.3011953125,5.833103179931641,7.898707389831543,-1.1024930477142334
1761395655794573300,10.3205732421875,5.533402442932129,7.957331657409668,-1.1479566097259521
1761395655813951000,10.339950927734375,5.465207099914551,7.930412292480469,-1.2185449600219727
1761395655833329000,10.359328857421875,5.84147834777832,7.856235027313232,-1.339382529258728
1761395655852706600,10.37870654296875,5.881557941436768,7.8658061027526855,-1.1563315391540527
1761395655872084500,10.39808447265625,5.618347644805908,7.905886173248291,-0.8608179688453674
1761395655891462100,10.417462158203126,5.5621161460876465,7.932207107543945,-0.9702895879745483
1761395655910840000,10.436840087890625,5.686542987823486,7.9244303703308105,-1.4069796800613403
1761395655949595600,10.475595703125,5.753541946411133,7.913064479827881,-0.8003991842269897
1761395655968973300,10.494973388671875,5.7511491775512695,7.883154392242432,-1.1186445951461792
1761395655988351200,10.514351318359376,5.734399318695068,7.864609718322754,-1.3411771059036255
1761395656007729000,10.53372900390625,5.633302688598633,7.872984886169434,-1.0462616682052612
1761395656027106800,10.55310693359375,5.543571949005127,7.968697547912598,-0.7890332937240601
1761395656046484500,10.572484375,5.371886730194092,8.085348129272461,-0.6364908218383789
1761395656065862400,10.5918623046875,5.534000396728516,8.091329574584961,-0.8428717851638794
1761395656085240000,10.611239990234376,5.767899036407471,8.011170387268066,-1.022931694984436
1761395656104618000,10.630617919921875,5.683551788330078,8.011768341064453,-0.8554341197013855
1761395656123995600,10.64999560546875,5.749354839324951,8.011170387268066,-0.8877372145652771
1761395656143373600,10.66937353515625,5.791827201843262,7.9758758544921875,-1.119242787361145
1761395656162751200,10.688751220703125,5.552545070648193,7.953742504119873,-1.0701899528503418
1761395656182129200,10.708129150390626,5.5483574867248535,7.954938888549805,-0.9361918568611145
1761395656201506800,10.7275068359375,5.691926956176758,7.9381890296936035,-1.196411371231079
1761395656220884700,10.746884765625,5.749354839324951,7.929814338684082,-1.1509476900100708
1761395656240262400,10.766262451171874,5.629713535308838,7.9758758544921875,-0.828514814376831
1761395656259640300,10.785640380859375,5.463412284851074,7.960322856903076,-0.9134600162506104
1761395656279018000,10.80501806640625,5.605785369873047,7.901698589324951,-1.1491531133651733
1761395656298396000,10.82439599609375,6.024528980255127,7.823333740234375,-1.2484551668167114
1761395656317773600,10.843773681640625,5.73260498046875,7.8819580078125,-1.109073281288147
1761395656337151500,10.8631513671875,5.42871618270874,7.977670669555664,-0.760917603969574
1761395656356529200,10.882529052734375,5.475376605987549,8.037490844726562,-0.7148557901382446
1761395656375907000,10.901906982421876,5.838487148284912,7.985447406768799,-1.0432707071304321
1761395656395284700,10.92128466796875,5.971887111663818,7.940581798553467,-1.0450652837753296
1761395656414662700,10.94066259765625,5.829514026641846,8.012965202331543,-0.7429714202880859
1761395656434040300,10.960040283203124,5.527420520782471,8.0291166305542,-0.7058826684951782
1761395656453418200,10.979418212890625,5.370092391967773,8.045268058776855,-0.768694281578064
1761395656472796000,10.9987958984375,5.480162143707275,7.998608112335205,-0.9074779748916626
1761395656492173800,11.018173828125,5.615954875946045,7.937591075897217,-1.0666006803512573
1761395656511551500,11.037551513671875,5.556732177734375,7.9866437911987305,-0.9296116232872009
1761395656530929400,11.056929443359374,5.454439163208008,8.021339416503906,-0.9756734371185303
1761395656550307000,11.07630712890625,5.653641700744629,7.997411251068115,-0.8937192559242249
1761395656569685000,11.09568505859375,5.934200286865234,8.01655387878418,-1.0037890672683716
1761395656589062700,11.115062744140625,5.799005508422852,7.996214866638184,-1.0444670915603638
1761395656608440600,11.134440673828125,5.676971912384033,7.979465484619141,-1.1617153882980347
1761395656627818200,11.153818359375,5.676971912384033,7.956733703613281,-1.0689935684204102
1761395656647196200,11.173196044921875,5.636293888092041,7.960322856903076,-1.1198409795761108
1761395656666573800,11.19257373046875,5.591428279876709,7.904689788818359,-1.2550355195999146
1761395656685951700,11.21195166015625,5.583651542663574,7.854440212249756,-1.2203395366668701
1761395656705329400,11.231329345703125,5.674578666687012,7.864011764526367,-1.2352946996688843
1761395656724707300,11.250707275390624,5.706881999969482,7.8424763679504395,-1.2269197702407837
1761395656744085000,11.2700849609375,5.62672233581543,7.885547161102295,-1.374078392982483
1761395656763463000,11.289462890625,5.534000396728516,7.898109436035156,-1.1419745683670044
1761395656782840600,11.308840576171875,5.415555953979492,7.943572998046875,-0.8410771489143372
1761395656802218500,11.328218505859375,5.442475318908691,7.907082557678223,-0.9960124492645264
1761395656821596200,11.34759619140625,5.5483574867248535,7.888537883758545,-1.1359925270080566
1761395656840974000,11.36697412109375,5.730212211608887,7.868797302246094,-1.0971091985702515
1761395656860351700,11.386351806640626,5.645267009735107,7.8658061027526855,-0.9463613629341125
1761395656879729700,11.405729736328125,5.758327484130859,7.907680511474609,-0.865005373954773
1761395656899107300,11.425107421875,5.933003902435303,7.960322856903076,-0.8404789566993713
1761395656918485200,11.4444853515625,5.812166213989258,8.068597793579102,-0.6245267391204834
1761395656937863000,11.46386279296875,5.726622581481934,8.114660263061523,-0.4899304509162903
1761395656957240800,11.48324072265625,5.647061347961426,8.126026153564453,-0.46719861030578613
1761395656976618500,11.502618408203125,5.766702651977539,8.145766258239746,-0.48394837975502014
1761395656995996400,11.521996337890625,5.84865665435791,8.136195182800293,-0.4295116662979126
1761395657015374000,11.5413740234375,5.696712493896484,8.123034477233887,-0.5653043389320374
1761395657034752000,11.560751953125,5.629713535308838,8.11824893951416,-0.6939185857772827
1761395657054129700,11.580129638671876,5.680561065673828,8.080561637878418,-0.7938188910484314
1761395657073507600,11.599507568359375,5.600401401519775,8.041678428649902,-0.890728235244751
1761395657092885200,11.61888525390625,5.470590591430664,7.994420528411865,-1.119242787361145
1761395657112263200,11.63826318359375,5.413761138916016,7.954938888549805,-1.2340983152389526
1761395657131640800,11.657640869140625,5.694319725036621,7.891529083251953,-1.2113664150238037
1761395657151018800,11.677018798828126,5.66201639175415,7.926823139190674,-1.1114661693572998
1761395657170396400,11.696396484375,5.478965759277344,7.93998384475708,-1.3316057920455933
1761395657189774300,11.7157744140625,5.5244293212890625,7.904689788818359,-1.358525037765503
1761395657209152000,11.735152099609374,5.7858452796936035,7.859225749969482,-1.1718848943710327
1761395657228530000,11.754530029296875,5.79780912399292,7.82273530960083,-1.197009563446045
1761395657247907600,11.773907470703126,5.705685615539551,7.893921852111816,-1.241276741027832
1761395657267285500,11.793285400390625,5.54596471786499,7.993224143981934,-1.042074203491211
1761395657286663200,11.8126630859375,5.587240695953369,7.95434045791626,-1.083350419998169
1761395657306041000,11.832041015625,5.857629776000977,7.889734268188477,-1.210170030593872
1761395657325418800,11.851418701171875,5.863611698150635,7.904689788818359,-1.155135154724121
1761395657344796700,11.870796630859376,5.5136613845825195,7.982456207275391,-1.077966570854187
1761395657364174300,11.89017431640625,5.314459323883057,8.008777618408203,-0.97148597240448
1761395657383552300,11.90955224609375,5.435296535491943,8.001599311828613,-0.7435696125030518
1761395657402930000,11.928929931640624,5.361717224121094,8.055437088012695,-0.5694918036460876
1761395657422307800,11.948307861328125,5.053641319274902,8.149953842163086,-0.3840480446815491
1761395657441685500,11.967685546875,4.883750915527344,8.13260555267334,-0.4331009089946747
1761395657461063400,11.9870634765625,5.066203594207764,7.999804496765137,-1.28255295753479
1761395657480441000,12.006441162109375,6.391229152679443,7.768298625946045,-1.373480200767517
1761395657499819000,12.025819091796874,6.87816858291626,7.77188777923584,-0.3684946894645691
1761395657519196700,12.04519677734375,6.304489612579346,7.551748275756836,-0.9762716293334961
1761395657538574600,12.06457470703125,5.653641700744629,7.630711555480957,-2.121835470199585
1761395657557952300,12.0839521484375,5.298905849456787,7.956135272979736,-1.5738791227340698
1761395657577330200,12.103330078125,5.74397087097168,7.938787460327148,-1.5188441276550293
1761395657596707800,12.122707763671874,6.502495765686035,7.8526458740234375,-1.9806588888168335
1761395657616085800,12.142085693359375,6.8033928871154785,7.558926582336426,-1.0055837631225586
1761395657635463400,12.16146337890625,6.344569206237793,7.6474609375,-1.1419745683670044
1761395657654841300,12.18084130859375,5.569892883300781,7.724031448364258,-1.8005990982055664
1761395657674219000,12.200218994140625,5.5136613845825195,7.555935859680176,-1.9962122440338135
1761395657693597000,12.219596923828124,5.773283004760742,7.53559684753418,-2.18045973777771
1761395657712974600,12.238974609375,7.010970115661621,7.22871732711792,-1.4691931009292603
1761395657732352500,12.2583525390625,6.50907564163208,7.637889862060547,-1.8041882514953613
1761395657751730200,12.277730224609375,5.520840167999268,7.70249605178833,-2.4747767448425293
1761395657771108000,12.297108154296875,5.220541000366211,7.764111042022705,-1.5553346872329712
1761395657790485800,12.31648583984375,5.08355188369751,7.867002487182617,-1.1102696657180786
1761395657809863700,12.33586376953125,4.989035129547119,7.9250288009643555,-1.8179470300674438
1761395657829241300,12.355241455078126,5.665007591247559,7.825128078460693,-1.9166508913040161
1761395657848619300,12.374619384765625,6.314060688018799,7.672585964202881,-1.5708880424499512
