time,seconds_elapsed,z,y,x
1761396683677196500,0.241196533203125,-1.0325722694396973,0.13458633422851562,0.178766131401062
1761396683696573700,0.26057373046875,-1.01823091506958,0.06808948516845703,0.1349186897277832
1761396683715950800,0.279950927734375,-0.4030146598815918,-0.05076456069946289,0.01052844524383545
1761396683735328300,0.299328369140625,0.08106279373168945,-0.29009532928466797,0.1525489091873169
1761396683754705200,0.318705078125,0.8199028968811035,-0.6377100944519043,0.33856379985809326
1761396683774082600,0.33808251953125,1.5223002433776855,-0.6987776756286621,0.4978020191192627
1761396683793459700,0.357459716796875,1.0573463439941406,-0.8859920501708984,1.163993000984192
1761396683812823300,0.3768232421875,-1.3721723556518555,-1.6928348541259766,1.968037486076355
1761396683832214000,0.396214111328125,-4.344421863555908,-1.1168007850646973,0.5872229337692261
1761396683851591200,0.415591064453125,-4.355404376983643,-0.22944355010986328,-1.190110206604004
1761396683870968300,0.43496826171875,-2.8504714965820312,-0.35436153411865234,-1.3706583976745605
1761396683890345500,0.454345458984375,-1.5078811645507812,-0.918403148651123,-0.6493353843688965
1761396683909722600,0.47372265625,0.4391937255859375,-1.111250400543213,-0.7469062805175781
1761396683929086200,0.493086181640625,1.961413860321045,-1.0821337699890137,-0.8478405475616455
1761396683948477000,0.512476806640625,0.32326841354370117,-0.8953227996826172,-0.5019872188568115
1761396683967854000,0.53185400390625,-0.4475083351135254,-0.39983415603637695,-0.5727174282073975
1761396683987231200,0.551231201171875,-0.0748739242553711,-0.2787790298461914,-0.3545041084289551
1761396684006608400,0.5706083984375,-0.41080284118652344,-0.39748668670654297,0.2001277208328247
1761396684025985500,0.589985595703125,-0.9837031364440918,-0.39922094345092773,0.7137547731399536
1761396684045362700,0.60936279296875,-0.5430374145507812,0.15669775009155273,-0.13454723358154297
1761396684064739800,0.62873974609375,-1.9351730346679688,-0.20084428787231445,-1.2223201990127563
1761396684084117000,0.648116943359375,-2.6905269622802734,-0.9488615989685059,-1.137331485748291
1761396684103480800,0.667480712890625,-0.9611001014709473,-1.3875885009765625,-1.2048914432525635
1761396684122871300,0.686871337890625,0.4627084732055664,-1.064986228942871,-1.731452226638794
1761396684142248400,0.70624853515625,0.010816574096679688,-2.5748867988586426,-0.197136789560318
1761396684161612300,0.7256123046875,1.4728879928588867,-1.1803205013275146,0.42039036750793457
1761396684181002800,0.745002685546875,2.1795854568481445,-0.8452527523040771,-0.8371562957763672
1761396684200380200,0.764380126953125,1.5767841339111328,-0.828078031539917,-1.047532558441162
1761396684219743700,0.78374365234375,2.309359550476074,0.2028968334197998,0.12623730301856995
1761396684239134500,0.803134521484375,4.6386566162109375,0.5293529033660889,1.6145331859588623
1761396684258511600,0.82251171875,5.636767387390137,0.7476186752319336,2.24904203414917
1761396684277875200,0.841875244140625,3.464118003845215,1.3557729721069336,1.2887547016143799
1761396684297266000,0.861265869140625,0.367431640625,1.789154052734375,0.7561339735984802
1761396684316643000,0.88064306640625,0.19459819793701172,1.5620901584625244,1.6859703063964844
1761396684336020200,0.900020263671875,1.1589221954345703,1.1677234172821045,1.8693368434906006
1761396684355397400,0.9193974609375,0.8993015289306641,1.0041346549987793,1.0165256261825562
1761396684374774500,0.9387744140625,0.44892024993896484,1.0493614673614502,0.5510076284408569
1761396684394138000,0.95813818359375,-0.9789400100708008,0.9252564907073975,0.2809331715106964
1761396684413528800,0.97752880859375,-3.2618918418884277,0.4795095920562744,0.702078104019165
1761396684432906000,0.996906005859375,-3.8465633392333984,0.24474310874938965,0.3566131591796875
1761396684452283100,1.016283203125,-3.7382521629333496,0.026423215866088867,-0.3902502655982971
1761396684471660300,1.035660400390625,-3.9221277236938477,-0.5158963203430176,0.22801290452480316
1761396684491037400,1.055037353515625,-3.5452723503112793,-0.917560338973999,0.35690152645111084
1761396684510414600,1.07441455078125,-3.198604106903076,-1.063197135925293,-0.4004329442977905
1761396684529791700,1.093791748046875,-4.461217403411865,-1.2637989521026611,-0.7937414646148682
1761396684549169000,1.1131689453125,-6.424810409545898,-0.793232798576355,-2.274052381515503
1761396684568546000,1.132546142578125,-5.642485618591309,-0.8681974411010742,-2.6870474815368652
1761396684587923500,1.15192333984375,0.22878074645996094,-1.9381916522979736,0.6536953449249268
1761396684607300600,1.171300537109375,10.942914009094238,-2.752340793609619,2.3961877822875977
1761396684626664200,1.190664306640625,20.269420623779297,-3.286947727203369,4.820472240447998
1761396684646055000,1.210054931640625,23.389690399169922,-3.0526514053344727,2.7780823707580566
1761396684665432000,1.22943212890625,19.694576263427734,-2.5015759468078613,-1.2300007343292236
1761396684684795600,1.248795654296875,10.754684448242188,-0.0038640499114990234,-3.2697036266326904
1761396684704186400,1.268186279296875,3.5009756088256836,2.3544113636016846,-1.1099673509597778
1761396684723563500,1.2875634765625,-1.8513069152832031,4.251903533935547,1.9968626499176025
1761396684742927000,1.306927001953125,-8.497063636779785,3.3695015907287598,4.420942306518555
1761396684762317800,1.32631787109375,-8.748385429382324,3.8235692977905273,6.085901260375977
1761396684781695000,1.345695068359375,-3.2739944458007812,5.238831520080566,6.013003349304199
1761396684801058600,1.36505859375,-10.340004920959473,1.592113733291626,8.46556282043457
1761396684820449300,1.38444921875,-19.977947235107422,0.30272746086120605,3.3934271335601807
1761396684839826400,1.403826416015625,-21.598196029663086,-2.150068759918213,0.5070924758911133
1761396684859190300,1.423190185546875,-18.25946044921875,-3.9880518913269043,-1.8072117567062378
1761396684878580700,1.442580810546875,-13.349029541015625,-4.780792236328125,-5.438996315002441
1761396684897958000,1.4619580078125,-9.803187370300293,-4.206029415130615,-7.361109733581543
1761396684917321700,1.48132177734375,-9.077619552612305,-3.4438886642456055,-7.787326335906982
1761396684936712200,1.500712158203125,-6.445616722106934,-1.982447624206543,-6.6799635887146
1761396684956089600,1.520089599609375,-0.9149837493896484,-1.0613489151000977,-1.1839632987976074
1761396684975453200,1.539453125,7.976589202880859,-1.1184968948364258,7.01222038269043
1761396684994844000,1.558843994140625,16.801353454589844,-0.8475686311721802,6.029348373413086
1761396685014221000,1.578220947265625,19.753376007080078,0.978757381439209,2.0128743648529053
1761396685033584600,1.597584716796875,20.76580047607422,2.735973358154297,3.4451301097869873
1761396685052975400,1.616975341796875,24.636146545410156,1.687577247619629,6.996530055999756
1761396685072352500,1.6363525390625,24.865772247314453,-0.14845800399780273,5.863680362701416
1761396685091716000,1.655716064453125,16.625457763671875,-0.6951396465301514,3.5111958980560303
1761396685111106800,1.67510693359375,4.4051923751831055,0.3437192440032959,1.9260685443878174
1761396685130484000,1.69448388671875,-4.956467151641846,1.6316440105438232,1.0821576118469238
1761396685149847600,1.71384765625,-9.00352954864502,1.8708782196044922,0.4961566925048828
1761396685169238300,1.73323828125,-10.043562889099121,0.4606599807739258,-0.03413271903991699
1761396685188615400,1.752615478515625,-11.046796798706055,-0.961205005645752,-0.39562058448791504
1761396685207979000,1.77197900390625,-11.29747200012207,-1.8253660202026367,-0.06784749031066895
1761396685227369700,1.79136962890625,-11.514165878295898,-1.9194233417510986,-1.2019338607788086
1761396685246747000,1.810746826171875,-12.586495399475098,-2.074235439300537,-2.470033884048462
1761396685266110700,1.83011083984375,-13.589153289794922,-2.3572049140930176,-3.4197845458984375
1761396685285501200,1.849501220703125,-13.696033477783203,-2.5131592750549316,-4.3910627365112305
1761396685304878300,1.86887841796875,-12.44803237915039,-2.324465274810791,-4.425304412841797
1761396685324255700,1.888255859375,-11.527515411376953,-1.993891954421997,-3.806022882461548
1761396685343632600,1.907632568359375,-10.769880294799805,-1.7496957778930664,-3.7884511947631836
1761396685363010000,1.927010009765625,-10.132261276245117,-1.2526097297668457,-4.055962562561035
1761396685382373600,1.94637353515625,-8.036502838134766,-0.6421592235565186,-3.581606388092041
1761396685401764400,1.965764404296875,1.774139404296875,-0.1322164535522461,-1.7961852550506592
1761396685421141500,1.9851416015625,21.535987854003906,0.521257758140564,-1.0718247890472412
1761396685440505000,2.004505126953125,41.23667907714844,-0.10789000988006592,6.988926887512207
1761396685459895800,2.023895751953125,52.82685089111328,-2.930230140686035,21.925533294677734
1761396685479273000,2.04327294921875,43.04935836791992,-5.217351913452148,26.444143295288086
1761396685498636500,2.062636474609375,14.489574432373047,-1.2618300914764404,15.751459121704102
1761396685518027300,2.08202734375,-4.388393402099609,3.0342793464660645,8.337987899780273
1761396685537404400,2.101404296875,-9.458086013793945,3.188577175140381,3.4197754859924316
1761396685556768300,2.120768310546875,-8.035782814025879,0.3856682777404785,0.7015299797058105
1761396685576158700,2.14015869140625,-7.572592735290527,-2.3383023738861084,-1.3772602081298828
1761396685595536000,2.159535888671875,-9.689971923828125,-4.255090713500977,-2.432593822479248
1761396685614899700,2.178899658203125,-11.842302322387695,-5.78280782699585,-3.121621608734131
1761396685634290200,2.198290283203125,-13.068418502807617,-6.675858020782471,-4.00671911239624
1761396685653667300,2.217667236328125,-13.739334106445312,-7.185873031616211,-4.473419189453125
1761396685673031200,2.23703125,-14.098560333251953,-7.450471878051758,-5.7769341468811035
1761396685692422000,2.256421875,-14.350728034973145,-7.42669153213501,-6.2546706199646
1761396685711798800,2.275798828125,-13.853833198547363,-7.265298366546631,-6.293373107910156
1761396685731176200,2.29517626953125,-12.666305541992188,-6.746378421783447,-6.008357048034668
1761396685750553300,2.31455322265625,-11.67199993133545,-6.358867168426514,-5.282303810119629
1761396685769930500,2.333930419921875,-10.105559349060059,-5.994629383087158,-5.261903285980225
1761396685789294000,2.353294189453125,-8.564746856689453,-5.622478008270264,-4.456132411956787
1761396685808684800,2.372684814453125,-6.040914535522461,-4.975545883178711,-2.616074323654175
1761396685828062000,2.39206201171875,-2.123896598815918,-3.4624061584472656,-2.5560615062713623
1761396685847425500,2.411425537109375,5.292652606964111,-1.5750572681427002,-1.7010793685913086
1761396685866816300,2.430816162109375,14.291479110717773,1.099228858947754,0.1788349151611328
1761396685886193400,2.450193359375,20.535255432128906,3.3123295307159424,9.968023300170898
1761396685905557000,2.469556884765625,24.067827224731445,1.7513470649719238,24.104557037353516
1761396685924947700,2.48894775390625,24.12372589111328,2.5012290477752686,23.904193878173828
1761396685944324900,2.508324951171875,17.153690338134766,4.505677700042725,14.688657760620117
1761396685963688700,2.527688720703125,8.246713638305664,5.3134236335754395,8.194929122924805
1761396685983079200,2.5470791015625,4.767847537994385,4.907634735107422,5.6544189453125
1761396686002456600,2.56645654296875,2.3672704696655273,3.630861759185791,2.798910140991211
1761396686021820200,2.585820068359375,-1.7035770416259766,1.9794633388519287,0.04466056823730469
1761396686041211000,2.6052109375,-5.768310546875,0.6826868057250977,-1.4364218711853027
1761396686060588000,2.624588134765625,-8.377359390258789,-0.4704396724700928,-3.580742359161377
1761396686079951600,2.64395166015625,-10.034873962402344,-1.164730429649353,-5.620307445526123
1761396686099342300,2.66334228515625,-10.942920684814453,-1.7181559801101685,-7.00778865814209
1761396686118719500,2.682719482421875,-11.122858047485352,-2.315093994140625,-8.690091133117676
1761396686138083000,2.7020830078125,-11.379378318786621,-2.593946695327759,-9.884223937988281
1761396686157473800,2.721473876953125,-11.823912620544434,-2.7284903526306152,-10.454397201538086
1761396686176851000,2.740850830078125,-10.721189498901367,-2.760307788848877,-10.250758171081543
1761396686196214500,2.760214599609375,-8.689237594604492,-2.8491146564483643,-9.099099159240723
1761396686215605200,2.779605224609375,-6.789279460906982,-2.8832743167877197,-7.026362419128418
1761396686234982400,2.798982421875,-6.920095920562744,-2.521951198577881,-4.475507736206055
1761396686254346000,2.818345947265625,-7.035890579223633,-1.5890440940856934,-1.0273380279541016
1761396686273736700,2.83773681640625,-2.679257869720459,0.41184139251708984,1.9411816596984863
1761396686293113900,2.85711376953125,6.821053504943848,2.531538963317871,1.7930068969726562
1761396686312477700,2.876477783203125,24.765445709228516,2.578871488571167,10.128355026245117
1761396686331868200,2.8958681640625,35.18347930908203,0.8750882148742676,29.93471336364746
1761396686351245300,2.915245361328125,24.97687530517578,-0.8926651477813721,34.774024963378906
1761396686370609200,2.934609130859375,7.596457004547119,2.2912676334381104,17.763961791992188
1761396686389999900,2.953999755859375,2.087491989135742,1.5041732788085938,6.779614448547363
1761396686409377000,2.973376953125,4.940197467803955,1.6151762008666992,0.6456809043884277
1761396686428740600,2.99274072265625,2.522843837738037,0.9642994403839111,-2.434317111968994
1761396686448131300,3.01213134765625,-2.808311939239502,0.05846595764160156,-3.0658984184265137
1761396686467508500,3.031508544921875,-6.812387943267822,-1.2643320560455322,-3.0181479454040527
1761396686486872000,3.0508720703125,-8.938582420349121,-2.798118829727173,-2.7767298221588135
1761396686506262800,3.0702626953125,-9.323752403259277,-3.933288097381592,-2.8065433502197266
1761396686525640000,3.089639892578125,-9.296035766601562,-5.01547384262085,-3.673527717590332
1761396686545003800,3.109003662109375,-9.845870018005371,-5.734300136566162,-5.763415336608887
1761396686564394200,3.128394287109375,-12.542702674865723,-5.925236701965332,-7.194684028625488
1761396686583771400,3.147771484375,-16.786348342895508,-5.399022102355957,-7.774550437927246
1761396686603135200,3.16713525390625,-19.04056739807129,-4.838582992553711,-5.4880805015563965
1761396686622525700,3.186525634765625,-16.578046798706055,-4.384653091430664,-2.1671431064605713
1761396686641902800,3.20590283203125,-11.823780059814453,-4.1238203048706055,1.0342899560928345
1761396686661266700,3.2252666015625,-6.362908840179443,-3.0797035694122314,1.2286313772201538
1761396686680657400,3.244657470703125,-1.299147605895996,-1.770620346069336,-0.22630971670150757
1761396686700034600,3.26403466796875,4.533486366271973,-0.7839541435241699,-1.300724983215332
1761396686719398100,3.283398193359375,10.9183988571167,1.2529714107513428,2.297203540802002
1761396686738788900,3.302788818359375,17.27859115600586,3.516785144805908,6.461675643920898
1761396686758166000,3.322166015625,18.334720611572266,5.213497161865234,8.820140838623047
1761396686777529600,3.341529541015625,17.953731536865234,6.404930114746094,8.478618621826172
1761396686796920300,3.36092041015625,23.70429229736328,5.918482780456543,5.766783714294434
1761396686816297500,3.38029736328125,25.827667236328125,4.3984270095825195,2.5748584270477295
1761396686835661000,3.3996611328125,18.61976432800293,3.363473653793335,0.14130306243896484
1761396686855051800,3.4190517578125,8.396933555603027,2.0179293155670166,0.07788205146789551
1761396686874429000,3.438428955078125,0.20049571990966797,0.19031238555908203,0.3685336112976074
1761396686893792800,3.457792724609375,-4.803934097290039,-1.8684968948364258,-0.5973875522613525
1761396686913183200,3.477183349609375,-8.345209121704102,-3.8860225677490234,-1.7359994649887085
1761396686932560400,3.496560302734375,-11.411611557006836,-5.47906494140625,-3.107811689376831
1761396686951924200,3.51592431640625,-13.684595108032227,-6.380056381225586,-4.421867847442627
1761396686971315000,3.53531494140625,-15.895550727844238,-6.536637306213379,-5.144082069396973
1761396686990692000,3.554692138671875,-17.710298538208008,-6.337332725524902,-5.326837539672852
1761396687010055700,3.5740556640625,-18.583398818969727,-5.900021553039551,-5.488426685333252
1761396687029446400,3.5934462890625,-16.70053482055664,-5.557727813720703,-6.236658096313477
1761396687048823600,3.612823486328125,-12.350593566894531,-5.451311111450195,-6.513070106506348
1761396687068187100,3.632187255859375,-8.380565643310547,-5.2126617431640625,-5.8834381103515625
1761396687087577900,3.651577880859375,-5.6649169921875,-4.032070636749268,-5.938493728637695
1761396687106955000,3.670955078125,-3.3099985122680664,-2.692750930786133,-4.188826084136963
1761396687126318600,3.690318603515625,1.3794374465942383,-1.070814609527588,0.03363323211669922
1761396687145709300,3.709709228515625,5.859896659851074,0.09038901329040527,2.9938693046569824
1761396687165086500,3.72908642578125,10.759647369384766,2.5448853969573975,3.4063963890075684
1761396687184450000,3.748449951171875,15.000824928283691,5.404138565063477,5.292860507965088
1761396687203840800,3.7678408203125,20.92557144165039,6.545896530151367,12.470012664794922
1761396687223218000,3.787218017578125,24.917274475097656,5.212501525878906,22.44821548461914
1761396687242581800,3.806581787109375,20.302024841308594,5.000420093536377,21.95238494873047
1761396687261972200,3.82597216796875,12.848320007324219,5.8199968338012695,10.633325576782227
1761396687281349600,3.845349609375,9.708443641662598,4.705633163452148,4.249300479888916
1761396687300713200,3.864713134765625,6.035580635070801,3.4116744995117188,1.320134162902832
1761396687320104000,3.88410400390625,-1.0140619277954102,1.5993506908416748,-0.18706083297729492
1761396687339481000,3.903481201171875,-8.908238410949707,-0.5711698532104492,-0.53900146484375
1761396687358844700,3.9228447265625,-14.390558242797852,-2.4811816215515137,-0.953547477722168
1761396687378235400,3.9422353515625,-16.28412628173828,-3.014514446258545,-3.008254051208496
1761396687397612500,3.961612548828125,-15.821686744689941,-3.204930543899536,-5.455781936645508
1761396687416976100,3.98097607421875,-15.203185081481934,-3.682363271713257,-7.430190086364746
1761396687436366800,4.000366943359375,-15.076597213745117,-3.6972882747650146,-8.027264595031738
1761396687455744000,4.019743896484375,-14.733097076416016,-3.59550142288208,-7.133856773376465
1761396687475107800,4.03910791015625,-13.878437995910645,-3.463015079498291,-5.085663795471191
1761396687494498300,4.058498291015625,-12.039554595947266,-2.9206125736236572,-3.4917728900909424
1761396687513875500,4.07787548828125,-8.826448440551758,-1.9606056213378906,-2.46818208694458
1761396687533239300,4.0972392578125,-4.2356276512146,-1.500730037689209,-0.7769865989685059
1761396687552630000,4.116630126953125,1.9454736709594727,-0.7691317796707153,0.8041353225708008
1761396687572007200,4.136007080078125,6.268303871154785,0.06011343002319336,0.8820066452026367
1761396687591370800,4.155370849609375,7.357254981994629,1.2908315658569336,2.100153923034668
1761396687610761500,4.174761474609375,8.317483901977539,3.3660430908203125,2.6087629795074463
1761396687630138600,4.194138671875,12.855687141418457,4.162053108215332,0.9829211235046387
1761396687649502200,4.213502197265625,20.48597526550293,4.306565761566162,4.692375183105469
1761396687668893000,4.232892822265625,27.071516036987305,1.5166490077972412,13.587105751037598
1761396687688270000,4.25227001953125,22.734195709228516,0.8556971549987793,13.251182556152344
1761396687707633700,4.271633544921875,13.088194847106934,1.773782730102539,6.294642448425293
1761396687727024400,4.2910244140625,7.297482490539551,1.106344223022461,5.179103374481201
1761396687746401500,4.310401611328125,1.800349235534668,0.28965508937835693,4.631361961364746
1761396687765765400,4.329765380859375,-3.6761035919189453,-0.7118753790855408,3.5707428455352783
1761396687785155800,4.34915576171875,-7.254388809204102,-1.5121079683303833,1.879425048828125
1761396687804533000,4.368532958984375,-11.209427833557129,-1.5825767517089844,-0.6613857746124268
1761396687823896800,4.387896728515625,-14.883096694946289,-1.4769365787506104,-2.3427600860595703
1761396687843287600,4.40728759765625,-17.042255401611328,-1.4875661134719849,-3.8518319129943848
1761396687862664700,4.426664794921875,-17.656370162963867,-1.7959065437316895,-5.082497596740723
1761396687882028300,4.4460283203125,-17.14591407775879,-2.1031103134155273,-5.550142288208008
1761396687901419000,4.4654189453125,-16.00320816040039,-2.5130019187927246,-5.490828037261963
1761396687920796200,4.484796142578125,-14.735321044921875,-2.685965061187744,-5.190194129943848
1761396687940159700,4.50415966796875,-13.022540092468262,-2.882244110107422,-4.740734100341797
1761396687959550500,4.523550537109375,-10.525495529174805,-2.9418303966522217,-4.343231678009033
1761396687978927600,4.542927734375,-7.31387186050415,-2.509882926940918,-4.702621936798096
1761396687998291200,4.562291259765625,-2.6727256774902344,-1.8992568254470825,-4.813141822814941
1761396688017682000,4.581681884765625,4.358650207519531,-1.8175499439239502,-2.9347357749938965
1761396688037059000,4.60105908203125,15.996316909790039,-1.6094081401824951,1.5369668006896973
1761396688056423000,4.6204228515625,23.877639770507812,-1.995250940322876,11.241111755371094
1761396688075813400,4.6398134765625,24.707786560058594,-1.0852305889129639,19.626182556152344
1761396688095190500,4.6591904296875,27.63047981262207,0.18747937679290771,21.263484954833984
1761396688114554400,4.678554443359375,29.86662483215332,0.6498322486877441,18.875625610351562
1761396688133945000,4.697945068359375,23.19404411315918,1.6359301805496216,10.996030807495117
1761396688153322200,4.717322265625,13.572310447692871,2.643934726715088,5.6376800537109375
1761396688172685800,4.736685791015625,5.278990745544434,2.3633646965026855,3.093381881713867
1761396688192076500,4.75607666015625,-2.9878292083740234,1.1629879474639893,2.402743339538574
1761396688211453700,4.77545361328125,-11.110228538513184,-0.5895282030105591,3.343730926513672
1761396688230817300,4.7948173828125,-16.951744079589844,-2.0603690147399902,2.6214256286621094
1761396688250208000,4.8142080078125,-20.197650909423828,-3.2338359355926514,-0.9995853900909424
1761396688269585200,4.833585205078125,-20.247081756591797,-4.257980823516846,-4.178633213043213
1761396688288948700,4.85294873046875,-17.452011108398438,-4.692154884338379,-6.2603864669799805
1761396688308339500,4.87233935546875,-14.13166332244873,-4.663899898529053,-6.509293556213379
1761396688327716600,4.891716552734375,-12.7577543258667,-4.778247356414795,-4.402881622314453
1761396688347080400,4.91108056640625,-13.902556419372559,-4.640501022338867,-2.494297981262207
1761396688366471200,4.93047119140625,-15.308027267456055,-4.589287757873535,-2.0611941814422607
1761396688385848000,4.94984814453125,-14.03087329864502,-4.089846134185791,-1.9041515588760376
1761396688405212000,4.9692119140625,-12.010141372680664,-2.729673385620117,-1.0727283954620361
1761396688424602600,4.9886025390625,-8.862192153930664,-0.10985970497131348,-0.003939151763916016
1761396688443979800,5.007979736328125,-0.43166351318359375,3.9477899074554443,1.4964501857757568
1761396688463343400,5.02734326171875,13.12665843963623,8.266801834106445,5.638851165771484
1761396688482734000,5.046734130859375,22.078723907470703,10.861184120178223,9.339481353759766
1761396688502111200,5.066111328125,34.51226043701172,9.284720420837402,9.685745239257812
1761396688521474800,5.085474853515625,40.64999008178711,5.719557762145996,10.726775169372559
1761396688540865500,5.104865478515625,31.31103515625,2.797163963317871,8.56724739074707
1761396688560242700,5.12424267578125,16.175331115722656,2.381499767303467,4.429773330688477
1761396688579606500,5.1436064453125,5.5802083015441895,2.0426182746887207,3.331808090209961
1761396688598997000,5.1629970703125,-0.47100162506103516,0.34877681732177734,2.6725239753723145
1761396688618374100,5.1823740234375,-4.270766258239746,-2.0295791625976562,-0.09331941604614258
1761396688637738000,5.201738037109375,-7.034655570983887,-4.421262741088867,-0.5922065377235413
1761396688657128700,5.221128662109375,-9.176874160766602,-6.8134355545043945,-0.20528030395507812
1761396688676505900,5.240505859375,-10.734380722045898,-8.449331283569336,-0.7320404648780823
1761396688695869400,5.259869384765625,-12.552692413330078,-9.955466270446777,-1.1305277347564697
1761396688715260200,5.27926025390625,-12.394749641418457,-10.603418350219727,-2.4007034301757812
1761396688734637300,5.29863720703125,-11.244096755981445,-10.372068405151367,-3.124833345413208
1761396688754001000,5.3180009765625,-8.759453773498535,-9.540452003479004,-2.3134477138519287
1761396688773391600,5.3373916015625,-5.666460990905762,-7.96567964553833,-1.084153652191162
1761396688792768800,5.356768798828125,-4.286836624145508,-6.374706268310547,-0.1897883415222168
1761396688812132400,5.37613232421875,-3.406876802444458,-4.964632511138916,-0.1110607385635376
1761396688831523000,5.395523193359375,0.025922298431396484,-3.269432783126831,-0.4190102517604828
1761396688850900200,5.414900146484375,4.067847728729248,-1.7487545013427734,2.3039872646331787
1761396688870264000,5.43426416015625,7.1389994621276855,0.05205678939819336,2.2943356037139893
1761396688889654500,5.453654541015625,8.349163055419922,1.7269282341003418,-2.0747289657592773
1761396688909032000,5.473031982421875,5.227940082550049,3.571878433227539,-2.407949447631836
1761396688928395500,5.4923955078125,1.9704875946044922,4.943321228027344,0.7479051351547241
1761396688947786200,5.5117861328125,1.3779258728027344,6.613475799560547,-1.4472101926803589
1761396688967163400,5.531163330078125,2.3810229301452637,7.389490604400635,-3.753833055496216
1761396688986527000,5.55052685546875,6.549525737762451,6.873112201690674,-2.135056495666504
1761396689005917700,5.569917724609375,9.743505477905273,5.645223617553711,-0.5487546920776367
1761396689025294800,5.589294921875,8.181985855102539,3.6718411445617676,-1.1571100950241089
1761396689044658400,5.608658447265625,1.686497688293457,1.0569896697998047,-0.4659847021102905
1761396689064049200,5.628049072265625,-4.6879191398620605,-1.165581226348877,0.9238278269767761
1761396689083426300,5.64742626953125,-9.08922290802002,-3.2529964447021484,1.8796147108078003
1761396689102790000,5.666789794921875,-8.686147689819336,-5.4139018058776855,1.8835327625274658
1761396689122180600,5.6861806640625,-4.68259859085083,-6.501367568969727,0.5275219082832336
1761396689141557800,5.705557861328125,-2.7253055572509766,-7.098264694213867,-0.6724077463150024
1761396689160921600,5.724921630859375,-2.2020020484924316,-6.81231689453125,-0.7181280851364136
1761396689180312000,5.74431201171875,-2.2778120040893555,-6.164035797119141,0.3901718854904175
1761396689199689500,5.763689453125,-2.919253349304199,-5.63228702545166,0.9452177882194519
1761396689219066600,5.783066650390625,-3.0896308422088623,-5.230720520019531,1.5893666744232178
1761396689238443800,5.80244384765625,-2.4366090297698975,-4.652322769165039,1.0801502466201782
1761396689257821000,5.821821044921875,-1.2397727966308594,-4.048616409301758,0.5259474515914917
1761396689277184500,5.8411845703125,-0.5462989807128906,-2.8457932472229004,-0.28873777389526367
1761396689296575200,5.8605751953125,-0.2768855094909668,-0.13722801208496094,-1.5611059665679932
1761396689315952400,5.879952392578125,-0.0806570053100586,2.8332595825195312,-2.360870361328125
1761396689335316200,5.899316162109375,0.8901858329772949,5.282559871673584,-1.2054486274719238
1761396689354706700,5.918706787109375,3.0470619201660156,7.556507110595703,-0.21076661348342896
1761396689374083800,5.938083740234375,8.024805068969727,7.876619338989258,0.1289302408695221
1761396689393447700,5.95744775390625,13.378599166870117,7.51735782623291,-1.0888572931289673
1761396689412838100,5.976838134765625,18.20599365234375,6.378521919250488,-1.8819239139556885
1761396689432215300,5.99621533203125,18.528261184692383,2.634438991546631,2.538365125656128
1761396689451579100,6.0155791015625,6.769344806671143,-0.21422338485717773,1.3696240186691284
1761396689470969900,6.034969970703125,-7.030628204345703,-1.4787530899047852,-2.6171352863311768
1761396689490347000,6.054346923828125,-9.049453735351562,-4.381494522094727,-1.4581830501556396
1761396689509710600,6.073710693359375,-6.0483012199401855,-7.453067779541016,0.537681519985199
1761396689529101300,6.093101318359375,-6.669342041015625,-8.7911376953125,-0.374018132686615
1761396689548478500,6.112478515625,-10.43986701965332,-9.149679183959961,-0.6992763876914978
1761396689567842000,6.131842041015625,-13.476112365722656,-9.267082214355469,-0.8652533292770386
1761396689587232800,6.151232666015625,-14.23556137084961,-9.375078201293945,-1.2162450551986694
1761396689606610000,6.17060986328125,-12.563591003417969,-9.250617027282715,-1.5606833696365356
1761396689625973800,6.189973876953125,-9.919953346252441,-8.544002532958984,-1.7448586225509644
1761396689645364200,6.2093642578125,-7.984501361846924,-7.235787391662598,-2.3384110927581787
1761396689664741600,6.22874169921875,-5.918874263763428,-5.400864601135254,-1.886047601699829
1761396689684105200,6.248105224609375,-0.4127979278564453,-3.2988133430480957,-0.8844680190086365
1761396689703496000,6.267495849609375,6.117860317230225,0.006512165069580078,-0.12186098098754883
1761396689722873000,6.286873046875,11.199615478515625,4.349809646606445,-0.5279510021209717
1761396689742236700,6.306236572265625,15.726922988891602,7.416449546813965,-0.6488218307495117
1761396689761627400,6.32562744140625,22.175933837890625,8.145044326782227,4.036428928375244
1761396689781004500,6.345004638671875,26.832983016967773,7.417872428894043,9.301750183105469
1761396689800368000,6.3643681640625,27.286746978759766,6.978081226348877,8.510000228881836
1761396689819758800,6.3837587890625,19.96055030822754,6.536492347717285,4.050965309143066
1761396689839136000,6.403135986328125,10.825935363769531,5.504609107971191,3.148899555206299
1761396689858499800,6.422499755859375,2.4949169158935547,3.873978614807129,3.24849271774292
1761396689877890300,6.441890380859375,-3.8085460662841797,1.753781795501709,2.8021042346954346
1761396689897267500,6.461267333984375,-7.829874038696289,-0.5015411376953125,4.940727710723877
1761396689916631300,6.48063134765625,-12.078811645507812,-2.9338109493255615,6.780636787414551
1761396689936021800,6.500021728515625,-16.590999603271484,-5.061325550079346,6.21022891998291
1761396689955399200,6.519399169921875,-17.598926544189453,-7.364030361175537,3.5426998138427734
1761396689974762800,6.5387626953125,-15.28465461730957,-8.764856338500977,0.4732254445552826
1761396689994153500,6.558153564453125,-12.598304748535156,-8.881559371948242,-0.948546290397644
1761396690013530600,6.577530517578125,-12.253937721252441,-8.531580924987793,-1.8811635971069336
1761396690032894200,6.596894287109375,-13.497040748596191,-8.10590934753418,-2.5427515506744385
1761396690052285000,6.616284912109375,-12.973665237426758,-7.7105255126953125,-2.7443230152130127
1761396690071662000,6.635662109375,-10.435035705566406,-6.495918273925781,-2.5370025634765625
1761396690091025700,6.655025634765625,-5.36744499206543,-3.9321484565734863,-1.425365686416626
1761396690110416400,6.67441650390625,5.320159435272217,1.1856884956359863,-1.3288251161575317
1761396690129793500,6.69379345703125,19.614633560180664,6.2755842208862305,3.608400583267212
1761396690149157400,6.713157470703125,28.546817779541016,6.266259670257568,11.860307693481445
1761396690168548000,6.732548095703125,30.072294235229492,6.596381664276123,11.084587097167969
1761396690187925200,6.75192529296875,28.37334442138672,5.797028064727783,6.292713165283203
1761396690207288800,6.771288818359375,20.5518856048584,4.242776870727539,2.481722354888916
1761396690226679600,6.790679443359375,8.411473274230957,2.673555374145508,-0.15932071208953857
1761396690246056700,6.810056640625,-1.2495222091674805,1.1481695175170898,-1.086477279663086
1761396690265420300,6.829420166015625,-7.595793724060059,-0.15693950653076172,0.2798703908920288
1761396690284811000,6.84881103515625,-11.8170747756958,-1.566143274307251,1.5491700172424316
1761396690304188200,6.868188232421875,-14.477148056030273,-3.1067769527435303,0.37686753273010254
1761396690323552000,6.887552001953125,-14.304920196533203,-4.434952259063721,-1.5320006608963013
1761396690342942500,6.9069423828125,-12.558660507202148,-4.967797756195068,-2.75443959236145
1761396690362319600,6.926319580078125,-11.01686954498291,-4.664820194244385,-2.592102527618408
1761396690381696800,6.94569677734375,-11.492424964904785,-4.184995651245117,-1.7900019884109497
1761396690401074200,6.96507421875,-13.201233863830566,-3.2982895374298096,-1.0607069730758667
1761396690420451300,6.984451416015625,-13.791069030761719,-2.2430591583251953,-0.2087448239326477
1761396690439815000,7.00381494140625,-9.787760734558105,0.02577495574951172,1.8407686948776245
1761396690459205600,7.02320556640625,-1.8489861488342285,3.3977317810058594,1.9264111518859863
1761396690478582800,7.042582763671875,13.010130882263184,6.770092964172363,4.831068515777588
1761396690497946400,7.0619462890625,24.06079864501953,8.17127799987793,7.394260883331299
1761396690517337000,7.081337158203125,24.84020233154297,9.170855522155762,4.505972862243652
1761396690536714200,7.10071435546875,21.878326416015625,7.908387184143066,6.4263763427734375
1761396690556077800,7.120077880859375,19.455751419067383,4.6849799156188965,9.526461601257324
1761396690575468500,7.139468505859375,13.910573959350586,1.6732406616210938,5.69334602355957
1761396690594845700,7.158845703125,7.009646892547607,-0.32611703872680664,1.1200909614562988
1761396690614209500,7.17820947265625,0.43966102600097656,-1.889444351196289,-1.3685353994369507
1761396690633600000,7.19760009765625,-4.828132629394531,-3.555713653564453,-1.9446735382080078
1761396690652977400,7.216977294921875,-8.519877433776855,-5.138600826263428,-1.0776338577270508
1761396690672341000,7.236341064453125,-10.507081985473633,-6.563740253448486,0.05804646015167236
1761396690691731700,7.255731689453125,-10.563876152038574,-7.773449420928955,0.7964643239974976
1761396690711108900,7.27510888671875,-10.16206169128418,-8.337882995605469,0.03454846143722534
1761396690730472400,7.294472412109375,-9.672703742980957,-8.698202133178711,-1.2485394477844238
1761396690749863200,7.31386328125,-9.108832359313965,-9.02626895904541,-2.1303462982177734
1761396690769240300,7.333240234375,-8.980186462402344,-9.726283073425293,-2.400970458984375
1761396690788617500,7.352617431640625,-9.337825775146484,-10.185144424438477,-2.127960681915283
1761396690807994600,7.37199462890625,-9.643061637878418,-9.355550765991211,-2.1079747676849365
1761396690827371800,7.391371826171875,-7.308993816375732,-6.430858135223389,-3.956493616104126
1761396690846735600,7.410735595703125,-2.1620779037475586,-1.7911949157714844,-4.751213073730469
1761396690866126000,7.4301259765625,2.8585939407348633,4.770359516143799,-1.6318354606628418
1761396690885503500,7.44950341796875,12.668323516845703,8.453781127929688,6.757266998291016
1761396690904867000,7.4688671875,27.133041381835938,9.371702194213867,9.926170349121094
1761396690924257800,7.4882578125,31.12579345703125,8.687379837036133,6.451175212860107
1761396690943635000,7.507635009765625,24.55510902404785,9.433465957641602,1.2941666841506958
1761396690962998500,7.52699853515625,13.28223705291748,9.106894493103027,2.3372724056243896
1761396690982389200,7.54638916015625,1.8745207786560059,7.470598220825195,4.710851669311523
1761396691001766400,7.565766357421875,-6.818068504333496,4.202372074127197,4.844435691833496
1761396691021130000,7.5851298828125,-8.932714462280273,0.030115604400634766,2.718954563140869
1761396691040520700,7.604520751953125,-7.6066575050354,-3.4886538982391357,0.03133225440979004
1761396691059897900,7.62389794921875,-7.18330192565918,-6.143860340118408,-0.8700098991394043
1761396691079261700,7.64326171875,-9.533928871154785,-8.22745132446289,-0.8815072774887085
1761396691098652400,7.66265234375,-12.09921646118164,-9.302559852600098,-0.4615488648414612
1761396691118029600,7.682029541015625,-13.47564697265625,-9.817414283752441,-0.666766345500946
1761396691137393200,7.70139306640625,-14.628002166748047,-9.795174598693848,-0.6958674788475037
1761396691156783900,7.720783935546875,-14.645183563232422,-9.245477676391602,-0.6350901126861572
1761396691176161000,7.7401611328125,-12.70172119140625,-8.348787307739258,-2.1616625785827637
1761396691195524600,7.759524658203125,-8.602051734924316,-6.328503608703613,-3.5343003273010254
1761396691214915300,7.778915283203125,-1.4983129501342773,-2.6195130348205566,-0.9900674819946289
1761396691234292500,7.79829248046875,9.47099494934082,2.6085143089294434,0.03193944692611694
1761396691253656000,7.817656005859375,14.774199485778809,9.37922477722168,-3.384096145629883
1761396691273046800,7.837046875,20.983505249023438,10.648736953735352,4.298198223114014
1761396691292424000,7.856423828125,33.10861587524414,8.99708366394043,9.40910530090332
1761396691311787800,7.875787841796875,32.64879608154297,8.615467071533203,3.450361967086792
1761396691331178500,7.895178466796875,21.953773498535156,9.11281967163086,0.17007559537887573
1761396691350555600,7.9145556640625,9.637645721435547,7.601447105407715,5.896697998046875
1761396691369919200,7.933919189453125,-1.132791519165039,5.013859748840332,6.8164963722229
1761396691389310000,7.95331005859375,-6.945985317230225,1.5807228088378906,4.666651725769043
1761396691408687000,7.97268701171875,-7.356736660003662,-2.923457145690918,3.8769898414611816
1761396691428050700,7.99205078125,-7.5319952964782715,-7.493828773498535,1.9062550067901611
1761396691447441400,8.01144140625,-7.993425369262695,-10.870238304138184,0.20027029514312744
1761396691466818600,8.030818603515625,-8.785951614379883,-12.712656021118164,0.4388321042060852
1761396691486182100,8.05018212890625,-10.894681930541992,-13.138574600219727,0.881812334060669
1761396691505572900,8.06957275390625,-14.762348175048828,-12.587010383605957,2.406543254852295
1761396691524950000,8.088949951171875,-14.533689498901367,-11.48584270477295,1.7947988510131836
1761396691544313900,8.10831396484375,-8.79936408996582,-10.160097122192383,-0.42167043685913086
1761396691563704300,8.127704345703124,-3.7872462272644043,-7.895672798156738,-0.5567855834960938
1761396691583081700,8.147081787109375,-2.135575771331787,-4.311738967895508,0.5910208821296692
1761396691602445300,8.1664453125,1.4077868461608887,0.2707509994506836,-0.5402731895446777
1761396691621836000,8.1858359375,3.4045891761779785,6.738249778747559,-1.3596088886260986
1761396691641213200,8.205213134765625,3.5279641151428223,12.60172176361084,-0.584267258644104
1761396691660576800,8.22457666015625,16.703184127807617,12.509597778320312,-1.3175472021102905
1761396691679967500,8.243967529296874,31.690893173217773,9.729108810424805,-3.9596917629241943
1761396691699344600,8.2633447265625,31.78649139404297,8.526372909545898,-3.7084405422210693
1761396691718708200,8.282708251953125,20.456937789916992,7.474025249481201,-1.7430379390716553
1761396691738099000,8.302098876953124,7.036367416381836,4.54868221282959,4.310104846954346
1761396691757476000,8.32147607421875,-4.923275470733643,1.346268653869629,7.4428253173828125
1761396691776840000,8.34083984375,-11.470853805541992,-2.1694602966308594,6.266456604003906
1761396691796230400,8.36023046875,-13.357842445373535,-6.839645862579346,4.917758941650391
1761396691815607800,8.37960791015625,-9.74383544921875,-11.629980087280273,2.002812147140503
1761396691834971400,8.398971435546875,-5.437946319580078,-14.428997039794922,-1.7849171161651611
1761396691854362000,8.418362060546874,-5.485079288482666,-15.321920394897461,-2.603137493133545
1761396691873739300,8.4377392578125,-8.339948654174805,-14.515857696533203,-0.2538473606109619
1761396691893102800,8.457102783203124,-10.722570419311523,-12.610479354858398,1.1580264568328857
1761396691912493600,8.47649365234375,-11.44598388671875,-10.349665641784668,1.579149603843689
1761396691931870700,8.49587060546875,-8.592103004455566,-8.156939506530762,1.4118543863296509
1761396691951234600,8.515234619140625,-2.3006749153137207,-4.496021270751953,1.4879214763641357
1761396691970625000,8.534625,3.039580821990967,-0.07204341888427734,1.6334023475646973
1761396691990002200,8.554002197265625,4.125840187072754,4.420198440551758,0.3832627534866333
1761396692009366000,8.573365966796874,10.641273498535156,9.071830749511719,-1.58774733543396
1761396692028756700,8.5927568359375,5.113889694213867,10.573719024658203,4.152215480804443
1761396692048134000,8.6121337890625,4.749107360839844,11.050918579101562,0.9722779989242554
1761396692067497500,8.63149755859375,9.477188110351562,9.349288940429688,-4.8855085372924805
1761396692086888200,8.65088818359375,12.980386734008789,7.846941947937012,-5.249842643737793
1761396692106265300,8.670265380859375,8.238459587097168,5.758518218994141,-3.4057111740112305
1761396692125629000,8.68962890625,0.6378364562988281,3.4174156188964844,2.549391031265259
1761396692145019600,8.70901953125,-3.952571392059326,1.426894187927246,4.6817498207092285
1761396692164396800,8.728396728515625,-2.601248264312744,-1.1417078971862793,0.9130966067314148
1761396692183760600,8.7477607421875,1.6492605209350586,-3.3045315742492676,-0.7347593307495117
1761396692203151000,8.767151123046874,3.1372227668762207,-5.725595951080322,-0.14148366451263428
1761396692222528300,8.7865283203125,0.2565445899963379,-6.392816543579102,1.150059461593628
1761396692241892000,8.80589208984375,-3.1676950454711914,-7.129730224609375,2.3820338249206543
1761396692261282800,8.82528271484375,-4.385510444641113,-7.3653717041015625,2.1980974674224854
1761396692280660000,8.844659912109375,-3.686936616897583,-7.334886074066162,1.8290481567382812
1761396692300037000,8.864037109375,-3.665099620819092,-6.999878406524658,2.3716397285461426
1761396692319414300,8.883414306640624,-4.3626484870910645,-5.962310791015625,1.5768157243728638
1761396692338791400,8.90279150390625,-5.080495357513428,-3.564824104309082,-0.2804151773452759
1761396692358155000,8.922155029296874,-3.904466152191162,0.07542991638183594,-1.7717887163162231
1761396692377545700,8.941545654296876,-0.9146900177001953,3.4850683212280273,-2.642643928527832
1761396692396923000,8.9609228515625,2.5826001167297363,5.735104560852051,-2.0290367603302
1761396692416286500,8.980286376953124,4.838504314422607,7.115600109100342,1.9229638576507568
1761396692435677200,8.99967724609375,3.003042221069336,8.42772102355957,0.6920746564865112
1761396692455054300,9.019054443359375,2.977433204650879,8.803625106811523,-4.142971992492676
1761396692474418200,9.038418212890624,5.418219089508057,7.342756271362305,-4.089052200317383
1761396692493808600,9.05780859375,9.817747116088867,4.774232387542725,-0.9075545072555542
1761396692513186000,9.07718603515625,11.654831886291504,2.0735158920288086,2.420973300933838
1761396692532549600,9.096549560546874,6.029090881347656,-0.8888363838195801,5.326531410217285
1761396692551940400,9.1159404296875,-1.8813767433166504,-2.7656283378601074,2.9300708770751953
1761396692571317500,9.1353173828125,-7.2300705909729,-3.578871488571167,-0.7378007173538208
1761396692590681000,9.15468115234375,-5.2822794914245605,-4.101918697357178,-1.3881891965866089
1761396692610071800,9.17407177734375,-2.2963852882385254,-5.135157108306885,1.0657811164855957
1761396692629449000,9.193448974609375,-1.284043312072754,-6.108965873718262,2.651211738586426
1761396692648826000,9.212826171875,-0.9879937171936035,-5.728336811065674,2.2079524993896484
1761396692668203300,9.232203369140626,-1.502401351928711,-5.275279521942139,1.3316175937652588
1761396692687580400,9.251580322265625,-3.9134562015533447,-4.261600971221924,1.1667250394821167
1761396692706944300,9.2709443359375,-4.213740348815918,-3.519049644470215,1.055806040763855
1761396692726335000,9.2903349609375,-0.2688159942626953,-2.2700695991516113,-0.48032093048095703
1761396692745712000,9.309712158203125,1.1272311210632324,-0.8713316917419434,-0.9369974136352539
1761396692765075700,9.32907568359375,1.0781583786010742,0.6168298721313477,-0.253628134727478
1761396692784466400,9.348466552734376,0.3769402503967285,2.3744630813598633,-1.0137009620666504
1761396692803843600,9.367843505859375,-3.042544364929199,3.655858039855957,0.045739054679870605
1761396692823207200,9.387207275390624,-3.4530375003814697,5.30720329284668,-1.9129223823547363
1761396692842598000,9.406597900390626,1.2709498405456543,5.955582618713379,-4.8683671951293945
1761396692861975000,9.42597509765625,4.377331256866455,6.135049343109131,-3.854978322982788
1761396692881339000,9.4453388671875,6.998737335205078,5.908451080322266,-2.3656044006347656
1761396692900729300,9.464729248046876,8.01945686340332,3.995915412902832,0.3198279142379761
1761396692920106500,9.4841064453125,5.211181640625,1.2627482414245605,3.165855884552002
1761396692939470300,9.50347021484375,0.4012947082519531,-1.3053092956542969,3.3131332397460938
1761396692958861000,9.522861083984376,-1.646440029144287,-3.185039520263672,1.2521328926086426
1761396692978238200,9.54223828125,-0.31103038787841797,-3.989393711090088,-0.8680438995361328
1761396692997601800,9.561601806640626,0.48886728286743164,-4.541230201721191,0.5417364835739136
1761396693016992500,9.580992431640626,-1.360917568206787,-4.80135440826416,2.035428285598755
1761396693036369700,9.60036962890625,-3.038113832473755,-4.667302131652832,1.7279706001281738
1761396693055733200,9.619733154296876,-3.3015871047973633,-4.4741034507751465,0.8125150203704834
1761396693075124000,9.6391240234375,-3.8073225021362305,-4.604944229125977,1.256801724433899
1761396693094501000,9.658501220703124,-3.308407783508301,-4.666948318481445,1.1739346981048584
1761396693113878300,9.677878173828125,-1.2193174362182617,-4.481967926025391,0.2950822114944458
1761396693133255400,9.69725537109375,-0.8195199966430664,-4.1023664474487305,0.060771942138671875
1761396693152632600,9.716632568359374,0.6531791687011719,-2.999617576599121,-0.8726407289505005
1761396693171996400,9.735996337890626,1.560532569885254,-1.3511176109313965,-0.3660348653793335
1761396693191387100,9.75538720703125,-0.9587769508361816,1.3237075805664062,0.8775550127029419
1761396693210764300,9.774764404296874,-5.416769981384277,1.8454647064208984,1.513575553894043
1761396693230127900,9.7941279296875,-4.08770751953125,3.2557449340820312,-0.10594511032104492
1761396693249518600,9.8135185546875,0.946040153503418,4.3260698318481445,-5.097428321838379
1761396693268895700,9.832895751953124,5.209895133972168,3.954874038696289,-5.08389139175415
1761396693288259300,9.85225927734375,7.132643699645996,4.086003303527832,-3.3443784713745117
1761396693307650000,9.871650146484376,3.3820600509643555,4.386192321777344,-1.2112315893173218
1761396693327027200,9.891027099609374,0.024478912353515625,3.416646957397461,2.11885666847229
1761396693346390800,9.910390869140626,1.2455649375915527,2.058896064758301,2.269878387451172
1761396693365781500,9.929781494140625,5.15625,0.13577795028686523,-0.2049046754837036
