time,seconds_elapsed,z,y,x
1761396683559813600,0.123813720703125,-0.014813045971095562,0.032222192734479904,0.03374931216239929
1761396683579190800,0.143190673828125,-0.013438640162348747,0.02473931387066841,0.07330167293548584
1761396683598568000,0.16256787109375,-0.008704573847353458,-0.05925218388438225,0.14400723576545715
1761396683617945000,0.181945068359375,-0.018019994720816612,-0.16050012409687042,0.24372805655002594
1761396683637322200,0.201322265625,-0.029473381116986275,-0.1951656937599182,0.3710896968841553
1761396683656699400,0.220699462890625,-0.047798797488212585,-0.12094775587320328,0.3637595474720001
1761396683676076500,0.24007666015625,-0.051922015845775604,-0.0010689827613532543,0.21868331730365753
1761396683695453700,0.25945361328125,-0.0650552362203598,0.08933641016483307,0.03008422814309597
1761396683714830800,0.278830810546875,-0.07406523078680038,0.13652436435222626,-0.047798797488212585
1761396683734208300,0.298208251953125,-0.0794101431965828,0.12491826713085175,0.04031591862440109
1761396683753585200,0.317585205078125,-0.0841442123055458,0.04581354558467865,0.2933593988418579
1761396683772962600,0.336962646484375,-0.014813045971095562,-0.05741964280605316,0.7009472250938416
1761396683792339700,0.356339599609375,-0.013438640162348747,-0.12308572232723236,1.048366665840149
1761396683811703300,0.375703369140625,-0.3446705639362335,-0.0841442123055458,1.0995250940322876
1761396683831094000,0.395093994140625,-0.7324058413505554,0.03497100621461868,0.43354883790016174
1761396683850471200,0.41447119140625,-0.6569662094116211,0.37826716899871826,-0.47539186477661133
1761396683869848300,0.433848388671875,-0.3011476993560791,0.6574243903160095,-1.1057862043380737
1761396683889225500,0.4532255859375,-0.06398624926805496,0.5929799675941467,-1.413042426109314
1761396683908602600,0.4726025390625,-0.056961506605148315,0.41445985436439514,-1.3838744163513184
1761396683927966200,0.49196630859375,-0.03008422814309597,0.021685076877474785,-0.9746068120002747
1761396683947357000,0.51135693359375,0.04978405311703682,-0.39262208342552185,-0.5519005060195923
1761396683966734000,0.530734130859375,0.1585148572921753,-0.7310314774513245,-0.5073086619377136
1761396683986111200,0.550111328125,0.25976279377937317,-1.0450069904327393,-0.5467082858085632
1761396684005488400,0.56948828125,0.21058958768844604,-1.0120211839675903,-0.5057815313339233
1761396684024865500,0.588865478515625,0.07406523078680038,-0.816550076007843,-0.583053708076477
1761396684044242700,0.60824267578125,0.06169557198882103,-0.6522321701049805,-0.8192988634109497
1761396684063619800,0.627619873046875,0.36314868927001953,-0.7032378911972046,-1.3311889171600342
1761396684082997000,0.6469970703125,0.8217422962188721,-0.2745758295059204,-1.9177550077438354
1761396684102360800,0.66636083984375,1.3773078918457031,-0.25808295607566833,-2.2923569679260254
1761396684121751300,0.685751220703125,2.067718029022217,-0.8754968047142029,-2.3137366771698
1761396684141128400,0.70512841796875,2.3742105960845947,-1.2546802759170532,-1.981741189956665
1761396684160492300,0.7244921875,1.5194826126098633,-1.1083823442459106,-1.5365862846374512
1761396684179882800,0.7438828125,1.0979979038238525,-0.3089359998703003,-1.0954018831253052
1761396684199260200,0.76326025390625,1.3673815727233887,0.5919110178947449,-0.911384105682373
1761396684218623700,0.782623779296875,1.5266599655151367,0.906191885471344,-0.9530744552612305
1761396684238014500,0.802014404296875,1.2969814538955688,0.2814478874206543,-0.8131904006004333
1761396684257391600,0.8213916015625,0.903901219367981,-0.2838912606239319,-0.26373329758644104
1761396684276755200,0.840755126953125,0.5996993184089661,-0.6409314870834351,0.16126367449760437
1761396684296146000,0.86014599609375,0.5233433842658997,-0.14248012006282806,0.14645062386989594
1761396684315523000,0.879523193359375,0.5018110275268555,0.7632536292076111,-0.14141114056110382
1761396684334900200,0.898900146484375,0.24708771705627441,1.1375503540039062,-0.24067382514476776
1761396684354277400,0.91827734375,0.05070032179355621,1.0112576484680176,-0.1363716572523117
1761396684373654500,0.937654541015625,-0.11682453751564026,0.29381752014160156,0
1761396684393018000,0.95701806640625,-0.2716743052005768,-0.4553866386413574,0.14751961827278137
1761396684412408800,0.976408935546875,-0.3710896968841553,-0.6412369012832642,0.051616594195365906
1761396684431786000,0.995785888671875,-0.4234698712825775,-0.3978142738342285,-0.25594499707221985
1761396684451163100,1.0151630859375,-0.3512371778488159,-0.11774080991744995,-0.430341899394989
1761396684470540300,1.034540283203125,-0.2515163719654083,-0.07269082218408585,-0.5383091568946838
1761396684489917400,1.05391748046875,-0.3023693859577179,-0.08826743066310883,-0.594507098197937
1761396684509294600,1.073294677734375,-0.2782409191131592,-0.19806721806526184,-0.40102121233940125
1761396684528671700,1.092671630859375,-0.1704263836145401,-0.3295520842075348,-0.10964708030223846
1761396684548049000,1.112048828125,0.04443913698196411,-0.6533011198043823,-0.06948387622833252
1761396684567426000,1.131426025390625,0.48989951610565186,-1.2725476026535034,-0.4825693368911743
1761396684586803500,1.150803466796875,0.675597071647644,-2.071382999420166,-0.8883246183395386
1761396684606180600,1.1701806640625,0.5859552621841431,-2.8363165855407715,-0.6682668924331665
1761396684625544200,1.189544189453125,0.45737189054489136,-2.7240734100341797,0.12904147803783417
1761396684644935000,1.208934814453125,0.5346440672874451,-0.8643488883972168,1.1893196105957031
1761396684664312000,1.22831201171875,1.2375766038894653,1.1364812850952148,2.111698865890503
1761396684683675600,1.247675537109375,2.111546277999878,1.7537424564361572,2.5128729343414307
1761396684703066400,1.26706640625,2.5009613037109375,0.7304205894470215,1.9936527013778687
1761396684722443500,1.286443603515625,2.0930681228637695,-0.506239652633667,1.3180556297302246
1761396684741807000,1.30580712890625,1.4038797616958618,-0.6201626658439636,0.12308572232723236
1761396684761197800,1.32519775390625,0.6809419989585876,0.645818293094635,-1.1390774250030518
1761396684780575000,1.344574951171875,0.07895200699567795,0.11361759155988693,-0.8206732869148254
1761396684799938600,1.3639384765625,-0.2599155008792877,-1.356844425201416,0.6826218366622925
1761396684819329300,1.383329345703125,-0.8521319031715393,-0.8524373769760132,0.8095253109931946
1761396684838706400,1.40270654296875,-1.3153069019317627,-0.16615045070648193,-0.39888325333595276
1761396684858070300,1.4220703125,-1.7392348051071167,0.37689274549484253,-1.4588559865951538
1761396684877460700,1.441460693359375,-1.8945428133010864,0.37047886848449707,-1.8148272037506104
1761396684896838000,1.460837890625,-1.5349065065383911,-0.20035789906978607,-1.3921209573745728
1761396684916201700,1.48020166015625,-0.9455915689468384,-1.1604571342468262,-0.9103151559829712
1761396684935592200,1.49959228515625,-0.17424418032169342,-1.9063016176223755,-0.8310576677322388
1761396684954969600,1.518969482421875,0.3593308925628662,-2.444152593612671,-0.9718579649925232
1761396684974333200,1.538333251953125,0.007788302376866341,-2.285026788711548,-0.8645015954971313
1761396684993724000,1.557723876953125,-0.8226585388183594,-1.0695935487747192,-0.15744587779045105
1761396685013101000,1.57710107421875,-0.3790307343006134,0.5027272701263428,0.7357655167579651
1761396685032464600,1.596464599609375,0.36635565757751465,0.6413896083831787,0.7322531342506409
1761396685051855400,1.61585546875,0.4130854606628418,-0.5410579442977905,0.4017847776412964
1761396685071232500,1.635232421875,0.43110546469688416,-0.4865398406982422,0.9031376838684082
1761396685090596000,1.65459619140625,0.9918632507324219,1.0263761281967163,1.9851008653640747
1761396685109986800,1.67398681640625,1.4127370119094849,2.0179338455200195,2.4885916709899902
1761396685129364000,1.693364013671875,1.3229424953460693,1.567739486694336,1.980061411857605
1761396685148727600,1.7127275390625,0.9066500663757324,0.33352261781692505,0.9417737722396851
1761396685168118300,1.7321181640625,0.4815003573894501,-0.4897467792034149,0.07040014863014221
1761396685187495400,1.751495361328125,0.24846212565898895,-0.45202696323394775,-0.49112120270729065
1761396685206859000,1.77085888671875,-0.15026842057704926,-0.010689826682209969,-0.8794673681259155
1761396685226249700,1.790249755859375,-0.6108472347259521,0.650094211101532,-0.8739697337150574
1761396685245627000,1.809626953125,-0.9177979826927185,0.839762270450592,-0.7053758502006531
1761396685264990700,1.82899072265625,-1.055696725845337,0.4813476502895355,-0.7180509567260742
1761396685284381200,1.848381103515625,-0.9898779988288879,0.11636640131473541,-0.8777875304222107
1761396685303758300,1.86775830078125,-0.7811209559440613,-0.04749337583780289,-1.0027058124542236
1761396685323135700,1.8871357421875,-0.6907155513763428,-0.09452861547470093,-0.9724688529968262
1761396685342512600,1.9065126953125,-0.6410841941833496,-0.17714570462703705,-0.9043593406677246
1761396685361890000,1.92589013671875,-0.5192201733589172,-0.4321744441986084,-0.9265025854110718
1761396685381253600,1.945253662109375,-0.365286648273468,-0.9926267862319946,-1.369825005531311
1761396685400644400,1.964644287109375,-0.2423536479473114,-1.9983868598937988,-2.097496747970581
1761396685420021500,1.984021484375,0.23792500793933868,-2.9371063709259033,-1.9180604219436646
1761396685439385000,2.003385009765625,1.3429477214813232,-4.0024237632751465,-0.3242071866989136
1761396685458775800,2.02277587890625,1.7965017557144165,-3.821155071258545,2.4542315006256104
1761396685478153000,2.042153076171875,1.0544750690460205,-0.8634325861930847,6.008599281311035
1761396685497516500,2.0615166015625,0.5268557667732239,1.7555750608444214,7.41049337387085
1761396685516907300,2.0809072265625,0.362995982170105,2.796916961669922,5.730205535888672
1761396685536284400,2.100284423828125,0.09575030952692032,2.160872220993042,3.0039942264556885
1761396685555648300,2.119648193359375,-0.2605263590812683,1.4533582925796509,1.2592616081237793
1761396685575038700,2.139038818359375,-0.4527905285358429,1.3498197793960571,0.6945333480834961
1761396685594415900,2.158415771484375,-0.6346703171730042,1.1267077922821045,0.530062735080719
1761396685613779700,2.17777978515625,-0.8035695552825928,0.8553388714790344,0.2870981991291046
1761396685633170200,2.197170166015625,-0.9071081876754761,0.7850914597511292,0.06047387793660164
1761396685652547300,2.21654736328125,-0.8686248064041138,0.8012788891792297,-0.08994726091623306
1761396685671911200,2.2359111328125,-0.7447755336761475,0.6056550741195679,-0.23716144263744354
1761396685691302000,2.255302001953125,-0.3965925872325897,0.4043808877468109,-0.40285375714302063
1761396685710678800,2.2746787109375,-0.0397050715982914,0.056961506605148315,-0.5949652194976807
1761396685730056200,2.29405615234375,0.2796153426170349,-0.3620797097682953,-0.7291989326477051
1761396685749433300,2.313433349609375,0.5155550837516785,-0.6963658928871155,-0.8040276765823364
1761396685768810500,2.332810546875,0.6814001202583313,-0.9141329526901245,-0.8729007244110107
1761396685788174000,2.352174072265625,0.8699992299079895,-0.916270911693573,-0.8822161555290222
1761396685807564800,2.371564697265625,0.9471186995506287,-0.6812474131584167,-0.8399149775505066
1761396685826942000,2.39094189453125,0.9999569654464722,-0.7424848675727844,-0.7911999225616455
1761396685846305500,2.410305419921875,1.4942851066589355,-1.4532055854797363,-0.8643488883972168
1761396685865696300,2.4296962890625,2.545247793197632,-2.3911616802215576,-0.6308525204658508
1761396685885073400,2.449073486328125,3.5079431533813477,-3.7167000770568848,-0.4822639226913452
1761396685904437000,2.46843701171875,3.199923276901245,-3.9417972564697266,-0.5671716928482056
1761396685923827700,2.48782763671875,1.721062183380127,-1.2751436233520508,-0.010689826682209969
1761396685943204900,2.507204833984375,0.9819369912147522,1.0792144536972046,0.7113316059112549
1761396685962568700,2.526568603515625,0.8002098798751831,2.0124363899230957,0.5799994468688965
1761396685981959200,2.545959228515625,0.5189147591590881,1.4011309146881104,0.005650337319821119
1761396686001336600,2.565336669921875,0.06154286116361618,0.45385950803756714,-0.14843589067459106
1761396686020700200,2.5847001953125,-0.17485502362251282,0.5216635465621948,0.00916270911693573
1761396686040091000,2.6040908203125,-0.35138988494873047,1.1742011308670044,0.0459662564098835
1761396686059468000,2.623468017578125,-0.5793886184692383,1.5414730310440063,-0.029473381116986275
1761396686078831600,2.64283154296875,-0.6838434934616089,1.6207305192947388,-0.111632339656353
1761396686098222300,2.662222412109375,-0.6894938349723816,1.524827480316162,-0.05726693198084831
1761396686117599500,2.681599609375,-0.5454866290092468,1.1219737529754639,0.11010521650314331
1761396686136963000,2.700963134765625,-0.19318044185638428,0.4509579837322235,0.3736858069896698
1761396686156353800,2.720353759765625,0.2593046724796295,-0.1682884246110916,0.5001311898231506
1761396686175731000,2.73973095703125,0.7666133046150208,-0.7684458494186401,0.5181511640548706
1761396686195094500,2.759094482421875,1.1606098413467407,-1.394411563873291,0.6568135023117065
1761396686214485200,2.7784853515625,1.3513468503952026,-1.845674991607666,0.9860602021217346
1761396686233862400,2.7978623046875,1.3009519577026367,-1.5929369926452637,1.3153069019317627
1761396686253226000,2.81722607421875,1.058598279953003,-0.6930062174797058,1.056002140045166
1761396686272616700,2.83661669921875,0.7307260632514954,0.0916270911693573,0.3828485310077667
1761396686291993900,2.855993896484375,1.0508099794387817,0.05787777900695801,-0.4262186884880066
1761396686311357700,2.875357666015625,2.392841339111328,-1.359745979309082,-0.5381564497947693
1761396686330748200,2.894748046875,2.430408477783203,-2.8366219997406006,0.9773555994033813
1761396686350125300,2.914125244140625,0.3733803927898407,-1.1696197986602783,2.5818986892700195
1761396686369489200,2.9334892578125,-0.9381086826324463,2.2845687866210938,2.091235637664795
1761396686388880000,2.9528798828125,-0.931389331817627,4.171934127807617,0.3840702176094055
1761396686408257000,2.972257080078125,-0.9443698525428772,3.68860125541687,-0.2286095917224884
1761396686427620600,2.99162060546875,-0.6778877377510071,2.0432841777801514,0.18401773273944855
1761396686447011300,3.01101123046875,-0.3939964771270752,0.9715525507926941,0.4480564594268799
1761396686466388500,3.030388427734375,-0.2351761907339096,0.6400152444839478,0.35169529914855957
1761396686485752000,3.049751953125,-0.22219568490982056,0.8438854813575745,0.1178935244679451
1761396686505142800,3.069142822265625,-0.38223767280578613,1.3832635879516602,0.046577103435993195
1761396686524520000,3.08852001953125,-0.6797202825546265,2.0145742893218994,0.29839888215065
1761396686543883800,3.1078837890625,-0.7531746625900269,2.3963537216186523,0.8305995464324951
1761396686563274200,3.127274169921875,-0.5296045541763306,2.3215250968933105,1.2507097721099854
1761396686582651400,3.1466513671875,-0.06383354216814041,1.9562383890151978,0.9684983491897583
1761396686602015200,3.16601513671875,0.4083513915538788,2.1301770210266113,-0.06902574002742767
1761396686621405700,3.18540576171875,0.5402944087982178,2.644205093383789,-1.2171131372451782
1761396686640782800,3.204782958984375,0.20127417147159576,3.069354772567749,-1.833916187286377
1761396686660146700,3.224146728515625,-0.3167243003845215,2.6683335304260254,-1.8116202354431152
1761396686679537400,3.243537353515625,-0.47798797488212585,1.443737506866455,-1.471225619316101
1761396686698914600,3.26291455078125,0.010689826682209969,-0.005344913341104984,-0.9483403563499451
1761396686718278100,3.282278076171875,0.6720846891403198,-1.4571760892868042,-0.3578037917613983
1761396686737668900,3.3016689453125,0.6902574300765991,-2.916642904281616,0.020157959312200546
1761396686757046000,3.3210458984375,0.3064926266670227,-3.025221109390259,-0.04978405311703682
1761396686776409600,3.34040966796875,-0.057114217430353165,-1.3292036056518555,-0.9949174523353577
1761396686795800300,3.35980029296875,-0.2916795611381531,0.21501824259757996,-1.81986665725708
1761396686815177500,3.379177490234375,-0.24311721324920654,0.7044596076011658,-1.2166550159454346
1761396686834541000,3.398541015625,0.08154810965061188,0.3374931216239929,0.016645587980747223
1761396686853931800,3.417931884765625,0.38697174191474915,-0.1579040139913559,0.8270871639251709
1761396686873309000,3.437308837890625,0.38727715611457825,-0.3602471649646759,1.1561810970306396
1761396686892672800,3.4566728515625,0.18050536513328552,-0.4124746024608612,1.2748382091522217
1761396686912063200,3.476063232421875,-0.008551862090826035,-0.5531222224235535,1.4138059616088867
1761396686931440400,3.4954404296875,-0.1969982385635376,-0.5847335457801819,1.51902437210083
1761396686950804200,3.51480419921875,-0.2686200737953186,-0.7695148587226868,1.5428475141525269
1761396686970195000,3.53419482421875,-0.23059484362602234,-0.867250382900238,1.4655753374099731
1761396686989572000,3.553572021484375,-0.19501298666000366,-0.8942803740501404,1.1270132064819336
1761396687008935700,3.572935791015625,-0.265718549489975,-0.9799517393112183,0.41415444016456604
1761396687028326400,3.592326416015625,-0.35978904366493225,-1.170383334159851,-0.5726693272590637
1761396687047703600,3.61170361328125,-0.34573954343795776,-1.2284138202667236,-1.259719729423523
1761396687067067100,3.631067138671875,-0.2736595869064331,-1.0894460678100586,-1.4095300436019897
1761396687086457900,3.650457763671875,-0.09055810421705246,-0.8962656259536743,-1.2062705755233765
1761396687105835000,3.6698349609375,0.24510246515274048,-1.0900568962097168,-1.0260707139968872
1761396687125198600,3.689198486328125,0.24449162185192108,-1.499782681465149,-0.8041804432868958
1761396687144589300,3.70858935546875,-0.06948387622833252,-1.3078240156173706,-0.4062134325504303
1761396687163966500,3.727966552734375,-0.08261708915233612,-0.6288672685623169,-0.12904147803783417
1761396687183330000,3.747330078125,0.5798467397689819,-0.2596100866794586,-0.08704573661088943
1761396687202720800,3.766720703125,1.1937482357025146,-1.7117466926574707,-0.48760882019996643
1761396687222098000,3.786097900390625,0.9462023973464966,-2.7352213859558105,-0.7537854909896851
1761396687241461800,3.805461669921875,-0.11178504675626755,-0.32191649079322815,-0.5332696437835693
1761396687260852200,3.824852294921875,-0.5560237169265747,2.3911616802215576,-0.7562289237976074
1761396687280229600,3.844229736328125,-0.3946073353290558,2.707275152206421,-0.876413106918335
1761396687299593200,3.86359326171875,-0.2855710983276367,1.560867428779602,-0.28251686692237854
1761396687318984000,3.88298388671875,-0.19654010236263275,0.601073682308197,0.47585001587867737
1761396687338361000,3.902361083984375,-0.23716144263744354,0.71942538022995,0.7713474035263062
1761396687357724700,3.921724609375,-0.5717530250549316,1.5046695470809937,0.4611896872520447
1761396687377115400,3.941115478515625,-1.0173660516738892,2.1741580963134766,-0.04352286830544472
1761396687396492500,3.960492431640625,-1.21650230884552,2.1654534339904785,-0.3052709102630615
1761396687415856000,3.979856201171875,-1.0447015762329102,1.4677132368087769,-0.29061058163642883
1761396687435246800,3.999246826171875,-0.5697677731513977,0.4584408700466156,-0.26632940769195557
1761396687454624000,4.0186240234375,-0.06841489672660828,-0.37887802720069885,-0.3686463236808777
1761396687473987800,4.03798779296875,0.24785128235816956,-0.826018214225769,-0.5717530250549316
1761396687493378300,4.05737841796875,0.29717719554901123,-0.925739049911499,-0.8336538076400757
1761396687512755500,4.07675537109375,0.2360924631357193,-1.0535588264465332,-1.0534061193466187
1761396687532119300,4.096119384765625,0.0716218426823616,-1.3780714273452759,-1.2331478595733643
1761396687551510000,4.115510009765625,-0.22845686972141266,-1.2412415742874146,-0.8919897079467773
1761396687570887200,4.13488720703125,-0.416597843170166,-0.7682931423187256,0.0331384651362896
1761396687590250800,4.154250732421875,-0.43141087889671326,-0.4665345847606659,0.8037222623825073
1761396687609641500,4.173641357421875,-0.5680879354476929,-0.025808297097682953,0.9393303990364075
1761396687629018600,4.1930185546875,-0.3180987238883972,-0.10811996459960938,0.363454133272171
1761396687648382200,4.21238232421875,0.5015056133270264,-1.3284400701522827,-0.29946786165237427
1761396687667773000,4.23177294921875,0.6339067220687866,-2.438349485397339,-0.4080459773540497
1761396687687150000,4.251150146484375,0.10201149433851242,-0.8936695456504822,0.14492350816726685
1761396687706513700,4.270513671875,0.3177932798862457,1.0795198678970337,-0.11774080991744995
1761396687725904400,4.289904296875,0.6193991303443909,1.6992243528366089,-0.7391251921653748
1761396687745281500,4.309281494140625,0.3555130958557129,1.3760861158370972,-0.952616274356842
1761396687764645400,4.328645263671875,-0.10033166408538818,1.2925528287887573,-0.8863393664360046
1761396687784035800,4.348035888671875,-0.5809157490730286,1.7177025079727173,-0.5375455617904663
1761396687803413000,4.3674130859375,-0.883590579032898,1.9976232051849365,-0.031000498682260513
1761396687822776800,4.38677685546875,-1.0501991510391235,1.5428475141525269,0.21501824259757996
1761396687842167600,4.40616748046875,-1.1372449398040771,0.8061656951904297,0.21440738439559937
1761396687861544700,4.425544677734375,-1.0240854024887085,0.2579302489757538,0.10995250940322876
1761396687880908300,4.444908203125,-0.7983773946762085,-0.36696648597717285,-0.045355409383773804
1761396687900299000,4.464299072265625,-0.557550847530365,-0.9820896983146667,-0.3086305856704712
1761396687919676200,4.48367626953125,-0.32191649079322815,-1.0721896886825562,-0.5754181146621704
1761396687939039700,4.503039794921875,-0.13499724864959717,-0.8780929446220398,-0.7911999225616455
1761396687958430500,4.522430419921875,-0.06917845457792282,-0.8018897175788879,-0.8519791960716248
1761396687977807600,4.5418076171875,-0.03833066672086716,-1.2581926584243774,-0.7823426127433777
1761396687997171200,4.561171142578125,0.10521844029426575,-2.6371803283691406,-0.8225058317184448
1761396688016562000,4.58056201171875,0.5117372870445251,-3.6551573276519775,-0.9387195110321045
1761396688035939000,4.59993896484375,1.099372386932373,-3.2738358974456787,-0.6103891134262085
1761396688055303000,4.619302978515625,1.5089454650878906,-2.7007083892822266,0.38727715611457825
1761396688074693400,4.638693359375,1.0456178188323975,-1.757102131843567,0.7148439884185791
1761396688094070500,4.658070556640625,0.5242596864700317,-0.4095730781555176,0.17913095653057098
1761396688113434400,4.677434326171875,0.12736165523529053,1.6016415357589722,0.3173351585865021
1761396688132825000,4.6968251953125,-0.1385096162557602,3.370502471923828,1.4046432971954346
1761396688152202200,4.7162021484375,-0.1892099380493164,2.7495763301849365,2.0584025382995605
1761396688171565800,4.73556591796875,-0.3805578351020813,1.167176365852356,2.3361854553222656
1761396688190956500,4.75495654296875,-0.444085955619812,0.9014578461647034,2.48523211479187
1761396688210333700,4.774333740234375,-0.6835380792617798,1.893473744392395,2.3357272148132324
1761396688229697300,4.793697265625,-1.356844425201416,2.609844923019409,1.7519099712371826
1761396688249088000,4.813087890625,-1.9710513353347778,2.5128729343414307,0.9573503732681274
1761396688268465200,4.832465087890625,-2.0358011722564697,2.0463383197784424,0.20692451298236847
1761396688287828700,4.851828857421875,-1.7178552150726318,1.3062968254089355,-0.23425991833209991
1761396688307219500,4.871219482421875,-1.1372449398040771,0.4181249439716339,-0.15301723778247833
1761396688326596600,4.8905966796875,-0.661853015422821,-0.4190412163734436,0.2901524603366852
1761396688345960400,4.90996044921875,-0.5717530250549316,-0.8284615874290466,0.6557445526123047
1761396688365351200,4.92935107421875,-0.7148439884185791,-0.7595885396003723,0.5241069197654724
1761396688384728000,4.94872802734375,-0.7782194018363953,-0.7589777112007141,0.14339639246463776
1761396688404092000,4.968091796875,-0.7444701194763184,-0.8518264889717102,-0.14125843346118927
1761396688423482600,4.987482666015625,-0.7353073954582214,-0.9761339426040649,-0.441795289516449
1761396688442859800,5.00685986328125,-0.895349383354187,-1.8230736255645752,-0.9833113551139832
1761396688462223400,5.026223388671875,-0.9852966070175171,-2.1718673706054688,-0.9610154628753662
1761396688481614000,5.045614013671875,-1.3974658250808716,-0.9982771277427673,-0.6401679515838623
1761396688500991200,5.0649912109375,-1.8401774168014526,-0.43446511030197144,-0.6754443645477295
1761396688520354800,5.084354736328125,-1.9615832567214966,-0.23196925222873688,0.603975236415863
1761396688539745500,5.10374560546875,-1.9177550077438354,0.9100096821784973,2.2932732105255127
1761396688559122700,5.123122802734375,-1.586675763130188,1.5848431587219238,3.054694414138794
1761396688578486500,5.142486572265625,-1.3600513935089111,1.342336893081665,2.7874486446380615
1761396688597877000,5.161876953125,-1.5233004093170166,0.6342121958732605,2.2137105464935303
1761396688617254100,5.181254150390625,-1.5129159688949585,0.2163926362991333,1.7766492366790771
1761396688636618000,5.200617919921875,-1.1242643594741821,-0.016187451779842377,1.5805672407150269
1761396688656008700,5.2200087890625,-0.9810206890106201,-0.208298921585083,1.4774868488311768
1761396688675385900,5.2393857421875,-1.043174386024475,-0.4227063059806824,1.3707412481307983
1761396688694749400,5.25874951171875,-1.1344960927963257,-0.3248180150985718,1.061499834060669
1761396688714140200,5.27814013671875,-1.1186140775680542,0.11147962510585785,0.6557445526123047
1761396688733517300,5.297517333984375,-0.878703773021698,0.15316994488239288,0.3089359998703003
1761396688752881000,5.316880859375,-0.6389462351799011,-0.38575005531311035,0.008093725889921188
1761396688772271600,5.336271728515625,-0.5899257659912109,-1.1745065450668335,-0.14553436636924744
1761396688791648800,5.355648681640625,-0.7082774043083191,-1.574916958808899,-0.23746687173843384
1761396688811012400,5.375012451171875,-0.8370134830474854,-1.075854778289795,-0.520594596862793
1761396688830403000,5.394403076171875,-0.7508839964866638,-0.4963133931159973,-0.7272136807441711
1761396688849780200,5.4137802734375,-0.7047650218009949,-0.19119518995285034,-0.47019967436790466
1761396688869144000,5.43314404296875,-1.0772291421890259,0.5467082858085632,0.22250111401081085
1761396688888534500,5.452534423828125,-1.1212100982666016,0.9208522439002991,1.168703556060791
1761396688907912000,5.471911865234375,-0.5946598052978516,0.8541171550750732,1.8985133171081543
1761396688927275500,5.491275634765625,-0.6983511447906494,0.3023693859577179,1.599808931350708
1761396688946666200,5.510666259765625,-1.1561810970306396,-0.553274929523468,0.4230117201805115
1761396688966043400,5.53004345703125,-0.8507575392723083,-0.48516544699668884,-0.7875348329544067
1761396688985407000,5.549406982421875,-0.2564031481742859,0.09147437661886215,-1.4921470880508423
1761396689004797700,5.568797607421875,-0.036192700266838074,0.27472856640815735,-1.116476058959961
1761396689024174800,5.5881748046875,-0.03787253051996231,-0.030542362481355667,-0.05787777900695801
1761396689043538400,5.607538330078125,0.17348061501979828,-0.111632339656353,0.9520054459571838
1761396689062929200,5.62692919921875,0.29778802394866943,0.019241688773036003,1.2865970134735107
1761396689082306300,5.646306396484375,0.18096350133419037,0.15546062588691711,0.8466343283653259
1761396689101670000,5.665669921875,-0.19974705576896667,-0.001374406274408102,-0.09208522737026215
1761396689121060600,5.685060546875,-0.4781406819820404,-0.20814619958400726,-0.5215108394622803
1761396689140437800,5.704437744140625,-0.39796698093414307,-0.15683503448963165,-0.26755109429359436
1761396689159801600,5.723801513671875,-0.0850604772567749,0.06245913356542587,0.15943112969398499
1761396689179192300,5.7431923828125,0.04703523963689804,0.0716218426823616,0.49890950322151184
1761396689198569500,5.762569580078125,-0.02092151902616024,-0.055739812552928925,0.5799994468688965
1761396689217946600,5.781946533203125,-0.17348061501979828,0.011911521665751934,0.47233763337135315
1761396689237323800,5.80132373046875,-0.312142938375473,0.11254860460758209,0.3727695345878601
1761396689256701000,5.820700927734375,-0.3633013963699341,0.22906772792339325,0.40575528144836426
1761396689276064500,5.840064453125,-0.28068432211875916,0.3352024257183075,0.6413896083831787
1761396689295455200,5.859455322265625,-0.12873606383800507,0.21303297579288483,0.8586985468864441
1761396689314832400,5.878832275390625,0.041232191026210785,-0.09605573117733002,0.7203416228294373
1761396689334196200,5.8981962890625,0.14721418917179108,-0.5738909840583801,0.1423274129629135
1761396689353586700,5.917586669921875,0.0716218426823616,-1.513068675994873,-1.0578347444534302
1761396689372963800,5.9369638671875,0.047646086663007736,-1.748855710029602,-2.221040725708008
1761396689392327700,5.95632763671875,0.1951656937599182,-0.517693042755127,-2.394979476928711
1761396689411718100,5.97571826171875,0.742026686668396,0.4062134325504303,-1.2910256385803223
1761396689431095300,5.99509521484375,0.9255862832069397,0.2739650011062622,0.8522846102714539
1761396689450459100,6.014459228515625,0.40636613965034485,0.13087402284145355,2.6171751022338867
1761396689469849900,6.033849853515625,0.3620797097682953,0.11835165321826935,2.0693976879119873
1761396689489227000,6.05322705078125,0.5373928546905518,0.39201122522354126,0.41323816776275635
1761396689508590600,6.072590576171875,0.4647020399570465,0.9093988537788391,-0.1322484314441681
1761396689527981300,6.091981201171875,0.3393256664276123,1.0811996459960938,0.22219568490982056
1761396689547358500,6.1113583984375,0.35505497455596924,0.8112051486968994,0.4497362971305847
1761396689566722000,6.13072216796875,0.32878854870796204,0.5070032477378845,0.1050657257437706
1761396689586112800,6.15011279296875,0.3312319219112396,0.3943018913269043,-0.5813738703727722
1761396689605490000,6.169489990234375,0.4127800464630127,0.34161633253097534,-1.2369656562805176
1761396689624853800,6.188853759765625,0.5070032477378845,0.20539739727973938,-1.5740007162094116
1761396689644244200,6.208244140625,0.6717792749404907,-0.055587101727724075,-1.6760121583938599
1761396689663621600,6.22762158203125,0.9684983491897583,-0.35536038875579834,-1.790393352508545
1761396689682985200,6.246985107421875,1.1523633003234863,-0.8961129188537598,-1.9172968864440918
1761396689702376000,6.2663759765625,1.338060975074768,-1.3403515815734863,-1.6188979148864746
1761396689721753000,6.285753173828125,1.3939534425735474,-1.0815050601959229,-1.0828794240951538
1761396689741116700,6.30511669921875,1.632794737815857,-1.084712028503418,-1.1494618654251099
1761396689760507400,6.32450732421875,1.9131735563278198,-1.2856807708740234,-1.4193036556243896
1761396689779884500,6.343884521484375,1.6700564622879028,-0.5815265774726868,-1.278350591659546
1761396689799248100,6.363248046875,1.2705622911453247,1.275754451751709,-0.43583953380584717
1761396689818638800,6.382638916015625,1.1888614892959595,3.0212504863739014,0.675597071647644
1761396689838016000,6.40201611328125,1.2074923515319824,3.2733776569366455,1.3861651420593262
1761396689857379800,6.4213798828125,0.8641961812973022,2.224247694015503,1.6508147716522217
1761396689876770300,6.440770263671875,0.7177455425262451,1.4011309146881104,1.622715711593628
1761396689896147500,6.4601474609375,0.6716265678405762,1.2340642213821411,1.5604093074798584
1761396689915511300,6.47951123046875,0.16156910359859467,1.0824213027954102,1.4353383779525757
1761396689934901800,6.49890185546875,-0.6387935280799866,0.901915967464447,0.9179506897926331
1761396689954279200,6.518279052734375,-1.2427687644958496,0.8281561732292175,0.05803048983216286
1761396689973642800,6.537642822265625,-1.2717839479446411,0.7878402471542358,-0.529451847076416
1761396689993033500,6.557033447265625,-0.9517000317573547,0.4743228852748871,-0.4903576374053955
1761396690012410600,6.57641064453125,-0.6093201637268066,-0.3736858069896698,-0.09987352788448334
1761396690031774200,6.595774169921875,-0.2658712565898895,-1.3156123161315918,-0.007788302376866341
1761396690051165000,6.6151650390625,0.07986827939748764,-1.8391083478927612,-0.34253260493278503
1761396690070542000,6.6345419921875,0.38697174191474915,-1.9658591747283936,-0.8018897175788879
1761396690089905700,6.65390576171875,0.6265766024589539,-2.1998136043548584,-1.3053805828094482
1761396690109296400,6.67329638671875,0.8031114339828491,-3.043393850326538,-2.0417568683624268
1761396690128673500,6.692673583984375,1.118308663368225,-3.170908212661743,-2.253415584564209
1761396690148037400,6.712037353515625,0.7791357040405273,-2.5185232162475586,-2.080240249633789
1761396690167428000,6.731427978515625,0.2241809368133545,-0.5570927262306213,-1.7888661623001099
1761396690186805200,6.75080517578125,0.1253764033317566,1.3259966373443604,-1.2566654682159424
1761396690206168800,6.7701689453125,0.22998400032520294,2.3186235427856445,-0.0791047215461731
1761396690225559600,6.7895595703125,0.3739912211894989,2.4898133277893066,0.7951704263687134
1761396690244936700,6.808936767578125,0.5607577562332153,2.1483497619628906,0.9403993487358093
1761396690264300300,6.82830029296875,0.603058934211731,1.5903408527374268,0.6514685750007629
1761396690283691000,6.84769091796875,0.23929941654205322,1.0419527292251587,0.21058958768844604
1761396690303068200,6.867068115234375,-0.2214321345090866,0.8461761474609375,-0.34131091833114624
1761396690322432000,6.886431884765625,-0.36910444498062134,1.022863745689392,-0.8333483934402466
1761396690341822500,6.905822509765625,-0.18462859094142914,1.2143644094467163,-0.9429954290390015
1761396690361199600,6.92519970703125,0.12293300777673721,0.9530744552612305,-0.5624375939369202
1761396690380576800,6.94457666015625,0.35413870215415955,0.34070006012916565,0.005344913341104984
1761396690399954200,6.9639541015625,0.46424391865730286,-0.20570281147956848,0.2545706033706665
1761396690419331300,6.983331298828125,0.5248705148696899,-0.455539345741272,-0.08780929446220398
1761396690438695000,7.00269482421875,0.45385950803756714,-0.5178457498550415,-0.7136223316192627
1761396690458085600,7.022085693359375,0.3229855000972748,-1.0531007051467896,-1.430451512336731
1761396690477462800,7.041462890625,0.27808821201324463,-1.5627000331878662,-1.4364073276519775
1761396690496826400,7.060826416015625,-0.17500774562358856,-1.2566654682159424,0.020157959312200546
1761396690516217000,7.080217041015625,-0.4885250926017761,-1.2462811470031738,1.3139324188232422
1761396690535594200,7.09959423828125,-0.5051707029342651,-1.7251853942871094,1.4183872938156128
1761396690554957800,7.118957763671875,-1.0265288352966309,-1.2516260147094727,1.1807677745819092
1761396690574348500,7.1383486328125,-1.4964231252670288,0.4187358021736145,1.1835166215896606
1761396690593725700,7.1577255859375,-1.5002409219741821,1.5831633806228638,1.3519576787948608
1761396690613089500,7.177089599609375,-1.3443220853805542,1.23940908908844,1.4829844236373901
1761396690632480000,7.19647998046875,-1.1274713277816772,0.10888352245092392,1.3905937671661377
1761396690651857400,7.215857421875,-0.9254335761070251,-0.6531484127044678,1.1085350513458252
1761396690671221000,7.235220947265625,-0.8527427911758423,-0.6218425035476685,0.7041541934013367
1761396690690611700,7.25461181640625,-0.9593356251716614,-0.24479703605175018,0.3692571818828583
1761396690709988900,7.27398876953125,-1.1070079803466797,0.14996300637722015,0.24601873755455017
1761396690729352400,7.2933525390625,-1.0683718919754028,0.3805578351020813,0.3049654960632324
1761396690748743200,7.3127431640625,-0.8904625773429871,0.3052709102630615,0.5462501645088196
1761396690768120300,7.332120361328125,-0.6464291214942932,-0.05925218388438225,0.883895993232727
1761396690787497500,7.35149755859375,-0.4034646153450012,-0.6565080881118774,1.1450332403182983
1761396690806874600,7.37087451171875,-0.23441264033317566,-1.3240114450454712,1.0231691598892212
1761396690826251800,7.390251708984375,0.01695101149380207,-1.794974684715271,0.43446511030197144
1761396690845615600,7.40961572265625,0.5150969624519348,-2.22210955619812,-0.29794076085090637
1761396690865006000,7.429006103515625,1.051726222038269,-1.9780761003494263,-1.188708782196045
1761396690884383500,7.448383544921875,0.8305995464324951,-1.8336107730865479,-2.7210190296173096
1761396690903747000,7.4677470703125,-0.03542914241552353,-1.3046170473098755,-3.120666027069092
1761396690923137800,7.4871376953125,-0.4816530644893646,0.6435275673866272,-1.7516045570373535
1761396690942515000,7.506514892578125,-0.020463382825255394,1.9884605407714844,-0.009315420873463154
1761396690961878500,7.52587841796875,0.3107685446739197,1.578123927116394,1.2230689525604248
1761396690981269200,7.545269287109375,0.023975754156708717,0.4724903404712677,1.5657542943954468
1761396691000646400,7.564646484375,-0.6035171151161194,0.3405473530292511,1.0476030111312866
1761396691020010000,7.584010009765625,-1.0468394756317139,1.0989142656326294,0.2683146595954895
1761396691039400700,7.603400634765625,-1.1074661016464233,1.372573733329773,0.027182703837752342
1761396691058777900,7.62277783203125,-0.9465078115463257,0.7452336549758911,0.40514445304870605
1761396691078141700,7.6421416015625,-0.7412631511688232,0.02733541466295719,0.8590039610862732
1761396691097532400,7.661532470703125,-0.5512896776199341,-0.10796725004911423,0.9657495021820068
1761396691116909600,7.68090966796875,-0.453095942735672,0.027182703837752342,0.8272398710250854
1761396691136273200,7.700273193359375,-0.3761292099952698,0.08719844371080399,0.5263976454734802
1761396691155664000,7.719663818359375,-0.48760882019996643,-0.29717719554901123,0.03955236077308655
1761396691175041000,7.739041015625,-0.6157340407371521,-1.2670499086380005,-0.5822901725769043
1761396691194404600,7.758404541015625,-0.33886751532554626,-1.7879499197006226,-1.1293038129806519
1761396691213795300,7.77779541015625,0.047798797488212585,-1.7974181175231934,-1.4664915800094604
1761396691233172500,7.79717236328125,-0.14782503247261047,-1.5827052593231201,-1.159998893737793
1761396691252536000,7.8165361328125,0.06368082761764526,-1.4174710512161255,-0.474017471075058
1761396691271926800,7.8359267578125,0.2773246467113495,-1.7838267087936401,-1.3145432472229004
1761396691291304000,7.855303955078125,-0.14095300436019897,-0.2516690790653229,-1.4135005474090576
1761396691310667800,7.874667724609375,-0.1844758689403534,2.916032075881958,0.2779355049133301
1761396691330058500,7.89405859375,0.48241662979125977,3.4992384910583496,1.7059437036514282
1761396691349435600,7.913435546875,0.7230904698371887,2.8129515647888184,2.3355743885040283
1761396691368799200,7.93279931640625,0.13866232335567474,2.1162803173065186,2.2346320152282715
1761396691388190000,7.95218994140625,-0.22738789021968842,2.3273279666900635,1.546207070350647
1761396691407567000,7.971567138671875,-0.5280774831771851,2.3592448234558105,1.01706063747406
1761396691426930700,7.9909306640625,-0.8536590337753296,1.5753750801086426,0.9721634387969971
1761396691446321400,8.0103212890625,-0.7710419297218323,0.6865923404693604,1.1293038129806519
1761396691465698600,8.029698486328124,-0.4228590130805969,0.17225892841815948,1.4160966873168945
1761396691485062100,8.049062255859376,-0.20585553348064423,-0.4343124032020569,1.6065282821655273
1761396691504452900,8.068452880859375,-0.27350685000419617,-0.7542436718940735,1.1387720108032227
1761396691523830000,8.087830078125,-0.543195903301239,-0.6395570635795593,0.051922015845775604
1761396691543193900,8.10719384765625,-0.5851916670799255,-0.8889354467391968,-0.7220214605331421
1761396691562584300,8.126584228515625,-0.33596599102020264,-1.4750434160232544,-0.6697940230369568
1761396691581961700,8.145961669921874,-0.15469707548618317,-1.510167121887207,-0.44820916652679443
1761396691601325300,8.1653251953125,-0.11178504675626755,-1.111131191253662,-0.38880428671836853
1761396691620716000,8.184716064453125,0.10338589549064636,-0.5531222224235535,-0.28816720843315125
1761396691640093200,8.20409326171875,0.008399149402976036,-0.10338589549064636,-0.9753703474998474
1761396691659456800,8.223456787109376,-0.5980194807052612,-0.8970292210578918,-2.328244209289551
1761396691678847500,8.242847412109375,-0.2895416021347046,0.25472331047058105,-1.3736428022384644
1761396691698224600,8.262224609375,0.543195903301239,1.4988664388656616,1.323400616645813
1761396691717588200,8.281588134765625,1.0837957859039307,0.5381564497947693,3.42547869682312
1761396691736979000,8.30097900390625,1.0477557182312012,-0.5483881235122681,4.2970051765441895
1761396691756356000,8.320356201171874,0.4077405333518982,-0.293664813041687,3.982876777648926
1761396691775720000,8.339719970703126,-0.293664813041687,0.3426853120326996,2.7646946907043457
1761396691795110400,8.3591103515625,-0.9727742671966553,0.6056550741195679,1.2288719415664673
1761396691814487800,8.37848779296875,-1.4881765842437744,0.5900784730911255,0.038636088371276855
1761396691833851400,8.397851318359375,-1.3464601039886475,0.3936910629272461,-0.18142163753509521
1761396691853242000,8.4172421875,-0.5836645364761353,0.48638713359832764,0.26434415578842163
1761396691872619300,8.436619384765624,-0.06673506647348404,0.1178935244679451,0.44423866271972656
1761396691891982800,8.45598291015625,0.019241688773036003,-0.5833591222763062,0.13469181954860687
1761396691911373600,8.47537353515625,-0.022906772792339325,-1.0799779891967773,-0.5541911721229553
1761396691930750700,8.494750732421876,-0.0787992998957634,-1.3124053478240967,-1.3516522645950317
1761396691950114300,8.5141142578125,-0.01969982497394085,-1.3838744163513184,-1.5413203239440918
1761396691969505000,8.533505126953125,-0.01847812905907631,-1.7575602531433105,-1.0957072973251343
1761396691988882200,8.552882080078126,0.010537114925682545,-1.1393828392028809,-0.6171084642410278
1761396692008246000,8.57224609375,0.2867927849292755,-0.8376243114471436,-0.12461283802986145
1761396692027636700,8.59163671875,0.023823043331503868,-0.40606072545051575,0.36284327507019043
1761396692047014000,8.611013916015626,-1.0133955478668213,0.14782503247261047,-0.7539382576942444
1761396692066377500,8.63037744140625,-0.8955020904541016,0.8675557971000671,-1.5849958658218384
1761396692085768200,8.649768310546875,-0.4031592011451721,0.23716144263744354,-1.0259180068969727
1761396692105145300,8.669145263671876,0.08735115826129913,-1.0782980918884277,0.07589777559041977
1761396692124509000,8.688509033203125,0.3052709102630615,-1.057223916053772,0.5505260825157166
1761396692143899600,8.707899658203125,-0.0719272643327713,-0.029626091942191124,-0.1178935244679451
1761396692163276800,8.72727685546875,-0.4158342778682709,0.3286358118057251,-1.0066763162612915
1761396692182640600,8.746640625,-0.3370349705219269,0.420873761177063,-1.2273448705673218
1761396692202031000,8.766031005859375,-0.11300674080848694,0.11621369421482086,-0.5024218559265137
1761396692221408300,8.785408203125,0.05375456064939499,-0.16553960740566254,0.25625041127204895
1761396692240772000,8.804772216796875,0.032222192734479904,0.10216420143842697,0.5686988234519958
1761396692260162800,8.824162841796875,-0.12339114397764206,0.37704548239707947,0.5543438792228699
1761396692279540000,8.8435400390625,-0.2707580327987671,0.03008422814309597,0.5511369109153748
1761396692298917000,8.862917236328125,-0.47829338908195496,-0.5175403356552124,0.6760551929473877
1761396692318294300,8.882294189453125,-0.6445965766906738,-0.5419742465019226,0.7207997441291809
1761396692337671400,8.90167138671875,-0.5508314967155457,-0.24540787935256958,0.5529694557189941
1761396692357035000,8.921034912109375,-0.2573194205760956,-0.023059483617544174,0.15393351018428802
1761396692376425700,8.94042578125,-0.10781454294919968,-0.6560499668121338,-0.23777230083942413
1761396692395803000,8.959802978515626,0.13866232335567474,-1.0178242921829224,-0.4749337434768677
1761396692415166500,8.97916650390625,0.07559234648942947,-0.19974705576896667,-0.2238755226135254
1761396692434557200,8.99855712890625,-0.5399889945983887,0.09834641218185425,-0.4416425824165344
1761396692453934300,9.017934326171876,-0.5720584392547607,-0.4943281412124634,-1.4634373188018799
1761396692473298200,9.037298095703125,0.03237490355968475,-0.9142856597900391,-2.3945212364196777
1761396692492688600,9.056688720703125,0.49921491742134094,-0.7715001106262207,-2.426438093185425
1761396692512066000,9.076066162109376,0.6381826996803284,-0.4497362971305847,-1.047450304031372
1761396692531429600,9.0954296875,0.2655658423900604,-0.12812520563602448,0.6229115128517151
1761396692550820400,9.1148203125,-0.38391751050949097,-0.29946786165237427,1.2339115142822266
1761396692570197500,9.134197509765626,-0.4143071472644806,-0.3503209054470062,0.6053496599197388
1761396692589561000,9.15356103515625,0.0716218426823616,0.2501419484615326,-0.2655658423900604
1761396692608951800,9.172951904296875,0.43981003761291504,0.9265025854110718,-0.29687178134918213
1761396692628329000,9.192328857421876,0.29290124773979187,0.8962656259536743,0.10735640674829483
1761396692647706000,9.2117060546875,0.045355409383773804,0.693617045879364,0.60825115442276
1761396692667083300,9.231083251953125,-0.02626643143594265,0.5221216678619385,1.096470832824707
1761396692686460400,9.25046044921875,0.027946261689066887,0.4040754735469818,1.2192511558532715
1761396692705824300,9.26982421875,0.03894151374697685,0.9200887084007263,0.867250382900238
1761396692725215000,9.289215087890625,0.08521319180727005,1.1917630434036255,0.6946860551834106
1761396692744592100,9.308592041015626,0.2515163719654083,0.6937697529792786,1.0485193729400635
1761396692763955700,9.327955810546875,0.30786702036857605,0.4715740978717804,1.2678134441375732
1761396692783346400,9.347346435546875,0.3246653079986572,0.5943543910980225,1.2778924703598022
1761396692802723600,9.3667236328125,0.11926792562007904,0.6659762263298035,0.7285880446434021
1761396692822087200,9.386087158203125,-0.3408527672290802,0.5329642295837402,-0.5367820262908936
1761396692841478000,9.405477783203125,-0.23807771503925323,0.39598172903060913,-1.5396405458450317
1761396692860855000,9.42485498046875,0.10934165865182877,0.21944688260555267,-1.8394137620925903
1761396692880219000,9.444218994140625,0.2964136302471161,-0.1566823273897171,-1.7244218587875366
1761396692899609300,9.463609375,0.46577104926109314,-0.5519005060195923,-1.0422581434249878
1761396692918986500,9.482986572265625,0.3118375241756439,-0.44988900423049927,-0.32756683230400085
1761396692938350300,9.502350341796875,0.012675080448389053,0.0036650835536420345,-0.1241547018289566
1761396692957741000,9.521740966796875,-0.168899267911911,0.4240806996822357,-0.4503471553325653
1761396692977118200,9.5411181640625,0.03176405653357506,0.48989951610565186,-0.5914528369903564
1761396692996481800,9.560481689453125,0.31031039357185364,0.20142687857151031,-0.18432316184043884
1761396693015872500,9.57987255859375,0.2996205687522888,-0.10094250738620758,0.3784198760986328
1761396693035249700,9.599249755859375,0.14935214817523956,-0.08948912471532822,0.6120689511299133
1761396693054613200,9.61861328125,0.1313321590423584,0.17485502362251282,0.6971294283866882
1761396693074004000,9.63800390625,0.14843589067459106,0.2411319613456726,0.7499676942825317
1761396693093381000,9.657381103515625,0.11636640131473541,0.44072631001472473,0.672695517539978
1761396693112758300,9.67675830078125,0.09345962852239609,0.4205683469772339,0.797613799571991
1761396693132135400,9.696135498046875,0.14889401197433472,0.2907632887363434,1.0427162647247314
1761396693151512600,9.7155126953125,0.30252209305763245,0.2877090573310852,1.236507534980774
1761396693170876400,9.73487646484375,0.49524441361427307,0.04214845970273018,1.5367389917373657
1761396693190267100,9.75426708984375,0.3399364948272705,0.00015271181473508477,1.7684028148651123
1761396693209644300,9.773644287109375,-0.09712471067905426,0.016340164467692375,1.1538904905319214
1761396693229008000,9.7930078125,-0.536629319190979,0.0656660795211792,-0.4143071472644806
1761396693248398600,9.812398681640625,-0.34909921884536743,0.5854970812797546,-1.2995775938034058
1761396693267775700,9.831775634765625,0.25502872467041016,0.7989882230758667,-1.4043378829956055
1761396693287139300,9.851139404296875,0.4682144224643707,0.20570281147956848,-0.659562349319458
1761396693306530000,9.870530029296875,0.4694361090660095,-0.6247440576553345,-0.11025793105363846
1761396693325907200,9.8899072265625,0.37796175479888916,-0.2667875289916992,-0.4089622497558594
1761396693345270800,9.909270751953125,0.20249587297439575,0.3180987238883972,-1.2224581241607666
1761396693364661500,9.92866162109375,0.2573194205760956,0.3680354654788971,-1.3481398820877075
