time,seconds_elapsed,z,y,x
1761396683560933600,0.12493359375,7.526623725891113,6.433701992034912,-1.6366907358169556
1761396683580310800,0.144310791015625,7.608577728271484,6.440880298614502,-1.6827524900436401
1761396683599688000,0.16368798828125,7.582854747772217,6.476174354553223,-1.592423439025879
1761396683619065000,0.183065185546875,7.743772506713867,6.427719593048096,-1.5810575485229492
1761396683638442200,0.202442138671875,7.554739475250244,6.366703033447266,-1.485344648361206
1761396683657819400,0.2218193359375,6.704689025878906,6.51326322555542,-1.3992030620574951
1761396683677196500,0.241196533203125,6.206982135772705,6.578467845916748,-1.3387842178344727
1761396683696573700,0.26057373046875,6.214758396148682,6.514459609985352,-1.4033905267715454
1761396683715950800,0.279950927734375,6.832107067108154,6.386443614959717,-1.555932879447937
1761396683735328300,0.299328369140625,7.307082176208496,6.150152206420898,-1.441077470779419
1761396683754705200,0.318705078125,8.007580757141113,5.840879917144775,-1.272383451461792
1761396683774082600,0.33808251953125,8.62313461303711,5.876772403717041,-1.1066805124282837
1761396683793459700,0.357459716796875,8.027321815490723,5.831906795501709,-0.4253242313861847
1761396683812823300,0.3768232421875,5.4556355476379395,5.161318302154541,0.3445664644241333
1761396683832214000,0.396214111328125,2.424527645111084,5.770890235900879,-1.1389836072921753
1761396683851591200,0.415591064453125,2.462812662124634,6.573083877563477,-3.053241729736328
1761396683870968300,0.43496826171875,4.087539196014404,6.289534091949463,-3.3607194423675537
1761396683890345500,0.454345458984375,5.585446357727051,5.531009674072266,-2.7284159660339355
1761396683909722600,0.47372265625,7.686344623565674,5.143372058868408,-2.8905298709869385
1761396683929086200,0.493086181640625,9.32423210144043,5.033302307128906,-2.998206853866577
1761396683948477000,0.512476806640625,7.767700672149658,5.1427741050720215,-2.5902304649353027
1761396683967854000,0.53185400390625,7.084549427032471,5.571089267730713,-2.5363919734954834
1761396683987231200,0.551231201171875,7.557730197906494,5.621338367462158,-2.134995937347412
1761396684006608400,0.5706083984375,7.312466144561768,5.434100151062012,-1.4057832956314087
1761396684025985500,0.589985595703125,6.829713821411133,5.346762180328369,-0.760917603969574
1761396684045362700,0.60936279296875,7.378268718719482,5.7792649269104,-1.5026925802230835
1761396684064739800,0.62873974609375,6.145965099334717,5.224728107452393,-2.4430718421936035
1761396684084117000,0.648116943359375,5.5932230949401855,4.191029071807861,-2.231307029724121
1761396684103480800,0.667480712890625,7.548159122467041,3.4061830043792725,-2.124826431274414
1761396684122871300,0.686871337890625,9.192028045654297,3.3720853328704834,-2.3204398155212402
1761396684142248400,0.70624853515625,8.913862228393555,1.5409778356552124,-0.37507495284080505
1761396684161612300,0.7256123046875,10.494919776916504,2.669193744659424,0.5527420043945312
1761396684181002800,0.745002685546875,11.280364036560059,2.8073792457580566,-0.5712863802909851
1761396684200380200,0.764380126953125,10.743773460388184,2.6554348468780518,-0.7920243144035339
1761396684219743700,0.78374365234375,11.542976379394531,3.510270833969116,0.3206382393836975
1761396684239134500,0.803134521484375,13.924432754516602,3.685544967651367,1.8400806188583374
1761396684258511600,0.82251171875,14.937195777893066,3.851248025894165,2.5806591510772705
1761396684277875200,0.841875244140625,12.749557495117188,4.483551502227783,1.7718851566314697
1761396684297266000,0.861265869140625,9.642477035522461,4.938786029815674,1.2969099283218384
1761396684316643000,0.88064306640625,9.485149383544922,4.681557655334473,2.1206390857696533
1761396684336020200,0.900020263671875,10.471590042114258,4.242474555969238,2.11405873298645
1761396684355397400,0.9193974609375,10.222736358642578,4.05403995513916,1.0815558433532715
1761396684374774500,0.9387744140625,9.772886276245117,4.099503517150879,0.5563312768936157
1761396684394138000,0.95813818359375,8.335397720336914,4.002593994140625,0.3523431420326233
1761396684413528800,0.97752880859375,6.047859191894531,3.5676984786987305,0.867398202419281
1761396684432906000,0.996906005859375,5.4765729904174805,3.2889347076416016,0.5688936114311218
1761396684452283100,1.016283203125,5.609374523162842,2.994617462158203,-0.17706887423992157
1761396684471660300,1.035660400390625,5.4556355476379395,2.355733871459961,0.44027936458587646
1761396684491037400,1.055037353515625,5.864808082580566,1.8472590446472168,0.5688936114311218
1761396684510414600,1.07441455078125,6.231508255004883,1.6295121908187866,-0.16749759018421173
1761396684529791700,1.093791748046875,4.972883701324463,1.409970760345459,-0.5096712112426758
1761396684549169000,1.1131689453125,3.008376359939575,1.8681962490081787,-1.8699909448623657
1761396684568546000,1.132546142578125,3.8021950721740723,1.7001005411148071,-2.0273189544677734
1761396684587923500,1.15192333984375,9.681360244750977,0.45583271980285645,1.7258232831954956
1761396684607300600,1.171300537109375,20.352153778076172,-0.49651068449020386,4.013361930847168
1761396684626664200,1.190664306640625,29.5740909576416,-1.0253244638442993,6.951747894287109
1761396684646055000,1.210054931640625,32.6034049987793,-0.6023930907249451,5.088935375213623
1761396684665432000,1.22943212890625,28.851459503173828,0.26919254660606384,0.9409775137901306
1761396684684795600,1.248795654296875,19.838294982910156,3.126222848892212,-1.2885349988937378
1761396684704186400,1.268186279296875,12.486347198486328,5.738586902618408,0.900897741317749
1761396684723563500,1.2875634765625,7.024130821228027,7.7802629470825195,4.23649263381958
1761396684742927000,1.306927001953125,0.3403790295124054,6.857231616973877,6.865008354187012
1761396684762317800,1.32631787109375,0.19202402234077454,7.085147857666016,8.466404914855957
1761396684781695000,1.345695068359375,5.72123908996582,8.35573673248291,8.380861282348633
1761396684801058600,1.36505859375,-1.4536397457122803,4.841278553009033,11.056036949157715
1761396684820449300,1.38444921875,-11.188838958740234,3.7363924980163574,6.077171325683594
1761396684839826400,1.403826416015625,-12.792628288269043,1.2849457263946533,3.1334011554718018
1761396684859190300,1.423190185546875,-9.34157943725586,-0.7166503667831421,0.6424728631973267
1761396684878580700,1.442580810546875,-4.302295207977295,-1.7389838695526123,-3.1716864109039307
1761396684897958000,1.4619580078125,-0.6843472719192505,-1.3435698747634888,-5.149952411651611
1761396684917321700,1.48132177734375,0.040677983313798904,-0.7010970115661621,-5.427519798278809
1761396684936712200,1.500712158203125,2.623729944229126,0.6221339106559753,-3.9972102642059326
1761396684956089600,1.520089599609375,8.064410209655762,1.3525429964065552,1.94297194480896
1761396684975453200,1.539453125,16.847864151000977,1.144965648651123,10.535597801208496
1761396684994844000,1.558843994140625,25.604997634887695,1.445863127708435,9.699904441833496
1761396685014221000,1.578220947265625,28.558937072753906,3.4235310554504395,5.580062389373779
1761396685033584600,1.597584716796875,29.580074310302734,5.280361175537109,6.920042991638184
1761396685052975400,1.616975341796875,33.39363479614258,4.271786689758301,10.583454132080078
1761396685072352500,1.6363525390625,33.54318618774414,2.5567309856414795,9.554540634155273
1761396685091716000,1.655716064453125,25.26641273498535,2.2713868618011475,7.084549427032471
1761396685111106800,1.67510693359375,13.030116081237793,3.631706476211548,5.247459888458252
1761396685130484000,1.69448388671875,3.6340994834899902,5.169693470001221,4.231108665466309
1761396685149847600,1.71384765625,-0.46061834692955017,5.5142598152160645,3.655036687850952
1761396685169238300,1.73323828125,-1.5385849475860596,4.089334011077881,3.242872953414917
1761396685188615400,1.752615478515625,-2.5399811267852783,2.5740790367126465,2.9766714572906494
1761396685207979000,1.77197900390625,-2.7349963188171387,1.576870083808899,3.300898790359497
1761396685227369700,1.79136962890625,-2.8564319610595703,1.378864049911499,2.022533416748047
1761396685246747000,1.810746826171875,-3.835096597671509,1.1635099649429321,0.5569294691085815
1761396685266110700,1.83011083984375,-4.766502857208252,0.8213363885879517,-0.5395814776420593
1761396685285501200,1.849501220703125,-4.814359188079834,0.5718846321105957,-1.5912270545959473
1761396685304878300,1.86887841796875,-3.510869026184082,0.6317051649093628,-1.664208173751831
1761396685324255700,1.888255859375,-2.541775941848755,0.833898663520813,-1.067797064781189
1761396685343632600,1.907632568359375,-1.7455641031265259,0.9583254456520081,-1.0552347898483276
1761396685363010000,1.927010009765625,-1.0839486122131348,1.3256237506866455,-1.277169108390808
1761396685382373600,1.94637353515625,1.0217353105545044,1.7204394340515137,-0.649053156375885
1761396685401764400,1.965764404296875,10.801799774169922,1.8765711784362793,1.475175142288208
1761396685421141500,1.9851416015625,30.43191909790039,2.1786649227142334,2.715853691101074
1761396685440505000,2.004505126953125,49.82275390625,1.384247899055481,11.493325233459473
1761396685459895800,2.023895751953125,60.97929000854492,-1.2131611108779907,27.105297088623047
1761396685479273000,2.04327294921875,50.867820739746094,-2.682952404022217,31.80001449584961
1761396685498636500,2.062636474609375,22.0468692779541,2.3198416233062744,20.87917137145996
1761396685518027300,2.08202734375,2.991626501083374,7.411767959594727,13.092329025268555
1761396685537404400,2.101404296875,-2.155933141708374,7.987840175628662,7.878966808319092
1761396685556768300,2.120768310546875,-0.7345965504646301,5.388038158416748,4.933402061462402
1761396685576158700,2.14015869140625,-0.2356930375099182,2.8013970851898193,2.6213371753692627
1761396685595536000,2.159535888671875,-2.3264217376708984,1.0115658044815063,1.3453645706176758
1761396685614899700,2.178899658203125,-4.450051784515381,-0.41575294733047485,0.4546363055706024
1761396685634290200,2.198290283203125,-5.632106304168701,-1.2370892763137817,-0.6370890140533447
1761396685653667300,2.217667236328125,-6.244668960571289,-1.7030915021896362,-1.3106685876846313
1761396685673031200,2.23703125,-6.543771743774414,-1.9555343389511108,-2.782254457473755
1761396685692422000,2.256421875,-6.7310099601745605,-1.9669002294540405,-3.363112211227417
1761396685711798800,2.275798828125,-6.169294834136963,-1.8891334533691406,-3.4157543182373047
1761396685731176200,2.29517626953125,-4.927420139312744,-1.4931213855743408,-3.049652576446533
1761396685750553300,2.31455322265625,-3.8943188190460205,-1.2550355195999146,-2.1684954166412354
1761396685769930500,2.333930419921875,-2.2995026111602783,-1.064207911491394,-1.9459630250930786
1761396685789294000,2.353294189453125,-0.735194742679596,-0.8847461938858032,-0.9230313301086426
1761396685808684800,2.372684814453125,1.8179470300674438,-0.4366901218891144,1.1078768968582153
1761396685828062000,2.39206201171875,5.749952793121338,0.8799605369567871,1.3657035827636719
1761396685847425500,2.411425537109375,13.12403392791748,2.5154547691345215,2.562114953994751
1761396685866816300,2.430816162109375,21.962522506713867,4.869394302368164,4.993222713470459
1761396685886193400,2.450193359375,27.865018844604492,6.658029079437256,15.564713478088379
1761396685905557000,2.469556884765625,30.976285934448242,4.646861553192139,30.439096450805664
1761396685924947700,2.48894775390625,30.873394012451172,5.1774702072143555,30.50071144104004
1761396685944324900,2.508324951171875,24.00419807434082,7.150352478027344,21.19322967529297
1761396685963688700,2.527688720703125,15.316457748413086,7.937591075897217,14.469398498535156
1761396685983079200,2.5470791015625,12.004791259765625,7.471588611602783,11.760723114013672
1761396686002456600,2.56645654296875,9.664610862731934,6.168098449707031,8.844470977783203
1761396686021820200,2.585820068359375,5.652445316314697,4.540380954742432,6.008377552032471
1761396686041211000,2.6052109375,1.716252088546753,3.2931220531463623,4.342973232269287
1761396686060588000,2.624588134765625,-0.727418065071106,2.204986095428467,1.9465612173080444
1761396686079951600,2.64395166015625,-2.2127628326416016,1.571486234664917,-0.3696911036968231
1761396686099342300,2.66334228515625,-2.967698335647583,1.0827522277832031,-2.029113531112671
1761396686118719500,2.682719482421875,-3.046661376953125,0.5575276613235474,-3.9188451766967773
1761396686138083000,2.7020830078125,-3.2817561626434326,0.35832518339157104,-5.199005603790283
1761396686157473800,2.721473876953125,-3.769293785095215,0.28115665912628174,-5.732006549835205
1761396686176851000,2.740850830078125,-2.7667012214660645,0.26081767678260803,-5.368896007537842
1761396686196214500,2.760214599609375,-0.9056833982467651,0.16151553392410278,-3.9427735805511475
1761396686215605200,2.779605224609375,0.7507480978965759,0.13519448041915894,-1.5248262882232666
1761396686234982400,2.798982421875,0.364905446767807,0.5437689423561096,1.3357932567596436
1761396686254346000,2.818345947265625,0.10229317098855972,1.5038890838623047,4.948955535888672
1761396686273736700,2.83773681640625,4.444069862365723,3.473181962966919,7.950751304626465
1761396686293113900,2.85711376953125,13.977075576782227,5.411368370056152,7.853842258453369
1761396686312477700,2.876477783203125,31.788049697875977,5.096114158630371,16.49911117553711
1761396686331868200,2.8958681640625,41.79782485961914,3.207578659057617,36.7938346862793
1761396686351245300,2.915245361328125,31.311281204223633,1.7096717357635498,41.798423767089844
1761396686370609200,2.934609130859375,14.120046615600586,5.276174068450928,24.455245971679688
1761396686389999900,2.953999755859375,9.10409164428711,4.653441905975342,12.869796752929688
1761396686409377000,2.973376953125,12.386445999145508,4.83888578414917,6.159125328063965
1761396686428740600,2.99274072265625,10.170692443847656,4.285545349121094,2.734398126602173
1761396686448131300,3.01213134765625,4.905884742736816,3.487539052963257,1.9304096698760986
1761396686467508500,3.031508544921875,0.9361918568611145,2.2444677352905273,1.8687944412231445
1761396686486872000,3.0508720703125,-1.1252248287200928,0.7519445419311523,1.975873351097107
1761396686506262800,3.0702626953125,-1.394417405128479,-0.34277185797691345,1.7174484729766846
1761396686525640000,3.089639892578125,-1.2191431522369385,-1.3262219429016113,0.49591249227523804
1761396686545003800,3.109003662109375,-1.643869161605835,-1.8586249351501465,-2.0303099155426025
1761396686564394200,3.128394287109375,-4.277768611907959,-1.811964988708496,-3.8763725757598877
1761396686583771400,3.147771484375,-8.481359481811523,-1.1234302520751953,-4.777868747711182
1761396686603135200,3.16713525390625,-10.614561080932617,-0.5928218364715576,-2.801995277404785
1761396686622525700,3.186525634765625,-7.929215908050537,-0.36311084032058716,0.12681959569454193
1761396686641902800,3.20590283203125,-2.9186453819274902,-0.4217349886894226,2.830111026763916
1761396686661266700,3.2252666015625,2.746960401535034,0.31345975399017334,2.544168710708618
1761396686680657400,3.244657470703125,7.937591075897217,1.3692927360534668,0.8015955686569214
1761396686700034600,3.26403466796875,13.826925277709961,2.184048891067505,-0.2721835672855377
1761396686719398100,3.283398193359375,20.199012756347656,4.140181541442871,3.6263227462768555
1761396686738788900,3.302788818359375,26.467010498046875,6.38584566116333,8.35274600982666
1761396686758166000,3.322166015625,27.398418426513672,8.060821533203125,11.264810562133789
1761396686777529600,3.341529541015625,27.004199981689453,9.08135986328125,11.154142379760742
1761396686796920300,3.36092041015625,32.85525131225586,8.289336204528809,8.389236450195312
1761396686816297500,3.38029736328125,35.067413330078125,6.56411075592041,5.0602216720581055
1761396686835661000,3.3996611328125,27.875186920166016,5.528018474578857,2.5674986839294434
1761396686855051800,3.4190517578125,17.6093807220459,4.312464714050293,2.547757863998413
1761396686874429000,3.438428955078125,9.342177391052246,2.671586513519287,2.9210381507873535
1761396686893792800,3.457792724609375,4.252644062042236,0.8273184299468994,2.038684844970703
1761396686913183200,3.477183349609375,0.6059823632240295,-0.9517452120780945,1.00259268283844
1761396686932560400,3.496560302734375,-2.5812573432922363,-2.276770830154419,-0.27816563844680786
1761396686951924200,3.51592431640625,-4.996811866760254,-2.902493953704834,-1.4787644147872925
1761396686971315000,3.53531494140625,-7.360920429229736,-2.8007988929748535,-2.0715861320495605
1761396686990692000,3.554692138671875,-9.315258979797363,-2.4029922485351562,-2.1206390857696533
1761396687010055700,3.5740556640625,-10.284351348876953,-1.8789639472961426,-2.142772674560547
1761396687029446400,3.5934462890625,-8.436494827270508,-1.6019947528839111,-2.730808734893799
1761396687048823600,3.612823486328125,-4.0767717361450195,-1.672582983970642,-2.8384859561920166
1761396687068187100,3.632187255859375,-0.08015955984592438,-1.6450655460357666,-2.0608184337615967
1761396687087577900,3.651577880859375,2.654836654663086,-0.6562315821647644,-1.9866410493850708
1761396687106955000,3.670955078125,4.993222713470459,0.49591249227523804,-0.05024927482008934
1761396687126318600,3.690318603515625,9.607781410217285,1.9674984216690063,4.426722049713135
1761396687145709300,3.709709228515625,13.998610496520996,3.0687949657440186,7.590631484985352
1761396687165086500,3.72908642578125,18.850059509277344,5.510072231292725,8.0955171585083
1761396687184450000,3.748449951171875,23.072792053222656,8.303094863891602,10.054640769958496
1761396687203840800,3.7678408203125,28.860431671142578,9.255437850952148,17.562122344970703
1761396687223218000,3.787218017578125,32.60759353637695,7.70967435836792,28.003204345703125
1761396687242581800,3.806581787109375,27.98166847229004,7.429714202880859,27.551557540893555
1761396687261972200,3.82597216796875,20.813369750976562,8.194221496582031,15.844673156738281
1761396687281349600,3.845349609375,17.974884033203125,6.981060028076172,9.016156196594238
1761396687300713200,3.864713134765625,14.455041885375977,5.669195175170898,5.821139335632324
1761396687320104000,3.88410400390625,7.435098171234131,3.954139471054077,4.206582069396973
1761396687339481000,3.903481201171875,-0.4408775866031647,1.933998942375183,3.735196113586426
1761396687358844700,3.9228447265625,-5.830710411071777,0.14835500717163086,3.053241729736328
1761396687378235400,3.9422353515625,-7.564908981323242,-0.3152543902397156,0.5868397355079651
1761396687397612500,3.961612548828125,-6.945167541503906,-0.4749752879142761,-2.294118642807007
1761396687416976100,3.98097607421875,-6.225526332855225,-0.9403793215751648,-4.5816569328308105
1761396687436366800,4.000366943359375,-6.058627128601074,-0.9690931439399719,-5.2941203117370605
1761396687455744000,4.019743896484375,-5.715256690979004,-0.9266205430030823,-4.342973232269287
1761396687475107800,4.03910791015625,-4.877170562744141,-0.906281590461731,-2.139183521270752
1761396687494498300,4.058498291015625,-3.053839921951294,-0.5258227586746216,-0.36729827523231506
1761396687513875500,4.07787548828125,0.13998012244701385,0.23629122972488403,0.8500502705574036
1761396687533239300,4.0972392578125,4.688137531280518,0.47617170214653015,2.785245656967163
1761396687552630000,4.116630126953125,10.814361572265625,1.0689935684204102,4.572085857391357
1761396687572007200,4.136007080078125,15.079567909240723,1.933998942375183,4.76530647277832
1761396687591370800,4.155370849609375,16.103097915649414,3.3338000774383545,6.046064376831055
1761396687610761500,4.174761474609375,17.022541046142578,5.611767292022705,6.534798622131348
1761396687630138600,4.194138671875,21.537199020385742,6.4941205978393555,4.910071849822998
1761396687649502200,4.213502197265625,29.07758140563965,6.5491557121276855,8.862417221069336
1761396687668893000,4.232892822265625,35.473594665527344,3.6364922523498535,18.18545150756836
1761396687688270000,4.25227001953125,31.04986572265625,2.9874391555786133,17.998811721801758
1761396687707633700,4.271633544921875,21.506689071655273,3.8572301864624023,10.88016414642334
1761396687727024400,4.2910244140625,15.890735626220703,3.0137600898742676,9.509077072143555
1761396687746401500,4.310401611328125,10.538589477539062,2.007578134536743,8.74636459350586
1761396687765765400,4.329765380859375,5.1876397132873535,0.8620143532752991,7.46919584274292
1761396687785155800,4.34915576171875,1.7461622953414917,0.009571290574967861,5.473581790924072
1761396687804533000,4.368532958984375,-2.0811574459075928,-0.0077766734175384045,2.568096876144409
1761396687823896800,4.387896728515625,-5.671587944030762,0.20099709928035736,0.5850451588630676
1761396687843287600,4.40728759765625,-7.794619560241699,0.29431718587875366,-1.1048858165740967
1761396687862664700,4.426664794921875,-8.400003433227539,0.062213387340307236,-2.417947292327881
1761396687882028300,4.4460283203125,-7.907082557678223,-0.20937198400497437,-2.8498518466949463
1761396687901419000,4.4654189453125,-6.805785655975342,-0.6430711150169373,-2.6362924575805664
1761396687920796200,4.484796142578125,-5.578267574310303,-0.8997012972831726,-2.1571295261383057
1761396687940159700,4.50415966796875,-3.8919260501861572,-1.2293126583099365,-1.557727575302124
1761396687959550500,4.523550537109375,-1.4171491861343384,-1.4428720474243164,-1.022931694984436
1761396687978927600,4.542927734375,1.7377874851226807,-1.1545369625091553,-1.1718848943710327
1761396687998291200,4.562291259765625,6.2105712890625,-0.6975077986717224,-0.828514814376831
1761396688017682000,4.581681884765625,12.960125923156738,-0.8207381963729858,1.6755740642547607
1761396688037059000,4.60105908203125,24.3009090423584,-0.8189435601234436,6.698707103729248
1761396688056423000,4.6204228515625,31.896326065063477,-1.303490161895752,16.850257873535156
1761396688075813400,4.6398134765625,32.520851135253906,-0.4019941985607147,25.518856048583984
1761396688095190500,4.6591904296875,35.39403533935547,0.8368897438049316,27.224937438964844
1761396688114554400,4.678554443359375,37.80779266357422,1.332203984260559,24.594627380371094
1761396688133945000,4.697945068359375,31.47100067138672,2.554338216781616,16.18146324157715
1761396688153322200,4.717322265625,22.070199966430664,3.9158542156219482,10.371091842651367
1761396688172685800,4.736685791015625,13.814363479614258,4.056432723999023,7.623532772064209
1761396688192076500,4.75607666015625,5.529813289642334,3.3074791431427,6.772286415100098
1761396688211453700,4.77545361328125,-2.5531418323516846,1.999801516532898,7.381259441375732
1761396688230817300,4.7948173828125,-8.303094863891602,0.9236295223236084,6.162116527557373
1761396688250208000,4.8142080078125,-11.451451301574707,0.040677983313798904,2.0039889812469482
1761396688269585200,4.833585205078125,-11.406585693359375,-0.8356932997703552,-1.6546368598937988
1761396688288948700,4.85294873046875,-8.536993026733398,-1.2287144660949707,-4.078566074371338
1761396688308339500,4.87233935546875,-5.18823766708374,-1.1784651279449463,-4.48414945602417
1761396688327716600,4.891716552734375,-3.8500516414642334,-1.215553879737854,-2.355135679244995
1761396688347080400,4.91108056640625,-5.076373100280762,-0.9385846853256226,-0.34217363595962524
1761396688366471200,4.93047119140625,-6.555137634277344,-0.7639086246490479,0.17228323221206665
1761396688385848000,4.94984814453125,-5.325226783752441,-0.20099709928035736,0.40378883481025696
1761396688405212000,4.9692119140625,-3.33858585357666,1.1778669357299805,1.3304094076156616
1761396688424602600,4.9886025390625,-0.2111666053533554,3.769293785095215,2.5148565769195557
1761396688443979800,5.007979736328125,8.196614265441895,7.712665557861328,4.2556352615356445
1761396688463343400,5.02734326171875,21.701107025146484,11.928220748901367,8.689535140991211
1761396688482734000,5.046734130859375,30.6382999420166,14.501103401184082,12.457633018493652
1761396688502111200,5.066111328125,43.094139099121094,12.921242713928223,12.745967864990234
1761396688521474800,5.085474853515625,49.17549514770508,9.567103385925293,13.683954238891602
1761396688540865500,5.104865478515625,39.705902099609375,7.121638298034668,11.224132537841797
1761396688560242700,5.12424267578125,24.374486923217773,7.269993305206299,6.690930366516113
1761396688579606500,5.1436064453125,13.557134628295898,7.421339511871338,5.2492547035217285
1761396688598997000,5.1629970703125,7.287939548492432,6.117849349975586,4.332205295562744
1761396688618374100,5.1823740234375,3.2883365154266357,4.051646709442139,1.3621143102645874
1761396688637738000,5.201738037109375,0.32721850275993347,1.9256240129470825,0.7345965504646301
1761396688657128700,5.221128662109375,-2.012363910675049,-0.22851456701755524,1.036690354347229
1761396688676505900,5.240505859375,-3.762115478515625,-1.6480566263198853,0.43609192967414856
1761396688695869400,5.259869384765625,-5.73260498046875,-2.984447956085205,-0.0687936544418335
1761396688715260200,5.27926025390625,-5.665007591247559,-3.521636724472046,-1.5080764293670654
1761396688734637300,5.29863720703125,-4.556532382965088,-3.2338998317718506,-2.3784656524658203
1761396688754001000,5.3180009765625,-2.077568292617798,-2.3922245502471924,-1.6121642589569092
1761396688773391600,5.3373916015625,1.031306505203247,-0.8392825126647949,-0.3164508044719696
1761396688792768800,5.356768798828125,2.424527645111084,0.7262216806411743,0.6879364848136902
1761396688812132400,5.37613232421875,3.360121250152588,2.079961061477661,0.7938188910484314
1761396688831523000,5.395523193359375,6.8865437507629395,3.6885361671447754,0.4486542344093323
1761396688850900200,5.414900146484375,10.992627143859863,5.153541564941406,3.105883836746216
1761396688870264000,5.43426416015625,14.044672966003418,6.994818687438965,2.8809585571289062
1761396688889654500,5.453654541015625,15.107086181640625,8.831310272216797,-1.7653049230575562
1761396688909032000,5.473031982421875,11.724830627441406,10.921441078186035,-2.294118642807007
1761396688928395500,5.4923955078125,8.23549747467041,12.492328643798828,0.7238288521766663
1761396688947786200,5.5117861328125,7.579265594482422,14.213964462280273,-1.5756736993789673
1761396688967163400,5.531163330078125,8.6967134475708,14.893526077270508,-3.9523448944091797
1761396688986527000,5.55052685546875,13.079168319702148,14.19003677368164,-2.383849620819092
1761396689005917700,5.569917724609375,16.430316925048828,12.817154884338379,-0.8374879360198975
1761396689025294800,5.589294921875,14.879767417907715,10.834102630615234,-1.4482558965682983
1761396689044658400,5.608658447265625,8.252246856689453,8.34138011932373,-0.7190431952476501
1761396689064049200,5.628049072265625,1.688136339187622,6.2871413230896,0.7130611538887024
1761396689083426300,5.64742626953125,-2.8492536544799805,4.314259052276611,1.6815561056137085
1761396689102790000,5.666789794921875,-2.444866418838501,2.1517457962036133,1.6648063659667969
1761396689122180600,5.6861806640625,1.6402798891067505,0.99481600522995,0.267397940158844
1761396689141557800,5.705557861328125,3.6460635662078857,0.35473597049713135,-0.9750752449035645
1761396689160921600,5.724921630859375,4.154538154602051,0.6526423692703247,-1.0450652837753296
1761396689180312000,5.74431201171875,4.012763500213623,1.3561322689056396,0.062213387340307236
1761396689199689500,5.763689453125,3.2919256687164307,1.9543378353118896,0.6245267391204834
1761396689219066600,5.783066650390625,3.0544381141662598,2.4089741706848145,1.2478569746017456
1761396689238443800,5.80244384765625,3.6544384956359863,3.0269205570220947,0.6819544434547424
1761396689257821000,5.821821044921875,4.792823791503906,3.672982692718506,0.04785645380616188
1761396689277184500,5.8411845703125,5.388636589050293,4.944767951965332,-0.8488538265228271
1761396689296575200,5.8605751953125,5.525027275085449,7.749754428863525,-2.1678972244262695
1761396689315952400,5.879952392578125,5.609374523162842,10.802397727966309,-2.953939437866211
1761396689335316200,5.899316162109375,6.562315940856934,13.270594596862793,-1.714457392692566
1761396689354706700,5.918706787109375,8.892327308654785,15.428321838378906,-0.5395814776420593
1761396689374083800,5.938083740234375,14.21157169342041,15.488740921020508,0.010767702013254166
1761396689393447700,5.95744775390625,19.915462493896484,14.831911087036133,-1.1168500185012817
1761396689412838100,5.976838134765625,24.927827835083008,13.523634910583496,-1.8598214387893677
1761396689432215300,5.99621533203125,25.137798309326172,9.882955551147461,2.654836654663086
1761396689451579100,6.0155791015625,13.008580207824707,7.354340553283691,1.5296118259429932
1761396689470969900,6.034969970703125,-1.1096714735031128,6.340381622314453,-2.4233310222625732
1761396689490347000,6.054346923828125,-3.2039895057678223,3.493520975112915,-1.2323036193847656
1761396689509710600,6.073710693359375,-0.1788634955883026,0.4049852192401886,0.7310073375701904
1761396689529101300,6.093101318359375,-0.8321040868759155,-0.9080761671066284,-0.2548356056213379
1761396689548478500,6.112478515625,-4.679164886474609,-1.2095718383789062,-0.6197410821914673
1761396689567842000,6.131842041015625,-7.741977691650391,-1.3076776266098022,-0.7932206988334656
1761396689587232800,6.151232666015625,-8.421539306640625,-1.4739787578582764,-1.1395817995071411
1761396689606610000,6.17060986328125,-6.570691108703613,-1.4847464561462402,-1.4644074440002441
1761396689625973800,6.189973876953125,-3.700500249862671,-0.9589236974716187,-1.604387640953064
1761396689645364200,6.2093642578125,-1.5290136337280273,0.14715859293937683,-2.108675003051758
1761396689664741600,6.22874169921875,0.7830511927604675,1.7515461444854736,-1.4871392250061035
1761396689684105200,6.248105224609375,6.544369697570801,3.5844483375549316,-0.21176479756832123
1761396689703496000,6.267495849609375,13.268799781799316,6.642475605010986,0.908674418926239
1761396689722873000,6.286873046875,18.46601104736328,10.799407005310059,0.828514814376831
1761396689742236700,6.306236572265625,23.1044979095459,13.652249336242676,1.059422254562378
1761396689761627400,6.32562744140625,29.67638397216797,14.102100372314453,6.156134605407715
1761396689781004500,6.345004638671875,34.455448150634766,13.1096773147583,11.696117401123047
1761396689800368000,6.3643681640625,35.018959045410156,12.541979789733887,10.853245735168457
1761396689819758800,6.3837587890625,27.74956512451172,12.148959159851074,6.068198204040527
1761396689839136000,6.403135986328125,18.579669952392578,11.281560897827148,4.806582450866699
1761396689858499800,6.422499755859375,10.125228881835938,9.872187614440918,4.676173686981201
1761396689877890300,6.441890380859375,3.6610186100006104,7.9758758544921875,4.11505651473999
1761396689897267500,6.461267333984375,-0.529412031173706,5.934798240661621,6.172286033630371
1761396689916631300,6.48063134765625,-4.944767951965332,3.707080364227295,7.89631462097168
1761396689936021800,6.500021728515625,-9.568299293518066,1.726421594619751,7.131209850311279
1761396689955399200,6.519399169921875,-10.579865455627441,-0.5413761138916016,4.195216178894043
1761396689974762800,6.5387626953125,-8.195417404174805,-1.9950158596038818,0.8536394834518433
1761396689994153500,6.558153564453125,-5.446662425994873,-2.169093608856201,-0.7603194117546082
1761396690013530600,6.577530517578125,-5.095515727996826,-1.825723648071289,-1.7258232831954956
1761396690032894200,6.596894287109375,-6.3499531745910645,-1.3926228284835815,-2.245664119720459
1761396690052285000,6.616284912109375,-5.803791522979736,-1.0378868579864502,-2.1876380443573
1761396690071662000,6.635662109375,-3.197409152984619,0.06819544732570648,-1.664208173751831
1761396690091025700,6.655025634765625,1.9866410493850708,2.437688112258911,-0.16689938306808472
1761396690110416400,6.67441650390625,12.832109451293945,7.235297679901123,0.4618147611618042
1761396690129793500,6.69379345703125,27.25783920288086,11.944971084594727,5.991029739379883
1761396690149157400,6.713157470703125,36.28595733642578,11.582457542419434,14.702698707580566
1761396690168548000,6.732548095703125,37.96213150024414,11.624332427978516,14.034502983093262
1761396690187925200,6.75192529296875,36.45943832397461,10.619945526123047,9.047860145568848
1761396690207288800,6.771288818359375,28.76412010192871,9.038289070129395,4.890331268310547
1761396690226679600,6.790679443359375,16.657634735107422,7.578667640686035,1.8849459886550903
1761396690246056700,6.810056640625,6.983452796936035,6.186044692993164,0.6664010882377625
1761396690265420300,6.829420166015625,0.615553617477417,4.977071285247803,1.8436698913574219
1761396690284811000,6.84881103515625,-3.606581926345825,3.6083765029907227,2.981456995010376
1761396690304188200,6.868188232421875,-6.2189459800720215,2.0309081077575684,1.6588243246078491
1761396690323552000,6.887552001953125,-5.947958946228027,0.5874379873275757,-0.4504488706588745
1761396690342942500,6.9069423828125,-4.092324733734131,-0.08733802288770676,-1.8963119983673096
1761396690362319600,6.926319580078125,-2.486740827560425,0.12921242415905,-1.8903298377990723
1761396690381696800,6.94569677734375,-2.964108943939209,0.6161518096923828,-1.1180464029312134
1761396690401074200,6.96507421875,-4.706682205200195,1.5517455339431763,-0.3116651475429535
1761396690420451300,6.984451416015625,-5.304289817810059,2.5986053943634033,0.6675975322723389
1761396690439815000,7.00381494140625,-1.2538390159606934,4.756333351135254,2.854637384414673
1761396690459205600,7.02320556640625,6.786643028259277,7.88913631439209,3.1483564376831055
1761396690478582800,7.042582763671875,21.725034713745117,11.01296615600586,6.340980052947998
1761396690497946400,7.0619462890625,32.7356071472168,12.421142578125,9.103493690490723
1761396690517337000,7.081337158203125,33.361331939697266,13.655241012573242,6.38165807723999
1761396690536714200,7.10071435546875,30.206993103027344,12.64188003540039,8.538787841796875
1761396690556077800,7.120077880859375,27.622146606445312,9.6466646194458,11.745768547058105
1761396690575468500,7.139468505859375,21.979869842529297,6.87816858291626,7.701898097991943
1761396690594845700,7.158845703125,14.997015953063965,5.13739013671875,2.7278177738189697
1761396690614209500,7.17820947265625,8.303692817687988,3.8356947898864746,-0.09990034252405167
1761396690633600000,7.19760009765625,2.881556749343872,2.406581401824951,-0.8273184299468994
1761396690652977400,7.216977294921875,-0.9672985672950745,1.0235298871994019,0.028115665540099144
1761396690672341000,7.236341064453125,-3.061018466949463,-0.2727817893028259,1.160519003868103
1761396690691731700,7.255731689453125,-3.1722846031188965,-1.4063814878463745,1.828116536140442
1761396690711108900,7.27510888671875,-2.8002007007598877,-1.913659930229187,0.9146564602851868
1761396690730472400,7.294472412109375,-2.3431715965270996,-2.214557409286499,-0.5581258535385132
1761396690749863200,7.31386328125,-1.8418751955032349,-2.4574289321899414,-1.604387640953064
1761396690769240300,7.333240234375,-1.8233308792114258,-3.0311081409454346,-1.9591234922409058
1761396690788617500,7.352617431640625,-2.334796667098999,-3.332005500793457,-1.6564314365386963
1761396690807994600,7.37199462890625,-2.791825771331787,-2.3611178398132324,-1.4973087310791016
1761396690827371800,7.391371826171875,-0.544965386390686,0.625723123550415,-3.1268210411071777
1761396690846735600,7.410735595703125,4.599603176116943,5.217549800872803,-3.572484254837036
1761396690866126000,7.4301259765625,9.726225852966309,11.59561824798584,-0.054436713457107544
1761396690885503500,7.44950341796875,19.823339462280273,14.879767417907715,8.69372272491455
1761396690904867000,7.4688671875,34.61457061767578,15.352948188781738,12.04487133026123
1761396690924257800,7.4882578125,38.83491516113281,14.425729751586914,8.420342445373535
1761396690943635000,7.507635009765625,32.33780288696289,15.168102264404297,2.9599215984344482
1761396690962998500,7.52699853515625,20.975482940673828,15.014962196350098,3.8009986877441406
1761396690982389200,7.54638916015625,9.394221305847168,13.61336612701416,6.111867427825928
1761396691001766400,7.565766357421875,0.5742774605751038,10.521241188049316,6.132206439971924
1761396691021130000,7.5851298828125,-1.5607185363769531,6.422934055328369,3.730410575866699
1761396691040520700,7.604520751953125,-0.2267199456691742,2.9383862018585205,0.7130611538887024
1761396691059897900,7.62389794921875,0.1543370634317398,0.35114672780036926,-0.4133601188659668
1761396691079261700,7.64326171875,-2.307279348373413,-1.6031911373138428,-0.5258227586746216
1761396691098652400,7.66265234375,-5.002793788909912,-2.5363919734954834,-0.16271193325519562
1761396691118029600,7.682029541015625,-6.493522644042969,-2.9306094646453857,-0.43190449476242065
1761396691137393200,7.70139306640625,-7.722835063934326,-2.82951283454895,-0.5246263742446899
1761396691156783900,7.720783935546875,-7.75334358215332,-2.2654049396514893,-0.4911268353462219
1761396691176161000,7.7401611328125,-5.743372440338135,-1.4374881982803345,-1.9363917112350464
1761396691195524600,7.759524658203125,-1.5104693174362183,0.4378865361213684,-3.1304101943969727
1761396691214915300,7.778915283203125,5.766104221343994,3.940380573272705,-0.3326023519039154
1761396691234292500,7.79829248046875,16.861024856567383,9.002396583557129,0.8955138921737671
1761396691253656000,7.817656005859375,22.197616577148438,15.702300071716309,-2.313859462738037
1761396691273046800,7.837046875,28.525436401367188,16.771892547607422,5.661418437957764
1761396691292424000,7.856423828125,40.81258010864258,14.910874366760254,10.794621467590332
1761396691311787800,7.875787841796875,40.3896484375,14.569896697998047,4.377668857574463
1761396691331178500,7.895178466796875,29.542984008789062,15.31167221069336,0.6329016089439392
1761396691350555600,7.9145556640625,16.955541610717773,14.132608413696289,6.0472612380981445
1761396691369919200,7.933919189453125,5.8923258781433105,11.860025405883789,6.701099872589111
1761396691389310000,7.95331005859375,-0.15194423496723175,8.642875671386719,4.219144344329834
1761396691408687000,7.97268701171875,-0.7417750358581543,4.274777889251709,3.0628130435943604
1761396691428050700,7.99205078125,-1.090528964996338,-0.18005990982055664,0.7836494445800781
1761396691447441400,8.01144140625,-1.7270197868347168,-3.4402806758880615,-1.1258230209350586
1761396691466818600,8.030818603515625,-2.727219581604004,-5.127819061279297,-0.9762716293334961
1761396691486182100,8.05018212890625,-5.065605640411377,-5.373681545257568,-0.5186443328857422
1761396691505572900,8.06957275390625,-9.09392261505127,-4.696512699127197,1.0480563640594482
1761396691524950000,8.088949951171875,-8.866005897521973,-3.597010612487793,0.4217349886894226
1761396691544313900,8.10831396484375,-3.0035905838012695,-2.365305185317993,-1.797009825706482
1761396691563704300,8.127704345703124,2.1571295261383057,-0.19621145725250244,-1.827518343925476
1761396691583081700,8.147081787109375,3.914059638977051,3.3296127319335938,-0.527019202709198
1761396691602445300,8.1664453125,7.53858757019043,7.8628153800964355,-1.5445669889450073
1761396691621836000,8.1858359375,9.586843490600586,14.298910140991211,-2.283949136734009
1761396691641213200,8.205213134765625,9.849455833435059,20.047666549682617,-1.4937195777893066
1761396691660576800,8.22457666015625,23.37129783630371,19.65105628967285,-2.1984057426452637
1761396691679967500,8.243967529296874,38.54777526855469,16.679170608520508,-4.914857864379883
1761396691699344600,8.2633447265625,38.44009780883789,15.65384578704834,-4.786841869354248
1761396691718708200,8.282708251953125,26.617759704589844,15.043676376342773,-2.7349963188171387
1761396691738099000,8.302098876953124,12.557533264160156,12.620943069458008,3.5443685054779053
1761396691757476000,8.32147607421875,-0.04426721855998039,9.831509590148926,6.786045074462891
1761396691776840000,8.34083984375,-7.073781967163086,6.570092678070068,5.54177713394165
1761396691796230400,8.36023046875,-9.198010444641113,1.9956140518188477,3.985246181488037
1761396691815607800,8.37960791015625,-5.6153564453125,-2.816950559616089,0.768694281578064
1761396691834971400,8.398971435546875,-1.2861422300338745,-5.669793128967285,-3.2931220531463623
1761396691854362000,8.418362060546874,-1.3902299404144287,-6.563512325286865,-4.264608383178711
1761396691873739300,8.4377392578125,-4.329214572906494,-5.72422981262207,-1.944766640663147
1761396691893102800,8.457102783203124,-6.728617191314697,-3.802793502807617,-0.4893322288990021
1761396691912493600,8.47649365234375,-7.340581893920898,-1.5792629718780518,0.010767702013254166
1761396691931870700,8.49587060546875,-4.238885402679443,0.5096712112426758,-0.06400800496339798
1761396691951234600,8.515234619140625,2.347957134246826,4.035495281219482,0.1333998590707779
1761396691970625000,8.534625,7.916653633117676,8.35573673248291,0.4420739710330963
1761396691990002200,8.554002197265625,9.130413055419922,12.788440704345703,-0.6957131624221802
1761396692009366000,8.573365966796874,15.686148643493652,17.431114196777344,-2.5393829345703125
1761396692028756700,8.5927568359375,10.106684684753418,18.96969985961914,3.249453067779541
1761396692048134000,8.6121337890625,9.859027862548828,19.354944229125977,-0.10648060590028763
1761396692067497500,8.63149755859375,14.82114315032959,17.470596313476562,-6.198009014129639
1761396692086888200,8.65088818359375,18.482759475708008,15.846467971801758,-6.652645111083984
1761396692106265300,8.670265380859375,13.76052474975586,13.765908241271973,-4.682155609130859
1761396692125629000,8.68962890625,6.096911907196045,11.4921293258667,1.4380863904953003
1761396692145019600,8.70901953125,1.5188441276550293,9.493523597717285,3.572484254837036
1761396692164396800,8.728396728515625,3.015554666519165,6.809973239898682,-0.29431718587875366
1761396692183760600,8.7477607421875,7.449455261230469,4.498506546020508,-2.042274236679077
1761396692203151000,8.767151123046874,9.022137641906738,2.008176326751709,-1.48055899143219
1761396692222528300,8.7865283203125,6.119045734405518,1.3627125024795532,-0.16031911969184875
1761396692241892000,8.80589208984375,2.6183462142944336,0.6837490797042847,1.0755738019943237
1761396692261282800,8.82528271484375,1.3160524368286133,0.5018945336341858,0.8446664214134216
1761396692280660000,8.844659912109375,1.9417755603790283,0.5784648656845093,0.4384847581386566
1761396692300037000,8.864037109375,1.882553219795227,0.9696913957595825,0.9750752449035645
1761396692319414300,8.883414306640624,1.0863415002822876,2.0679969787597656,0.14297115802764893
1761396692338791400,8.90279150390625,0.2793620526790619,4.513461589813232,-1.7796618938446045
1761396692358155000,8.922155029296874,1.4249259233474731,8.166105270385742,-3.31465744972229
1761396692377545700,8.941545654296876,4.466801643371582,11.550154685974121,-4.137788772583008
1761396692396923000,8.9609228515625,8.065009117126465,13.754542350769043,-3.397209882736206
1761396692416286500,8.980286376953124,10.360921859741211,15.113665580749512,0.5916253924369812
1761396692435677200,8.99967724609375,8.58903694152832,16.365711212158203,-0.7310073375701904
1761396692455054300,9.019054443359375,8.796614646911621,16.56551170349121,-5.601597785949707
1761396692474418200,9.038418212890624,11.61535930633545,14.82652759552002,-5.44008207321167
1761396692493808600,9.05780859375,16.38245964050293,11.967103958129883,-2.0919251441955566
1761396692513186000,9.07718603515625,18.37986946105957,9.139984130859375,1.3860424757003784
1761396692532549600,9.096549560546874,12.677772521972656,6.259026050567627,4.353740692138672
1761396692551940400,9.1159404296875,4.60139799118042,4.531407833099365,1.950150489807129
1761396692571317500,9.1353173828125,-0.8398807644844055,3.796213150024414,-1.7407784461975098
1761396692590681000,9.15468115234375,1.134796142578125,3.245863914489746,-2.423929452896118
1761396692610071800,9.17407177734375,4.150351047515869,2.179263114929199,-0.020338991656899452
1761396692629449000,9.193448974609375,5.138586521148682,1.217348575592041,1.5032907724380493
1761396692648826000,9.212826171875,5.341378211975098,1.6666009426116943,0.98703932762146
1761396692668203300,9.232203369140626,4.66361141204834,2.245664119720459,0.04666004329919815
1761396692687580400,9.251580322265625,2.0614166259765625,3.4055848121643066,-0.15912270545959473
1761396692706944300,9.2709443359375,1.6013965606689453,4.252045631408691,-0.3678964674472809
1761396692726335000,9.2903349609375,5.409573554992676,5.578866004943848,-2.026122570037842
1761396692745712000,9.309712158203125,6.62632417678833,7.096513748168945,-2.5220351219177246
1761396692765075700,9.32907568359375,6.366104602813721,8.726025581359863,-1.8400806188583374
1761396692784466400,9.348466552734376,5.442475318908691,10.62233829498291,-2.609373092651367
1761396692803843600,9.367843505859375,1.877767562866211,11.982657432556152,-1.5948163270950317
1761396692823207200,9.387207275390624,1.5278172492980957,13.575678825378418,-3.661616802215576
1761396692842598000,9.406597900390626,6.479165554046631,14.065011024475098,-6.698707103729248
1761396692861975000,9.42597509765625,9.863214492797852,14.057234764099121,-5.694319725036621
1761396692881339000,9.4453388671875,12.753745079040527,13.651651382446289,-4.143770694732666
1761396692900729300,9.464729248046876,13.95254898071289,11.633305549621582,-1.323829174041748
1761396692920106500,9.4841064453125,11.211570739746094,8.869595527648926,1.6265212297439575
1761396692939470300,9.50347021484375,6.422934055328369,6.286543369293213,1.7832510471343994
1761396692958861000,9.522861083984376,4.43031120300293,4.347758769989014,-0.34995031356811523
1761396692978238200,9.54223828125,5.84147834777832,3.468994617462158,-2.528017044067383
1761396692997601800,9.561601806640626,6.669992923736572,2.898306369781494,-1.0977073907852173
1761396693016992500,9.580992431640626,4.776073932647705,2.6877379417419434,0.4570291340351105
1761396693036369700,9.60036962890625,3.014956474304199,2.8971099853515625,0.1866401731967926
1761396693055733200,9.619733154296876,2.644068956375122,3.1746773719787598,-0.7304090857505798
1761396693075124000,9.6391240234375,2.018345832824707,3.1351959705352783,-0.28953152894973755
1761396693094501000,9.658501220703124,2.4029922485351562,3.1519455909729004,-0.40259242057800293
1761396693113878300,9.677878173828125,4.362713813781738,3.4229328632354736,-1.3148560523986816
1761396693133255400,9.69725537109375,4.59721040725708,3.914059638977051,-1.5595221519470215
1761396693152632600,9.716632568359374,5.872584819793701,5.149952411651611,-2.4783661365509033
1761396693171996400,9.735996337890626,6.537789821624756,6.962515830993652,-1.898106575012207
1761396693191387100,9.75538720703125,3.727419376373291,9.814760208129883,-0.5970092415809631
1761396693210764300,9.774764404296874,-0.9332008361816406,10.442875862121582,0.024526432156562805
1761396693230127900,9.7941279296875,0.4534398913383484,11.80618667602539,-1.689931035041809
1761396693249518600,9.8135185546875,5.679962635040283,12.748360633850098,-6.798607349395752
1761396693268895700,9.832895751953124,10.146764755249023,12.251252174377441,-6.823731899261475
1761396693288259300,9.85225927734375,12.172886848449707,12.331411361694336,-5.032105922698975
1761396693307650000,9.871650146484376,8.459824562072754,12.635299682617188,-2.7631118297576904
1761396693327027200,9.891027099609374,5.173282623291016,11.638091087341309,0.6586244106292725
1761396693346390800,9.910390869140626,6.578467845916748,10.16291618347168,0.8141579031944275
1761396693365781500,9.929781494140625,10.695319175720215,8.100900650024414,-1.6588243246078491
