time,seconds_elapsed,z,y,x
1761299094685169400,0.07616943359375,-0.5542179368376732,-0.09034837944507598,-0.47676959017179904
1761299094705292500,0.09629248046875,0.23317630318999288,0.22929098618924618,-0.09986629550531506
1761299094725416400,0.11641650390625,0.3745446757763624,0.24570436085164546,-0.0840606774777174
1761299094745539300,0.136539306640625,0.03968611370027065,0.14375205285251139,0.22488308835281057
1761299094765662500,0.156662353515625,-0.2344528989970684,0.12267828516364097,0.2572614180566743
1761299094785785300,0.176785400390625,-0.07476034969091415,0.1451338625997305,0.21493763106288388
1761299094805908500,0.196908447265625,0.5382692570775747,0.24414485644996164,0.2734332025155425
1761299094826032600,0.21703271484375,0.7295803489625453,0.23077274917960167,0.27987136407056823
1761299094846155500,0.237155517578125,0.2968190465390682,0.09266834682524204,0.20772866779845206
1761299094866278700,0.257278564453125,0.13385960439145564,-0.03447334748804569,-0.037266229609586296
1761299094886401500,0.277401611328125,-0.025439561682939527,-0.0845697960436344,-0.08885576626714319
1761299094906525700,0.297525634765625,-0.07910802350640296,-0.03636135319173336,0.11015066589340566
1761299094926648600,0.317648681640625,-0.12968962523043154,0.08589140003621577,0.21150480706999078
1761299094946771700,0.337771728515625,-0.02908113305568695,0.17829495844542978,0.1284865513172932
1761299094966894600,0.35789453125,-0.025092940202355384,0.20032266585826872,0.15580173414638265
1761299094987018500,0.3780185546875,-0.5841325981080532,0.05890811604261398,0.11291916249236092
1761299095007141600,0.3981416015625,-0.5581891785562038,0.02076221752166748,0.016118848695233463
1761299095027264500,0.418264404296875,-0.10184066431820392,-0.08359130640029906,0.01721941208196804
1761299095047387600,0.4383876953125,0.017249240964651108,-0.03283434810936451,0.18585949368188157
1761299095067511600,0.458511474609375,-0.04540858300030231,0.0931932474821806,0.25583050847072153
1761299095087634700,0.478634765625,0.05629121154248714,0.19722996053993702,0.24327359004076568
1761299095107757600,0.498757568359375,0.11665595613420009,0.17543547736108303,0.24597453782884401
1761299095127880400,0.51888037109375,0.0019815292060375213,0.2833604300290346,0.44937790804039685
1761299095148004600,0.539004638671875,-0.3481809849858284,0.22679624676406382,0.724536582641676
1761299095168127500,0.55912744140625,-0.5428934097468853,0.12076046884357929,0.6768956374794244
1761299095188250600,0.579250732421875,-0.6300730960279702,0.014200374788045882,0.5860873123724013
1761299095208373500,0.59937353515625,-0.6433516797959804,-0.04643909509181976,0.3997348292754963
1761299095228497400,0.619497314453125,-0.46196226246654987,-0.11249649836719035,0.12424594547231681
1761299095248620500,0.63962060546875,-0.19836919370293615,-0.2625800923287868,0.046648554857727134
1761299095268743400,0.659743408203125,-0.15304302828907965,-0.21591186465620993,-0.024525405980087817
1761299095288866600,0.679866455078125,-0.5883738889396191,-0.08584756089448928,-0.1388772498903796
1761299095308990500,0.699990478515625,-0.6794798087537288,0.09458090244829655,-0.24231753142494708
1761299095329113600,0.720113525390625,-0.24002163904011248,-0.011640168911218643,-0.26398791330009697
1761299095349236500,0.740236572265625,0.10415361743569373,-0.17942016308307646,-0.20585553087033331
1761299095369359600,0.760359619140625,0.4241524640321731,-0.14848141946196555,-0.2637585980562493
1761299095389483500,0.7804833984375,0.6826642840087414,-0.014482698860764502,-0.15589666415452957
1761299095409606400,0.8006064453125,0.7859323507815599,-0.012293079861998558,-0.02468240490639582
1761299095429729500,0.8207294921875,0.45011225019693374,-0.10287059188783168,-0.10379293089713901
1761299095449852400,0.840852294921875,0.07245967153310776,0.07981471047103404,0.015568886662274599
1761299095469975600,0.8609755859375,-0.039973113948106764,0.2976648497134447,0.12126480163652449
1761299095490099500,0.881099365234375,-0.06199439162015914,0.29641163478195665,0.1412737165728584
1761299095510222300,0.901222412109375,-0.14596154559552668,0.24110826523303985,0.20844578482555223
1761299095530345500,0.921345458984375,-0.19970716430842875,0.22660744619369505,0.3133370506197214
1761299095550468400,0.94146826171875,-0.3554524372935295,0.1554290466427803,0.30419383135708045
1761299095570592800,0.9615927734375,-0.4812006314218044,0.025492753174901007,0.1849792402486317
1761299095590715600,0.981715576171875,-0.4604781613886356,0.02570610366463661,0.03625321664214134
1761299095610839000,1.001839111328125,-0.32800036674439903,-0.00029810616374015806,0.10471795505387708
1761299095630962200,1.021962158203125,-0.3255009511440992,0.021089549779891966,0.2662674573383294
1761299095651086000,1.042086181640625,-0.20991934624314307,0.08442834174633025,0.2562527159381658
1761299095671209200,1.062209228515625,-0.012315876215696334,-0.04813888474702835,0.17012089474219827
1761299095691332000,1.08233203125,-0.11035597920715808,-0.046265492090582845,0.21913568554092197
1761299095711455200,1.102455322265625,-0.23973113166093826,0.05121463893055916,0.2936790680129081
1761299095731579100,1.1225791015625,-0.14085691593289373,0.13565525563657282,0.32321426497902717
1761299095751702000,1.142701904296875,0.17665303645730018,0.10535656348466872,0.24639117407202718
1761299095771825200,1.1628251953125,0.2997644523411989,-0.04115092555582523,0.1646875263155438
1761299095791948000,1.182947998046875,0.226165547645092,-0.04022738097012043,0.0712832846974954
1761299095812072000,1.203072021484375,-0.11375731208324431,-0.13545242654085157,-0.04033746288162656
1761299095832195000,1.223195068359375,-0.16706453937888144,-0.09869885916113853,0.04190959843602031
1761299095852318000,1.24331787109375,0.2497679570287466,-0.11583002670407294,0.21868545755539087
1761299095872441000,1.263441162109375,0.5468021076232195,-0.15573124445974826,0.07563850249862297
1761299095892565000,1.28356494140625,0.1238186873704195,-0.19663491725623605,-0.1387962570760399
1761299095912688000,1.303688232421875,-0.5445978755772114,0.1198316635608673,0.2494525161377154
1761299095932811000,1.32381103515625,-0.9868985752403735,0.43560617046058175,0.5083130947530269
1761299095952934100,1.34393408203125,-0.8542501002043486,0.5251999321460723,0.3863041236856952
1761299095973057000,1.36405712890625,-0.23137714481353758,0.2445429158568382,0.20234266391117126
1761299095993181200,1.38418115234375,0.24251053324639796,0.07517068405747414,0.0494873767465353
1761299096013304300,1.40430419921875,0.714571580401063,0.17288988453149795,0.02091801543815527
1761299096033427000,1.424427001953125,0.9049743252694606,0.12514964371323584,0.12458251134976744
1761299096053550000,1.444550048828125,0.43591129088699815,0.211639009642601,0.22591834968468172
1761299096073674200,1.46467431640625,-0.15224340234398842,0.3242132494211197,0.24595482848137615
1761299096093797000,1.484797119140625,-0.4649743037641048,0.299503171056509,0.13379196424903347
1761299096113920300,1.504920166015625,-0.49726796912550925,0.23852409395873544,0.06102994876848533
1761299096134043100,1.525043212890625,-0.5442383946150541,0.16684183653891085,0.2271616277440451
1761299096154167300,1.545167236328125,-0.4224100042790174,0.13382570212185382,0.25507453900426624
1761299096174290200,1.565290283203125,-0.4562245955973863,-0.10005436542332172,0.03488238494666293
1761299096194413300,1.585413330078125,-0.4004775739341974,-0.1675456008940935,-0.13368888746704904
1761299096214536200,1.6055361328125,-0.1974479872047901,-0.17758301078379155,-0.0855215803431347
1761299096234660000,1.62566015625,-0.15503390984535217,-0.2432972997099161,-0.0161839132880792
1761299096254783200,1.645783203125,-0.1359749891102314,-0.1944108114659786,-0.04812587913498282
1761299096274906000,1.665906005859375,-0.1529144334733486,-0.11206979738771915,0.18053652682714164
1761299096295029200,1.686029296875,-0.041430911540985105,-0.06688450174927711,0.3270481805860996
1761299096315153200,1.706153076171875,0.2742185076743364,-0.17580547971725463,0.4163546497628092
1761299096335276000,1.726276123046875,0.3738216221988201,-0.32336043198406694,0.4141168077081442
1761299096355399200,1.746399169921875,0.1424275262504816,-0.3085264354676008,0.19325813429951666
1761299096375522000,1.76652197265625,0.22001871545314788,-0.2282043599963188,0.09645331785720772
1761299096395646200,1.786646240234375,0.6302776786893606,-0.14003741624355315,0.22846450876984745
1761299096415769000,1.80676904296875,0.7198901450753211,-0.06063888535797596,0.1702106005859561
1761299096435892200,1.826892333984375,0.1570107628762722,-0.08138181365728378,0.14836108101792633
1761299096456015000,1.84701513671875,-0.16442717661261558,0.155175948664546,0.1989320334837772
1761299096476139000,1.867138916015625,-0.05397533581554889,0.2228898869752884,0.13106447551390155
1761299096496262100,1.88726220703125,0.4145756573915481,0.21156769797205924,0.22032960803322493
1761299096516385000,1.907385009765625,0.4405313519030809,0.23522329884767532,0.25429648557016626
1761299096536508200,1.927508056640625,0.15816811621785162,0.25635434968173504,0.23089613809725268
1761299096556631000,1.947631103515625,0.09100245943963527,0.10306289958953857,0.23197781412042676
1761299096576755000,1.9677548828125,-0.054224926662445064,-0.23249065901339053,0.11387675547813995
1761299096596878000,1.987878173828125,-0.57856210449934,-0.3575397649616003,-0.03783363825097913
1761299096617000700,2.008000732421875,-0.46179158207476134,-0.17600947785675525,0.22378530144505202
1761299096637123800,2.028123779296875,-0.001260229194164276,0.06419745462238788,0.40423520943466573
1761299096657247700,2.048247802734375,0.17550678903162478,0.20717910762429237,0.3480084048978984
1761299096677371000,2.068370849609375,0.25209143154025077,0.18602058426141738,0.1905169458325952
1761299096697493800,2.08849365234375,0.47620004665553567,-0.03979366572797298,-0.13328243469116277
1761299096717617000,2.108616943359375,0.7449433377891779,-0.18236673792898653,-0.34651531679593023
1761299096737740800,2.12874072265625,0.509245407167077,-0.29072072966396806,-0.2798500107552856
1761299096757863700,2.14886376953125,-0.013497194954752921,-0.23287352085113525,-0.18252090557739137
1761299096777986800,2.16898681640625,-0.1767658491820097,-0.030658173114061354,-0.027790015532914547
1761299096798109700,2.189109619140625,-0.2238911729723215,0.013915128105878829,0.14007363833440467
1761299096818233900,2.20923388671875,-0.40804479431807994,-0.14597908125221729,0.06406275885943323
1761299096838356700,2.229356689453125,-0.35436873371005057,-0.24128712893128393,-0.1775430440995842
1761299096858479600,2.249479736328125,-0.13428572084903717,-0.1803951455950737,-0.16437372939232736
1761299096878602800,2.269602783203125,-0.16608371164798735,0.004056581914424896,-0.015237828077003359
1761299096898726700,2.2897265625,-0.47230654634833336,0.13514847515821457,-0.10185407178904861
1761299096918849800,2.309849853515625,-0.36383097406029696,0.28738544776141645,0.0012821852976456283
1761299096938972700,2.32997265625,0.25121698679327964,0.40217970167696476,0.2446231414861977
1761299096959095800,2.350095703125,0.7411573895096778,0.30470015517771243,0.567690508807823
1761299096979218700,2.37021875,0.741336253207922,0.14853344191014767,0.6588937515165656
1761299096999342600,2.390342529296875,0.36991233980059623,-0.021392916640639303,0.4906841337557882
1761299097019465700,2.4104658203125,-0.31323417476713655,-0.004544073170423508,0.3451446129646152
1761299097039588600,2.430588623046875,-0.6958885072410106,0.12473872482478618,0.37790808779485524
1761299097059711700,2.450711669921875,-0.6137830554842949,0.08213935402631758,0.7089976527262478
1761299097079835600,2.470835693359375,-0.5189788656741381,0.04449205267727375,0.873339416077733
1761299097099958800,2.490958740234375,-0.39021863024830816,0.02340659455060959,0.6334750134259461
1761299097120081700,2.51108154296875,-0.2886281412988901,-0.11606208189427852,0.3534398553621024
1761299097140204500,2.53120458984375,-0.22570728248357771,-0.24760814864635466,0.014036772591015323
1761299097160328700,2.55132861328125,0.006414543217420578,-0.16289046856462955,-0.031446104054781605
1761299097180451600,2.57145166015625,0.3552905247300863,-0.02551262691915035,0.07508979170783422
1761299097200574700,2.59157470703125,0.45271103451848027,-0.04317629390358925,0.0816077861665748
1761299097220697600,2.611697509765625,0.38543022692799567,0.01348375095129013,0.06939890485615469
1761299097240821800,2.63182177734375,0.29198855764269827,-0.04185527443289756,0.018057954398496074
1761299097260945000,2.65194482421875,0.40439211702942846,0.03383621862828731,0.06259152639624663
1761299097281067800,2.67206787109375,0.4326940824061632,0.05839899747669697,0.32036190775521095
1761299097301191000,2.69219091796875,0.36330139722824095,0.11078735636174677,0.3516382127676159
1761299097321313800,2.712313720703125,0.5054945302009582,0.09136194040179252,0.15678155723027884
1761299097341437700,2.732437744140625,0.4600374318838119,-0.041160862427949904,0.11051164469290524
1761299097361560800,2.752560791015625,0.08447042732238769,0.014953238981962203,0.099722795381397
1761299097381683700,2.77268359375,-0.3465057452499866,-0.008221884900331497,0.1268694532431662
1761299097401806800,2.792806884765625,-0.7003665294378996,-0.008611176478862762,-0.011185520478896796
1761299097421930800,2.8129306640625,-0.9402484677463769,0.04380523945689201,-0.023733639114466496
1761299097442054000,2.833053955078125,-0.9873130012601613,0.08696925840079783,-0.0772524587675929
1761299097462176800,2.8531767578125,-0.7245353405326604,-0.0022504092752933503,-0.16083043076228348
1761299097482300000,2.8732998046875,-0.47331133947670456,-0.04542378056943416,-0.055254963829927145
1761299097502423800,2.893423828125,-0.3792892399549484,0.035600890213251114,-0.072494414052926
1761299097522546700,2.913546630859375,-0.2309633033156395,0.07846388038396834,-0.2646381939023733
1761299097542669800,2.933669921875,0.060824178797006606,0.07265022566914558,-0.3588997282031923
1761299097562792700,2.953792724609375,0.2006675337731838,0.1774134994357824,-0.20277126458678393
1761299097582916900,2.973916748046875,-0.06372048476040362,0.30923078434467316,-0.09674883933821693
1761299097603040000,2.9940400390625,-0.07354045250713825,0.4695815052986145,-0.16736969633791596
1761299097623163000,3.014162841796875,0.2813730556041002,0.4363672179609537,-0.30876053648442026
1761299097643286000,3.0342861328125,0.39894963371455666,0.2508002226859331,-0.37580647587310523
1761299097663410000,3.054409912109375,0.336215821903944,0.24127894562482832,-0.4355841778244823
1761299097683533000,3.074532958984375,0.39384383500814435,0.2012427033126354,-0.30276732395160944
1761299097703656000,3.094656005859375,0.4244838879436254,0.22467677039206027,0.01231874402621761
1761299097723779000,3.114779052734375,0.1991904469579458,0.2574702019691467,0.1506517675046809
1761299097743902000,3.13490185546875,0.06995791784524917,0.2179261270880699,0.035684001919440926
1761299097764025900,3.15502587890625,0.007594692912697792,0.02782791812419891,0.018052538437861948
1761299097784149000,3.17514892578125,-0.1335170745640993,-0.051211716321110726,0.06392066524131224
1761299097804271900,3.19527197265625,-0.334043154039979,-0.11597265004515647,0.14219724289225413
1761299097824395000,3.21539501953125,-0.23183891710638999,-0.14963935732543468,0.13070223633907735
1761299097844519000,3.235518798828125,-0.19546762704253196,-0.1579728859066963,0.20718807638203723
1761299097864641800,3.255641845703125,-0.26125848833620546,-0.0763923348069191,0.2679810197905637
1761299097884765000,3.275764892578125,-0.140199913328886,-0.04907996498942375,0.3079819533273577
1761299097904887800,3.2958876953125,-0.03350187210738659,-0.04781739770770073,0.3605526099767536
1761299097925012200,3.31601220703125,-0.3408604328393936,0.04826163434386253,0.42885194696001705
1761299097945134800,3.336134765625,-0.4091255752921104,0.16555179672837256,0.34191622550264
1761299097965258000,3.356258056640625,-0.15982757386267185,0.09164952517151832,0.27202357317963616
1761299097985380900,3.376380859375,0.012782324683666229,0.04730243392288685,0.244598646365758
1761299098005505000,3.396505126953125,-0.027696985220909118,0.006061491996049881,0.22810959438495337
1761299098025628200,3.416628173828125,0.17562603149712086,0.0805576377928257,0.38836533053182065
1761299098045751000,3.4367509765625,0.41454117060005663,0.14245032260417936,0.44045368355698883
1761299098065874200,3.456874267578125,0.5985697042614221,-0.002087327668070793,0.34494576592426746
1761299098085997000,3.4769970703125,0.5911334167808294,-0.10454992327690124,0.2001749096843414
1761299098106121000,3.497120849609375,0.3783224407494068,-0.03686404201686382,0.35792956799678505
1761299098126244000,3.517244140625,0.1907593032211065,0.12274433613717556,0.5749599883541464
1761299098146367000,3.537366943359375,0.004859130468964576,0.12203414204120636,0.7090357197143137
1761299098166490000,3.557489990234375,-0.4456196149528026,0.0087228201597929,0.7295543377384544
1761299098186614000,3.577614013671875,-0.5712865605384111,0.10410217950940132,0.5695669702041893
1761299098206737200,3.597737060546875,-0.46159459819793697,0.041888007658720014,0.42833873674087225
1761299098226860000,3.617860107421875,-0.47495092337727546,-0.026997312518954274,0.362796808706969
1761299098246983200,3.637983154296875,-0.5482885467886924,-0.1028045409142971,0.3064237823662348
1761299098267107000,3.658107177734375,-0.5083434898912906,-0.1581435662984848,0.25942966547384855
1761299098287230000,3.67822998046875,-0.25603520072996616,-0.07699088522195816,0.32178583961110563
1761299098307353000,3.69835302734375,-0.0038648587346076964,-0.08690203838348388,0.26926625556182116
1761299098327476000,3.71847607421875,0.05038637141287326,-0.21168051069676874,0.11469926910847425
1761299098347600000,3.738599853515625,-0.08547989662587642,-0.26549451847076416,0.12297536841407418
1761299098367723000,3.758722900390625,-0.3517962528735399,-0.15113631788492202,0.2510222679387778
1761299098387846000,3.778845947265625,-0.5132710094213485,-0.1165811373323202,0.20198300028592348
1761299098407969000,3.798968994140625,-0.35702246308922764,-0.227085000577569,0.04728288897220045
1761299098428093000,3.819093017578125,-0.14070494024157523,-0.2512356914937496,0.016453889335878193
1761299098448216000,3.839216064453125,-0.08761457056701183,-0.12016074938476085,0.08662844560649245
1761299098468339000,3.8593388671875,-0.19957155523002146,0.016434417450428007,0.24794344501532614
1761299098488462000,3.879462158203125,-0.3835597568809986,0.1811445026576519,0.2989271247342229
1761299098508585000,3.8995849609375,-0.274303263348341,0.2823205655872822,0.18569295974224806
1761299098528708900,3.919708984375,0.051689855226874346,0.2434621348828077,0.02256490129576996
1761299098548832000,3.93983203125,0.32739363302290436,0.17032675604522227,-0.14355583616066722
1761299098568955000,3.959954833984375,0.3447328903585672,0.24206746565401552,-0.040349436447210604
1761299098589078000,3.980078125,0.3466191424965858,0.28330548497140406,-0.053041982221882784
1761299098609200000,4.0002001953125,0.2744265974670648,0.1266454352289438,-0.16505973889511077
1761299098629323300,4.0203232421875,0.09940963777899742,-0.04731880053579807,-0.2014633968586102
1761299098649446100,4.040446044921875,-0.13980360748767853,-0.006440846702456474,-0.08425322264144197
1761299098669570300,4.0605703125,0.12774608994722367,0.030625439888238903,0.04017495666313916
1761299098689693200,4.080693115234375,0.1999666920274496,0.021235680252313614,0.33599947573952377
1761299098709816300,4.10081640625,-0.3191746707320213,0.02682897021472454,0.3710354620790109
1761299098729939200,4.120939208984375,-0.7877028675854205,-0.010987257960438727,0.10994621109617873
1761299098750063000,4.14106298828125,-0.7870686613351107,-0.00847790548801422,-0.04503791392385028
1761299098770186200,4.161186279296875,-0.42180853125452994,0.014521277305483818,-0.000919288535695523
1761299098790309000,4.18130908203125,-0.0854980168044567,-0.05235562565922737,-0.11604795290422625
1761299098810432300,4.201432373046875,0.14404256023168563,-0.10161386982500553,-0.30919297308493404
1761299098830556400,4.221556396484375,0.06145721600353717,-0.037319969090819353,-0.38346005936618893
1761299098850679300,4.24167919921875,0.13717150541841983,0.18340601784884927,-0.3339986938437447
1761299098870802400,4.261802490234375,0.36886487657427786,0.2612047123223543,-0.17358150179116055
1761299098890925000,4.281925048828125,0.6648942340403795,0.26313655716776846,-0.14159723117249085
1761299098911048200,4.302048095703125,0.7078191835314035,0.19950316616892813,-0.22027787784598765
1761299098931172400,4.32217236328125,0.4838146133124828,0.16410393600761888,-0.22741404986884445
1761299098951295500,4.34229541015625,0.5142319634079933,0.2901619267374277,-0.022628171223751267
1761299098971418400,4.36241845703125,0.4847995326966047,0.2711673034101724,0.19580938968490808
1761299098991541500,4.38254150390625,0.38142975911498067,0.3195592861354351,0.25468239788152275
1761299099011665400,4.40266552734375,0.2616097859919071,0.2188105087071657,0.2264131474643014
1761299099031788300,4.422788330078125,0.08041267636418342,0.09376958606541157,0.1378121322763618
1761299099051911400,4.442911376953125,-0.09593173253536223,0.0645844081133604,0.267840752803348
1761299099072034300,4.463034423828125,-0.2921808653444052,0.08667641293406486,0.43941414790879935
1761299099092158200,4.483158203125,-0.4180921410799026,0.0907879399061203,0.4207809417724609
1761299099112281300,4.50328125,-0.5248837058037519,-0.07663315782546996,0.36538631374351677
1761299099132404200,4.523404296875,-0.6163812552839517,-0.1338537591725588,0.34879338126312937
1761299099152527400,4.54352734375,-0.5614186619967222,-0.07415712310075759,0.47919104516506195
1761299099172650200,4.563650146484375,-0.4214145635008812,-0.03679214582443237,0.4735532219411805
1761299099192774400,4.5837744140625,-0.29876433538794517,-0.10987316412627697,0.38220538312997665
1761299099212897300,4.603897216796875,-0.08590425951778888,-0.08666822962760924,0.22544567240532487
1761299099233020400,4.6240205078125,0.10117314032018183,-0.04407411952614784,0.06274515518853441
1761299099253143300,4.644143310546875,0.3519961593598127,-0.0040413843452930445,0.1126704940940719
1761299099273267200,4.66426708984375,0.4533762204289436,0.00045300446450710294,0.2113423830498941
1761299099293390300,4.684390380859375,0.4055862952500581,-0.004105097231268883,0.15133698242302052
1761299099313513200,4.70451318359375,0.3885439750343561,-0.046402854734659195,0.11753038261486216
1761299099333636400,4.72463623046875,0.2821592375457287,0.008563245683908462,0.037772115038800985
1761299099353760300,4.74476025390625,0.13761457301080227,0.09010580286085605,-0.06437548263699282
1761299099373883100,4.764883056640625,0.10515139630138873,0.19771978988349437,0.05872494149543345
1761299099394006300,4.78500634765625,0.1065256072640419,0.2656798119097948,0.28870204678531736
1761299099414129200,4.805129150390625,-0.042353287082910536,0.2598351775348186,0.22802993501117452
1761299099434253300,4.82525341796875,-0.16092881310284138,0.1732446893185377,0.14207963526141829
1761299099454376200,4.845376220703125,-0.07432020470798015,0.13669161294698715,0.2415839199207723
1761299099474499300,4.865499267578125,0.0698784228682518,0.11638356893360614,0.2555857581957243
1761299099494622200,4.885622314453125,-0.11694061829447745,0.07162906592786311,0.33384112866185606
1761299099514745300,4.905745361328125,-0.4826110827416181,0.06047463470697403,0.319846213318035
1761299099534869200,4.925869140625,-0.5804506947249174,0.07387070737481116,0.2950276696102693
1761299099554992000,4.9459921875,-0.4629501044601202,-0.019421908828616143,0.18724314832631497
1761299099575115300,4.966115234375,-0.33121932879090304,-0.2152472632676363,0.03465033888961188
1761299099595238100,4.986238037109375,-0.2624246095061302,-0.24694588534533976,-0.05655002687545493
1761299099615362300,5.0063623046875,-0.3989753526777029,-0.21351415586471556,-0.132589721452957
1761299099635485400,5.0264853515625,-0.46481589833199977,-0.16682020922899246,-0.3054785556716844
1761299099655608300,5.0466083984375,-0.2786883465647697,-0.12196107680499553,-0.33087340143006294
1761299099675731500,5.0667314453125,-0.030436054795980452,-0.018524083206057546,-0.29627460093144325
1761299099695855400,5.08685546875,0.17741759108901023,0.14580547825098036,-0.2213548594277352
1761299099715978500,5.106978515625,0.36944063063561916,0.20121172365248202,-0.1623372551286593
1761299099736101400,5.127101318359375,0.43205519998073577,0.1444751064300537,-0.22675748565625398
1761299099756224500,5.147224609375,0.27756840262413024,0.16679332122206686,-0.22565591762252152
1761299099776347400,5.167347412109375,0.24003625208735466,0.2967319527775049,-0.12824268695828503
1761299099796471300,5.18747119140625,0.1459650527268648,0.30920389633774753,-0.16496975905671715
1761299099816594400,5.207594482421875,0.3685451431006193,0.21967910823523998,-0.031657219204946886
1761299099836717300,5.22771728515625,0.6878256122946739,0.14798632942140102,0.23356552170328795
1761299099856840400,5.24784033203125,0.6164625038266182,0.14458558106720446,0.437103094487451
1761299099876964400,5.26796435546875,0.294299757194519,0.0041594577670097345,0.4290718002557754
1761299099897087200,5.288087158203125,0.03517828088700771,-0.19760171646177768,0.21626922672651708
1761299099917210400,5.30821044921875,-0.22679040154516697,-0.2570528533399105,0.3336491862863302
1761299099937333200,5.328333251953125,-0.40084932985603805,-0.27515841887295245,0.39291809846535325
1761299099957457400,5.34845751953125,-0.38954350746572014,-0.2849590973973274,0.5801379024486989
1761299099977580300,5.368580322265625,-0.6257984874486923,-0.2753951502382755,0.6759907975941896
1761299099997703400,5.388703369140625,-1.0197183103024958,-0.12090484575033188,0.6421803709942847
1761299100017826300,5.408826416015625,-1.0462357303500174,-0.10491057328283786,0.5191669721247628
1761299100037950500,5.428950439453125,-0.5809580597251653,-0.17713877414762974,0.3667509531602263
1761299100058073600,5.449073486328125,-0.019036124381422995,-0.24571195963621137,0.38059177392087873
1761299100078196500,5.469196533203125,0.2837397847354412,-0.2229366487264633,0.4601607294699177
1761299100098319400,5.4893193359375,0.2523871996164322,-0.14905775804519653,0.4372050935572013
1761299100118443500,5.509443603515625,0.03524082472920417,-0.055766310885548585,0.4951661380080506
1761299100138566400,5.52956640625,-0.3234317436546087,0.021395839250087735,0.22509846640285103
1761299100158689500,5.549689453125,-0.18705109635293482,0.10508885245919226,-0.025331315535493195
1761299100178812400,5.5698125,0.18165128313601017,0.020713702204823492,-0.09041351710315793
1761299100198935600,5.589935546875,0.2408797171741724,-0.006959902140498161,-0.14758505514413117
1761299100219059500,5.6100595703125,0.3908130890101194,0.16299977415800093,0.011670564049482345
1761299100239182600,5.6301826171875,0.6827870336055755,0.20034253960251808,0.17183259403090922
1761299100259305500,5.650305419921875,0.5823673420011997,0.12621639616191385,0.3313763825161382
1761299100279428600,5.6704287109375,0.2124544176787138,0.15050386520028114,0.35696561833545565
1761299100299552500,5.690552490234375,0.08171031495928764,0.14081658392250537,0.27790347979739305
1761299100319675400,5.71067529296875,0.044458150407671926,0.03289689195156097,0.23303616406694053
1761299100339798500,5.730798583984375,-0.2869341968625784,0.014269932892918585,0.2557319799996912
1761299100359921400,5.75092138671875,-0.6928454862833022,0.09862579392492771,0.1836045726282522
1761299100380045300,5.77104541015625,-0.6981757413953542,0.1275046824067831,0.1701305758859962
1761299100400168400,5.79116845703125,-0.49275078396201133,0.061114101654291146,0.031807306616567076
1761299100420291300,5.811291259765625,-0.35123569638133045,-0.0921644889563322,-0.12212868845686316
1761299100440414500,5.83141455078125,-0.25776363195776936,-0.014041969355940818,-0.0500085510764271
1761299100460538400,5.851538330078125,-0.04529810836315155,0.12465396915078163,0.023651216961443424
1761299100480661500,5.87166162109375,0.19039514608383176,0.03410626774132251,0.002481679014209658
1761299100500784400,5.891784423828125,0.1667611725181341,-0.10456979702115059,-0.14245342787671833
1761299100520907500,5.911907470703125,-0.1412076290667057,-0.09285890096127987,-0.23073891997523605
1761299100541030400,5.932030517578125,-0.08147299907207489,0.029977205112576483,-0.26928591011036185
1761299100561154300,5.952154296875,0.15263386296629905,0.037300679868459696,-0.2793516145127825
1761299100581277400,5.97227734375,0.06311901173591614,0.012227028888463973,-0.2680783974841237
1761299100601400300,5.992400390625,-0.1236526831537485,0.03418225558698177,-0.25471337754167617
1761299100621523700,6.012523681640625,-0.06992343105375766,0.07278525022566318,-0.1784749729211442
1761299100641647600,6.032647705078125,0.10479951412379741,0.00040273558199405667,-0.10176896905517205
1761299100661770500,6.0527705078125,0.15153320824801922,-0.006778115832805633,-0.1718717752638273
1761299100681893600,6.0728935546875,0.05504442635178566,0.007253916651010513,-0.11798691247701644
1761299100702016500,6.0930166015625,-0.13721476003825664,-0.045509705287218094,-0.044426805421337486
1761299100722140700,6.113140625,-0.3633563422858715,-0.004946224230527877,0.04349484006715938
1761299100742263600,6.133263671875,-0.37024610179960726,0.10040040238201618,0.07380571584720164
1761299100762386700,6.15338671875,-0.26610008314847944,0.11432663640379905,0.1069759083148092
1761299100782509600,6.173509521484375,-0.06530570812523365,0.07108253796100616,0.15541280789403245
1761299100802633500,6.193633544921875,0.025226795715093613,0.08803601084947585,0.13176115254117174
1761299100822756600,6.213756591796875,0.08436930503547191,0.07816694326400757,0.09841397780515253
1761299100842879500,6.23387939453125,0.014300328031182289,0.04614449605941772,0.07516046405755915
1761299100863002600,6.254002685546875,0.026425650110840797,0.04295943628251552,0.25298560390099883
1761299100883125500,6.27412548828125,0.22010814730226994,0.09396306281089782,0.3539051347862929
1761299100903249400,6.29424951171875,0.4218535394400358,0.03324059082269668,0.31749994245283303
1761299100923372500,6.31437255859375,0.4440338070660829,-0.061352586585283274,0.285348845633585
1761299100943495400,6.334495361328125,0.3357978887528181,-0.0819341868430376,0.18304050900470464
1761299100963618600,6.35461865234375,0.12244915258288383,-0.09436170673966407,0.22706534602902828
1761299100983742500,6.374742431640625,0.030270635101199147,-0.10119535215198994,0.26098822002746164
1761299101003865600,6.394865478515625,0.02804360670149326,-0.09376549441218375,0.2845084858193062
1761299101023988500,6.414988525390625,0.08347089489102363,-0.038189737662672994,0.3282719867600128
1761299101044111600,6.435111572265625,-0.11297872892618178,0.044750995874404904,0.4166580166235566
1761299101064235500,6.455235595703125,-0.3611772446811199,0.006703881552815437,0.40290494721159337
1761299101084358400,6.4753583984375,-0.500569348758459,-0.060147886970639226,0.2835940743881278
1761299101104481500,6.4954814453125,-0.6650894643515348,-0.0728536392867565,0.24262561099343
1761299101124604400,6.5156044921875,-0.7710486699044704,-0.07385550980567931,0.24098810945209115
1761299101144728300,6.535728271484375,-0.47431963973641394,-0.0010533084452152251,0.15282027065018192
1761299101164851500,6.5558515625,-0.26828268788456916,-0.05443769263029098,0.10001317489640786
1761299101184974300,6.575974365234375,-0.0959592050641775,-0.04991700033545494,0.031958332459814845
1761299101205097500,6.596097412109375,-0.0028606501281261444,-0.024326047483086585,0.1023599937508814
1761299101225220400,6.616220458984375,0.2941746695101261,0.031953473621606825,0.08780141664231196
1761299101245344500,6.636344482421875,0.524464019086957,-0.02395546060502529,0.09586204656632616
1761299101265467600,6.656467529296875,0.3851046482354402,-0.0906137523829937,0.12120901632867753
1761299101285590500,6.676590576171875,0.28438626594543454,-0.0249877262622118,0.2448425198579207
1761299101305713700,6.696713623046875,0.3221282598406076,0.1523667364627123,0.3615411460900679
1761299101325837600,6.716837646484375,0.21272271322607994,0.12878712343275547,0.32689043274112045
1761299101345960700,6.736960693359375,-0.029298575198650357,0.028463877940177917,0.15469514287766067
1761299101366083600,6.75708349609375,-0.3505079666286707,0.04014379433989525,0.11884800455207005
1761299101386206700,6.777206787109375,-0.3140226947963238,0.14593348854482174,0.09692973059676586
1761299101406330600,6.79733056640625,-0.2768365812182426,0.20058686975240705,0.1049115231309086
1761299101426453500,6.81745361328125,-0.28497078783512114,0.1962491328090429,0.0654605561936507
1761299101446576600,6.83757666015625,-0.21837796250879762,0.15481529865860938,0.003759167587140109
1761299101466699500,6.857699462890625,-0.1867249331384897,0.19711539424955843,0.11096839375076815
1761299101486823700,6.87782373046875,-0.20067863968908786,0.24036241530179975,0.2155815367233008
1761299101506946600,6.897946533203125,-0.10559271032810211,0.24759587368667124,0.19720784003967418
1761299101527069700,6.918069580078125,0.052475452646613116,0.2243009228169918,0.09627296545477583
1761299101547192600,6.938192626953125,0.06969020681977271,0.23442893359959124,-0.030439735457254573
1761299101567315500,6.9583154296875,0.1266553721010685,0.2694078925222158,-0.04292044684584252
1761299101587439600,6.978439697265625,0.17862053713798523,0.23786592231094836,0.05290538676278665
1761299101607562800,6.998562744140625,0.3684948742181062,0.16859890933930874,-0.0419381852096878
1761299101627686000,7.018685791015625,0.6559522181719541,-0.017064532047510145,-0.08522575746802613
1761299101647808800,7.038808837890625,0.5569225196212529,-0.10088555555045604,0.029818105560727417
1761299101667932700,7.0589326171875,0.21987024689316748,-0.01967149967551231,0.14983097090739755
1761299101688055800,7.079055908203125,0.04376140031516552,-0.0021931261301040648,0.2383441708145663
1761299101708178700,7.0991787109375,-0.026829554736614226,-0.0899684402167797,0.08157374689965509
1761299101728301800,7.1193017578125,0.04987842189073562,-0.23515783239603041,0.041689516811398784
1761299101748425700,7.13942578125,0.049481531527638435,-0.31618717935383317,0.04172913186915684
1761299101768548600,7.159548583984375,-0.2312847903549671,-0.19534663101136684,0.08683975026961416
1761299101788671700,7.179671630859375,-0.36275954543650146,-0.03902326587736606,0.16703060057666153
1761299101808794600,7.199794677734375,-0.5192991836696863,0.03866378491520881,0.334009909357503
1761299101828918800,7.219918701171875,-0.8086772665530443,0.043704117169976235,0.13050525246225297
1761299101849041700,7.240041748046875,-0.6625076311647892,0.12476152117848395,-0.05263040574630722
1761299101869164800,7.260164794921875,-0.19900339995324612,-0.03457622334063053,-0.040899014887679365
1761299101889287700,7.28028759765625,-0.13797230040729044,0.026976269730925557,-0.03524267419299576
1761299101909410800,7.300410888671875,-0.2574187640428543,0.2421779402911663,0.13142760973786935
1761299101929534700,7.32053466796875,-0.17805998064577577,0.2657195593982935,0.1932785560330376
1761299101949657600,7.34065771484375,0.14192074577212332,0.1212654957562685,0.020476194521365686
1761299101969780700,7.36078076171875,0.5740244610697031,-0.06113105278909206,-0.03748232004567981
1761299101989903600,7.380903564453125,0.9677958153635263,-0.13172142331898212,0.02295770913879387
1761299102010027500,7.401027587890625,0.9804577285379171,-0.20771920585036277,0.01787433232674375
1761299102030150700,7.421150634765625,0.4515057503819465,-0.31623394110500813,0.007695358541887253
1761299102050273500,7.4412734375,-0.1521007790029049,-0.32934593613445756,-0.014688254203111864
1761299102070396700,7.461396728515625,-0.1962403649806976,-0.3087023765563965,-0.05156840710456017
1761299102090520800,7.481520751953125,-0.2942015575170517,-0.3140413994967937,-0.043644683166895994
1761299102110643700,7.501643798828125,-0.4630360291779041,-0.1743774927407503,0.028971895960974506
1761299102130766600,7.5217666015625,-0.6179723238676786,-0.10731997251212597,0.07832854530019685
1761299102150889700,7.5418896484375,-0.7268927173137665,-0.05559270788431167,0.08728318318817764
1761299102171014000,7.562013916015625,-0.4603939902365207,0.035357144585251805,0.16445490486975758
1761299102191136800,7.58213671875,-0.16083119794726372,0.08872048598229884,0.2134155725947581
1761299102211260000,7.602260009765625,0.02134264775812626,0.16960428698956964,0.17110490081086754
1761299102231382800,7.6223828125,-0.02173778455555439,0.11283844367265701,0.1407993039941415
1761299102251506000,7.642505859375,-0.20971476358175276,0.20190496661365032,0.02332840561470948
1761299102271629800,7.6626298828125,0.06552490383386611,0.6211334182471037,0.18801840701512992
1761299102291752700,7.682752685546875,0.909828195041418,0.36496903817951676,0.4725872629858553
1761299102311875800,7.702875732421875,0.8660942672550678,0.41230478985011576,0.19779605172378942
1761299102331998700,7.722998779296875,0.8740355816483497,0.39068390967249866,-0.3058618559008464
1761299102352123000,7.743122802734375,0.8282897295176982,0.25570494586229325,-0.17027656022794543
1761299102372245800,7.763245849609375,1.1437041709333657,0.2843009257495403,0.014272572374576702
