time,seconds_elapsed,z,y,x
1761397427550674700,0.2426748046875,0.07128524780273438,-0.3421440124511719,0.08173370361328125
1761397427570051600,0.262051513671875,0.057999610900878906,-0.3749709129333496,0.36656010150909424
1761397427589428500,0.281428466796875,-0.333981990814209,-0.39322566986083984,0.35790181159973145
1761397427608805400,0.300805419921875,-0.3325047492980957,-0.45653676986694336,0.30253899097442627
1761397427628182300,0.320182373046875,-0.29610681533813477,-0.4629240036010742,0.4366511106491089
1761397427647559400,0.339559326171875,-0.48714447021484375,-0.40787744522094727,0.6123854517936707
1761397427666936300,0.358936279296875,-0.6167597770690918,-0.4625372886657715,0.6252056360244751
1761397427686313200,0.378313232421875,-0.6838011741638184,-0.3745388984680176,0.5397804975509644
1761397427705690000,0.397690185546875,-0.6818995475769043,-0.3442997932434082,0.786006510257721
1761397427725067000,0.41706689453125,-0.9934887886047363,-0.3344993591308594,1.074263334274292
1761397427744444000,0.43644384765625,-0.7154035568237305,-0.49892091751098633,1.004294514656067
1761397427763821000,0.455821044921875,0.3829374313354492,-0.3747215270996094,0.49215829372406006
1761397427783198000,0.475197998046875,1.8152222633361816,-0.05399036407470703,0.5399746894836426
1761397427802561300,0.494561279296875,0.8855838775634766,-0.3671398162841797,0.7368464469909668
1761397427821951700,0.51395166015625,-4.171844959259033,-1.7119417190551758,1.4723191261291504
1761397427841328600,0.53332861328125,-6.703917503356934,-0.7413663864135742,1.0300018787384033
1761397427860692200,0.552692138671875,-3.1685009002685547,2.503973960876465,0.1279670000076294
1761397427880082700,0.572082763671875,1.8568940162658691,3.077068328857422,-0.26660454273223877
1761397427899459600,0.59145947265625,4.411533355712891,3.8691067695617676,-2.760526657104492
1761397427918823000,0.610822998046875,5.792342185974121,4.723760604858398,-4.7443342208862305
1761397427938213600,0.630213623046875,6.385906219482422,4.027013301849365,-3.025707244873047
1761397427957590500,0.649590576171875,6.7386322021484375,3.385906219482422,-0.293766051530838
1761397427976953900,0.668953857421875,7.172432899475098,2.3958020210266113,2.2709531784057617
1761397427996344300,0.68834423828125,5.855589866638184,0.20095300674438477,3.353684186935425
1761397428015721200,0.70772119140625,2.0169677734375,-2.279815435409546,3.2961063385009766
1761397428035084800,0.727084716796875,-1.4296722412109375,-3.8208141326904297,0.982919454574585
1761397428054475300,0.746475341796875,-4.268205165863037,-4.959676742553711,-0.9419639110565186
1761397428073852200,0.76585205078125,-9.773660659790039,-6.057811260223389,-3.5233960151672363
1761397428093215500,0.785215576171875,-11.567874908447266,-7.133810997009277,-3.8144736289978027
1761397428112606000,0.80460595703125,-7.5910186767578125,-7.476513862609863,-1.5061962604522705
1761397428131983000,0.823983154296875,-4.9177751541137695,-7.0886969566345215,0.5867505073547363
1761397428151360000,0.843360107421875,-5.21092414855957,-8.983724594116211,1.6555812358856201
1761397428170737000,0.86273681640625,-4.687361717224121,-6.673712730407715,-2.278078079223633
1761397428190113800,0.88211376953125,-6.990423202514648,-4.806493282318115,-5.0501813888549805
1761397428209477400,0.901477294921875,-7.091203212738037,-4.508846282958984,-6.23769474029541
1761397428228867800,0.920867919921875,-3.6271963119506836,-2.683295965194702,-5.674233436584473
1761397428248244700,0.94024462890625,2.493727684020996,-0.7050447463989258,-3.4781417846679688
1761397428267608000,0.959608154296875,6.730294227600098,1.7759175300598145,1.6838252544403076
1761397428286998500,0.97899853515625,7.112305164337158,2.623213052749634,10.316611289978027
1761397428306375400,0.99837548828125,9.930639266967773,0.5473387241363525,17.622377395629883
1761397428325739000,1.017739013671875,15.154325485229492,-1.3392865657806396,16.75417709350586
1761397428345129500,1.03712939453125,15.8314847946167,2.372579574584961,5.242599010467529
1761397428364506400,1.05650634765625,12.400497436523438,3.688446521759033,1.5432796478271484
1761397428383869700,1.07586962890625,9.720656394958496,4.563355445861816,0.7881240844726562
1761397428403260200,1.09526025390625,5.334519386291504,4.546333312988281,0.7142162322998047
1761397428422637000,1.114636962890625,-0.5889601707458496,4.800955772399902,-0.6370444297790527
1761397428442000600,1.134000732421875,-6.622409343719482,5.555165767669678,-3.7771029472351074
1761397428461391000,1.15339111328125,-11.32773208618164,3.9913418292999268,-4.2600274085998535
1761397428480768000,1.17276806640625,-13.264188766479492,3.0141425132751465,-4.37612771987915
1761397428500131600,1.192131591796875,-13.487800598144531,3.386826515197754,-7.1910319328308105
1761397428519521800,1.211521728515625,-12.623440742492676,3.305452585220337,-8.577054977416992
1761397428538899000,1.23089892578125,-11.290982246398926,3.1296393871307373,-9.195094108581543
1761397428558262300,1.25026220703125,-8.400053977966309,2.4855644702911377,-9.13968276977539
1761397428577652700,1.26965283203125,0.1459808349609375,2.666574478149414,-6.5631561279296875
1761397428597029600,1.289029541015625,4.935802459716797,2.9920501708984375,-2.1828746795654297
1761397428616393200,1.308393310546875,7.545771598815918,2.90777325630188,0.3188309669494629
1761397428635783700,1.32778369140625,18.915775299072266,1.149674892425537,1.61505126953125
1761397428655160600,1.34716064453125,31.61867904663086,-4.0616135597229,11.812492370605469
1761397428674524000,1.36652392578125,29.682382583618164,-7.978288173675537,22.728307723999023
1761397428693914400,1.385914306640625,14.038335800170898,-6.5176100730896,20.165781021118164
1761397428713291300,1.405291259765625,-2.0354270935058594,-2.355445384979248,11.282756805419922
1761397428732654800,1.42465478515625,-7.7704176902771,-0.8877604007720947,5.548598766326904
1761397428752045300,1.44404541015625,-6.366692543029785,-0.375705361366272,0.33729982376098633
1761397428771422200,1.463422119140625,-4.582644939422607,-0.2380431890487671,-2.8371706008911133
1761397428790785800,1.482785888671875,-4.737950801849365,-0.40302014350891113,-2.478044271469116
1761397428810176000,1.502176025390625,-5.385913372039795,-0.45419836044311523,-2.7612478733062744
1761397428829553200,1.52155322265625,-6.260392189025879,-0.31140172481536865,-4.056128978729248
1761397428848916500,1.54091650390625,-8.19488525390625,0.11976480484008789,-5.28770112991333
1761397428868307000,1.560306884765625,-10.779644012451172,-0.2068873643875122,-5.553928375244141
1761397428887683800,1.579683837890625,-12.18700885772705,-0.5209282636642456,-5.331811904907227
1761397428907047400,1.59904736328125,-12.835590362548828,-0.7462739944458008,-5.070250988006592
1761397428926438000,1.61843798828125,-12.073931694030762,-0.5594987869262695,-5.46673583984375
1761397428945814800,1.637814697265625,-11.000858306884766,0.172959566116333,-5.822638034820557
1761397428965178000,1.65717822265625,-8.894426345825195,0.20709967613220215,-3.5585994720458984
1761397428984568600,1.676568603515625,-5.904651641845703,-0.17363440990447998,-0.60512375831604
1761397429003945500,1.695945556640625,1.5054502487182617,-0.8196049928665161,-1.238058090209961
1761397429023309000,1.71530908203125,11.249733924865723,-0.019849061965942383,-5.4967360496521
1761397429042699500,1.734699462890625,14.421989440917969,-1.0438448190689087,-3.0398802757263184
1761397429062076400,1.754076416015625,20.195899963378906,-4.156497955322266,5.6686625480651855
1761397429081440000,1.77343994140625,26.91207504272461,-6.40892219543457,12.63145637512207
1761397429100830200,1.792830322265625,18.074684143066406,-5.116143226623535,12.880743026733398
1761397429120207400,1.812207275390625,5.394540786743164,-1.3731470108032227,8.753769874572754
1761397429139570700,1.83157080078125,-1.2912406921386719,0.6519550085067749,6.575615406036377
1761397429158961200,1.850961181640625,-3.1366310119628906,0.9720699787139893,5.622608184814453
1761397429178338000,1.870338134765625,-1.9040112495422363,0.7266381978988647,5.054069519042969
1761397429197701600,1.88970166015625,-1.0923442840576172,0.7243523597717285,3.369520664215088
1761397429217092000,1.909092041015625,-3.7992053031921387,0.9872591495513916,2.4389140605926514
1761397429236469000,1.928468994140625,-6.544046878814697,1.0325475931167603,1.2677996158599854
1761397429255832600,1.94783251953125,-8.390482902526855,1.1020528078079224,0.626046895980835
1761397429275222800,1.967222900390625,-9.339160919189453,0.43275851011276245,-0.30315089225769043
1761397429294600000,1.986599853515625,-9.995352745056152,-0.5214890241622925,-1.2549524307250977
1761397429313963300,2.00596337890625,-10.09316635131836,-0.8829138875007629,-2.8652400970458984
1761397429333353700,2.025353759765625,-10.504630088806152,-0.9543135762214661,-3.8181304931640625
1761397429352730600,2.044730712890625,-10.843082427978516,-1.0641148090362549,-4.251636028289795
1761397429372107500,2.064107421875,-9.769393920898438,-1.128854751586914,-4.089580535888672
1761397429391484700,2.083484619140625,-6.387691020965576,-0.9854005575180054,-3.523514747619629
1761397429410861600,2.102861572265625,0.5055675506591797,-1.3450565338134766,-2.755986452102661
1761397429430225000,2.122224853515625,4.173675537109375,0.47060704231262207,-5.430249214172363
1761397429449615400,2.141615478515625,4.141258239746094,2.3891916275024414,-7.401150703430176
1761397429468992300,2.1609921875,12.580025672912598,-1.2319958209991455,0.8010551929473877
1761397429488355800,2.18035595703125,26.76144027709961,-5.787741661071777,4.231700897216797
1761397429507746300,2.199746337890625,23.67515754699707,-6.029112815856934,3.308717966079712
1761397429527123200,2.219123291015625,11.435028076171875,-2.4343044757843018,3.8957862854003906
1761397429546486800,2.23848681640625,3.5039491653442383,0.5019934177398682,6.499351501464844
1761397429565877200,2.257877197265625,-1.1430840492248535,2.087829113006592,6.09697961807251
1761397429585254100,2.277254150390625,-3.253264904022217,2.1010398864746094,3.202683210372925
1761397429604617500,2.296617431640625,-3.7259740829467773,1.3508257865905762,1.9905951023101807
1761397429624008000,2.316008056640625,-4.208651542663574,1.1729904413223267,1.770557165145874
1761397429643384800,2.335384765625,-6.228611946105957,1.4333717823028564,1.5432677268981934
1761397429662748400,2.35474853515625,-9.130918502807617,1.486127495765686,1.192349910736084
1761397429682139000,2.374138916015625,-11.789468765258789,1.2276966571807861,0.2036430835723877
1761397429701515800,2.393515869140625,-13.041587829589844,0.6171399354934692,-1.131805181503296
1761397429720879400,2.41287939453125,-12.440226554870605,-0.14137578010559082,-2.3374743461608887
1761397429740269600,2.43226953125,-10.479084014892578,-0.5558681488037109,-2.8096330165863037
1761397429759646700,2.451646728515625,-8.77570915222168,-0.7191234827041626,-2.569943428039551
1761397429779023600,2.471023681640625,-8.199563980102539,-1.220491647720337,-2.0529463291168213
1761397429798400500,2.490400390625,-6.885170936584473,-0.7959262132644653,-1.5095231533050537
1761397429817777400,2.50977734375,-3.8700180053710938,0.8811492919921875,-1.695617914199829
1761397429837141000,2.52914111328125,0.04572010040283203,4.0896477699279785,-4.191591262817383
1761397429856531500,2.548531494140625,8.924426078796387,5.379925727844238,-1.3399653434753418
1761397429875908400,2.567908447265625,32.273956298828125,-1.4833155870437622,9.491067886352539
1761397429895271700,2.587271728515625,41.539794921875,-7.761923313140869,15.14639663696289
1761397429914662100,2.606662109375,20.024534225463867,-3.5714099407196045,8.248416900634766
1761397429934039300,2.626039306640625,3.538729667663574,0.26963281631469727,4.833531856536865
1761397429953402600,2.645402587890625,0.29300498962402344,1.3820340633392334,3.5332446098327637
1761397429972793000,2.66479296875,-0.3561830520629883,1.627356767654419,1.3642799854278564
1761397429992170000,2.684169921875,-2.9023919105529785,1.062799334526062,0.4832727909088135
1761397430011533600,2.703533447265625,-5.436796188354492,0.34914278984069824,-0.7541649341583252
1761397430030924000,2.722924072265625,-7.150101661682129,0.4108356237411499,-1.3942445516586304
1761397430050301000,2.742301025390625,-8.63080883026123,0.4139472246170044,-1.2174172401428223
1761397430069664300,2.761664306640625,-9.454520225524902,0.8183518648147583,-1.4522104263305664
1761397430089054700,2.7810546875,-10.310799598693848,-0.015651702880859375,-0.8929638862609863
1761397430108431600,2.800431640625,-11.905040740966797,-0.2238384485244751,-0.7924795150756836
1761397430127795200,2.819795166015625,-12.439444541931152,-0.1675792932510376,-0.3254740238189697
1761397430147185700,2.839185546875,-11.982247352600098,-0.47716641426086426,-0.8094923496246338
1761397430166562600,2.8585625,-8.216272354125977,-0.3116300106048584,-1.9000682830810547
1761397430185926100,2.877926025390625,-2.160493850708008,-0.3673124313354492,-1.2103221416473389
1761397430205316400,2.89731640625,3.3808116912841797,0.22945356369018555,-0.16154098510742188
1761397430224693500,2.916693603515625,3.375105857849121,2.200817346572876,-2.6627044677734375
1761397430244056800,2.936056884765625,0.1969137191772461,6.124722480773926,-4.168778419494629
1761397430263447300,2.955447265625,6.302950859069824,6.831411361694336,2.192518949508667
1761397430282824200,2.97482421875,20.884944915771484,1.931077003479004,9.217453002929688
1761397430302187800,2.994187744140625,24.821269989013672,-3.2762374877929688,9.357568740844727
1761397430321578200,3.013578125,16.050704956054688,-3.369534492492676,2.2100517749786377
1761397430340955100,3.032955078125,10.058393478393555,-3.5101840496063232,-0.6038687229156494
1761397430360318700,3.052318603515625,5.38578987121582,-3.805168628692627,1.7932662963867188
1761397430379709200,3.071709228515625,-3.2069053649902344,-3.588243246078491,3.2537810802459717
1761397430399086000,3.091086181640625,-10.834171295166016,-1.9989643096923828,3.5036380290985107
1761397430418449400,3.110449462890625,-13.621753692626953,-0.9686548709869385,5.633724212646484
1761397430437840000,3.12983984375,-11.795177459716797,-1.0176420211791992,4.2502570152282715
1761397430457216800,3.149216796875,-8.77155876159668,-2.1177501678466797,0.30358052253723145
1761397430476580400,3.168580322265625,-5.841723918914795,-2.942894220352173,-2.80086612701416
1761397430495970800,3.187970703125,-3.783576011657715,-3.2324962615966797,-4.196082592010498
1761397430515347700,3.20734765625,-3.999784469604492,-3.083958387374878,-3.5955758094787598
1761397430534724600,3.226724609375,-5.295437812805176,-2.7768962383270264,-2.278174638748169
1761397430554101500,3.2461015625,-7.641712665557861,-2.2790775299072266,-2.1497130393981934
1761397430573478700,3.265478759765625,-9.49841022491455,-1.9801006317138672,-2.9619081020355225
1761397430592842000,3.284842041015625,-9.833205223083496,-1.549421787261963,-2.8746767044067383
1761397430612232400,3.304232421875,-9.857585906982422,-0.30595970153808594,-3.0020804405212402
1761397430631609300,3.323609375,-11.480201721191406,3.484384536743164,-5.168310165405273
1761397430650973000,3.342972900390625,-10.270383834838867,8.063737869262695,-3.4688124656677246
1761397430670363400,3.36236328125,13.6306734085083,5.3300981521606445,11.067707061767578
1761397430689740300,3.381740234375,46.93381881713867,-4.822831630706787,22.129505157470703
1761397430709103900,3.401103759765625,39.589813232421875,-5.2006425857543945,16.360239028930664
1761397430728494000,3.420494140625,17.584896087646484,-1.5410990715026855,5.589356422424316
1761397430747871200,3.439871337890625,6.128704071044922,-1.7061786651611328,2.6094553470611572
1761397430767234600,3.459234619140625,-4.219990253448486,-2.0675477981567383,0.5101323127746582
1761397430786625000,3.478625,-10.231146812438965,-1.8658525943756104,-0.8681607246398926
1761397430806002000,3.498001953125,-11.107959747314453,-1.6751582622528076,-0.39508676528930664
1761397430825365500,3.517365478515625,-10.758460998535156,-1.5873913764953613,0.5687756538391113
1761397430844756000,3.536755859375,-11.037405967712402,-1.4437687397003174,0.07390785217285156
1761397430864132900,3.5561328125,-11.714179992675781,-1.4851491451263428,-0.9024121761322021
1761397430883496200,3.57549609375,-11.423357009887695,-1.308112382888794,-1.7926040887832642
1761397430902887000,3.594886962890625,-10.447425842285156,-0.5545172691345215,-2.490825891494751
1761397430922263800,3.614263916015625,-9.942752838134766,-0.0433049201965332,-1.6417757272720337
1761397430941627100,3.633627197265625,-8.80892562866211,0.22555208206176758,-1.1118931770324707
1761397430961017600,3.653017578125,-6.770500183105469,0.658466100692749,-0.6582427024841309
1761397430980394500,3.67239453125,-2.9296627044677734,0.8110454082489014,0.17340636253356934
1761397430999758000,3.691758056640625,3.2101173400878906,1.1912460327148438,0.8633418083190918
1761397431019148500,3.7111484375,10.008557319641113,2.6177215576171875,1.1249666213989258
1761397431038525400,3.730525390625,13.828311920166016,4.933366775512695,-2.1197667121887207
1761397431057889000,3.749888916015625,18.643938064575195,5.165780067443848,-2.163376808166504
1761397431077279200,3.769279296875,27.092329025268555,1.0524964332580566,4.987867832183838
1761397431096656400,3.788656494140625,23.96210479736328,-1.5923125743865967,9.086021423339844
1761397431116019700,3.808019775390625,8.182825088500977,0.7166180610656738,6.804234027862549
1761397431135410200,3.82741015625,-0.9834446907043457,2.648749828338623,4.077643394470215
1761397431154787000,3.846787109375,-2.614675998687744,1.8980302810668945,2.4932098388671875
1761397431174150700,3.866150634765625,-1.9319963455200195,-0.3572816848754883,0.8207221031188965
1761397431193541000,3.885541015625,-2.2573843002319336,-3.252321720123291,0.19228744506835938
1761397431212918000,3.90491796875,-3.5095748901367188,-5.467748641967773,0.09443473815917969
1761397431232281600,3.924281494140625,-4.426810264587402,-6.490379333496094,0.4402172565460205
1761397431251672000,3.943672119140625,-6.895877361297607,-6.934897422790527,0.3900601863861084
1761397431271049000,3.963049072265625,-9.778338432312012,-7.033580780029297,-0.5503120422363281
1761397431290412300,3.982412353515625,-12.409904479980469,-7.016367435455322,-1.5677294731140137
1761397431309802800,4.001802734375,-14.135765075683594,-6.628569602966309,-2.733386993408203
1761397431329179600,4.0211796875,-14.06947135925293,-6.188404560089111,-3.5378003120422363
1761397431348543200,4.040543212890625,-12.918493270874023,-5.804196834564209,-4.166637420654297
1761397431367933700,4.05993359375,-10.092485427856445,-4.6181135177612305,-4.315669536590576
1761397431387310600,4.079310546875,-7.054986476898193,-2.720836639404297,-3.348663806915283
1761397431406674200,4.098674072265625,-2.835305690765381,0.804203987121582,-2.9674248695373535
1761397431426064600,4.118064697265625,1.0937490463256836,4.564310550689697,-3.368091106414795
1761397431445441500,4.137441650390625,8.961698532104492,8.478105545043945,-6.117093086242676
1761397431464804900,4.156804931640625,16.386873245239258,11.386762619018555,-6.659850597381592
1761397431484195300,4.1761953125,23.647720336914062,9.033098220825195,0.13159441947937012
1761397431503572500,4.195572509765625,25.971195220947266,5.064330101013184,5.2950592041015625
1761397431522935800,4.214935791015625,16.06525993347168,3.522782802581787,6.594347953796387
1761397431542326300,4.234326171875,4.86077880859375,3.356696128845215,6.520254135131836
1761397431561703200,4.253703125,-0.11155128479003906,1.2523646354675293,6.1893439292907715
1761397431581066800,4.273066650390625,-1.7723584175109863,-0.8740894794464111,4.516148567199707
1761397431600457200,4.292457275390625,-3.7976622581481934,-2.940317153930664,2.470505952835083
1761397431619834000,4.311834228515625,-4.273112773895264,-4.337338924407959,0.5506061315536499
1761397431639197400,4.331197509765625,-4.018588542938232,-5.320307731628418,0.20594406127929688
1761397431658588000,4.350587890625,-4.249834060668945,-6.008995056152344,0.9504324197769165
1761397431677964800,4.36996484375,-5.985230445861816,-6.5287981033325195,1.1968698501586914
1761397431697328400,4.389328369140625,-8.435224533081055,-6.944938659667969,0.24830543994903564
1761397431716718800,4.40871875,-10.575197219848633,-7.03411340713501,-1.344466209411621
1761397431736095700,4.428095703125,-11.839351654052734,-6.6526899337768555,-2.4603254795074463
1761397431755472600,4.44747265625,-11.325395584106445,-6.478977203369141,-0.9118520021438599
1761397431774849800,4.466849853515625,-9.273218154907227,-4.159332275390625,0.5234229564666748
1761397431794226700,4.486226806640625,-4.631009101867676,-1.282259464263916,2.6984081268310547
1761397431813590000,4.505590087890625,2.2982239723205566,1.961315631866455,3.895557165145874
1761397431832980500,4.52498046875,9.800378799438477,4.181131839752197,1.7064332962036133
1761397431852357600,4.544357666015625,10.420580863952637,8.201095581054688,-4.760941505432129
1761397431871721000,4.563720947265625,8.252866744995117,8.492202758789062,-4.33663272857666
1761397431891111400,4.583111328125,10.18548583984375,4.622840404510498,-0.03600287437438965
1761397431910488300,4.60248828125,13.028348922729492,1.0938711166381836,1.1485533714294434
1761397431929852000,4.621851806640625,9.691539764404297,-1.3526058197021484,-0.2781026363372803
1761397431949242400,4.641242431640625,1.6822710037231445,-1.5919408798217773,-2.3651816844940186
1761397431968619300,4.660619384765625,-4.357625484466553,-2.9879605770111084,-1.9529677629470825
1761397431987982800,4.67998291015625,-7.2610979080200195,-4.226887226104736,-0.7163050174713135
1761397432007373000,4.699373046875,-9.03516960144043,-4.625507831573486,-1.0044374465942383
1761397432026750200,4.718750244140625,-9.894387245178223,-4.7161545753479,-2.410867214202881
1761397432046113500,4.738113525390625,-9.87580680847168,-4.406430244445801,-2.976196527481079
1761397432065504000,4.75750390625,-9.281534194946289,-3.860201358795166,-2.94472599029541
1761397432084881000,4.776880859375,-8.49828052520752,-2.8136820793151855,-3.04394268989563
1761397432104258000,4.796258056640625,-7.9268317222595215,-2.024196147918701,-2.6762778759002686
1761397432123635000,4.815635009765625,-6.057343006134033,-0.8561685085296631,-3.0667474269866943
1761397432143011800,4.83501171875,-1.5754141807556152,-0.07177281379699707,-2.3129098415374756
1761397432162375400,4.85437548828125,7.037768363952637,0.7076370716094971,0.1639385223388672
1761397432181765600,4.873765625,14.417102813720703,1.1063899993896484,2.8835222721099854
1761397432201142800,4.893142822265625,15.252152442932129,2.95621395111084,0.768359899520874
1761397432220506000,4.912506103515625,12.701655387878418,4.891484260559082,0.10064482688903809
1761397432239896600,4.931896484375,13.614316940307617,4.0081024169921875,6.390032768249512
1761397432259273700,4.951273681640625,17.076990127563477,1.044863224029541,13.682157516479492
1761397432278637000,4.970636962890625,13.343127250671387,-0.3923227787017822,13.19528865814209
1761397432298027500,4.990027587890625,6.194973945617676,0.863196611404419,5.608916759490967
1761397432317404400,5.009404296875,2.9721908569335938,2.189854621887207,2.622178554534912
1761397432336768000,5.02876806640625,-0.23712825775146484,4.076046943664551,3.0530619621276855
1761397432356158500,5.048158447265625,-7.410163879394531,4.016414165496826,4.9591217041015625
1761397432375535400,5.067535400390625,-14.289694786071777,2.4023597240448,4.210787773132324
1761397432394898700,5.086898681640625,-17.411968231201172,0.14390802383422852,2.4814934730529785
1761397432414289200,5.1062890625,-14.979140281677246,-1.2817463874816895,0.14673328399658203
1761397432433666300,5.125666259765625,-10.399803161621094,-2.3091416358947754,-2.1494572162628174
1761397432453029600,5.145029541015625,-7.471020221710205,-3.3685483932495117,-4.762569427490234
1761397432472420000,5.164420166015625,-6.857470512390137,-4.008658409118652,-7.521098613739014
1761397432491797000,5.183796875,-7.474889278411865,-3.8369357585906982,-7.7993364334106445
1761397432511160600,5.20316064453125,-5.679131507873535,-3.089170217514038,-5.865890979766846
1761397432530551000,5.222551025390625,0.012919425964355469,-2.1294994354248047,-3.670668363571167
1761397432549928000,5.241927978515625,9.541105270385742,-0.3468952178955078,-0.7855839729309082
1761397432569291300,5.261291259765625,17.582918167114258,1.5810661315917969,-0.5942795276641846
1761397432588681700,5.280681640625,18.17766571044922,3.9470739364624023,-0.9727399349212646
1761397432608059000,5.300058837890625,16.045459747314453,5.18705415725708,4.975587368011475
1761397432627422200,5.319422119140625,15.494293212890625,3.184159278869629,10.074326515197754
1761397432646812700,5.338812744140625,8.886836051940918,1.9291667938232422,8.39698600769043
1761397432666189600,5.358189453125,3.069709300994873,1.496504306793213,4.902698993682861
1761397432685553200,5.37755322265625,2.6414947509765625,1.3483991622924805,1.2648043632507324
1761397432704943600,5.396943603515625,2.7309951782226562,1.301255226135254,0.6342971324920654
1761397432724320500,5.416320556640625,-0.7809133529663086,0.5884208679199219,1.855612874031067
1761397432743684000,5.43568408203125,-4.982783317565918,-1.003324031829834,2.48248291015625
1761397432763074600,5.455074462890625,-7.936566352844238,-2.2138314247131348,2.4203929901123047
1761397432782451500,5.474451416015625,-9.157316207885742,-3.5990803241729736,2.6112148761749268
1761397432801814800,5.493814697265625,-8.3904390335083,-4.955252647399902,1.2383261919021606
1761397432821205200,5.513205322265625,-7.5965142250061035,-6.307188034057617,-0.6482359170913696
1761397432840582400,5.53258251953125,-6.971523761749268,-7.275597095489502,-2.38863468170166
1761397432859945700,5.55194580078125,-6.259002208709717,-7.2284836769104,-4.146036624908447
1761397432879336200,5.571336181640625,-6.083834171295166,-6.316398620605469,-4.056069850921631
1761397432898713000,5.590713134765625,-4.850734233856201,-3.454482078552246,-3.4887819290161133
1761397432918076700,5.61007666015625,-3.3213486671447754,1.3100509643554688,-0.03233569860458374
1761397432937467100,5.629467041015625,-0.797675609588623,8.029685974121094,-0.4856974184513092
1761397432956844000,5.648843994140625,3.0880637168884277,10.594388961791992,0.09758073091506958
1761397432976207400,5.668207275390625,10.735160827636719,9.854884147644043,3.3689584732055664
1761397432995597800,5.687597900390625,14.086404800415039,7.054935455322266,1.952680230140686
1761397433014975000,5.70697509765625,12.897287368774414,5.043166160583496,-0.21505457162857056
1761397433034338300,5.72633837890625,9.210737228393555,3.6524600982666016,-0.3746029734611511
1761397433053728800,5.745728759765625,3.27254581451416,2.2376012802124023,-0.31070464849472046
1761397433073105700,5.765105712890625,-3.6247150897979736,0.08968639373779297,0.7515546083450317
1761397433092469200,5.78446923828125,-9.227005004882812,-2.063962936401367,2.8078227043151855
1761397433111859700,5.803859619140625,-10.877248764038086,-4.225309371948242,3.2288753986358643
1761397433131236600,5.823236572265625,-7.217024326324463,-6.445369720458984,2.131944417953491
1761397433150600200,5.84260009765625,-2.6317741870880127,-8.178449630737305,0.5191144943237305
1761397433169990700,5.86199072265625,-0.598297119140625,-8.772013664245605,-1.068124771118164
1761397433189367600,5.881367431640625,-0.713036298751831,-8.370473861694336,-1.3517680168151855
1761397433208731000,5.90073095703125,-2.08070969581604,-6.789591312408447,0.11348742246627808
1761397433228121300,5.920121337890625,-5.914977073669434,-4.400034427642822,1.3728101253509521
1761397433247498500,5.93949853515625,-7.308071136474609,-2.048283576965332,0.637346088886261
1761397433266861800,5.95886181640625,-3.0390784740448,-0.6457347869873047,0.7866410613059998
1761397433286252300,5.978252197265625,2.7105607986450195,1.9246845245361328,-0.4234502911567688
1761397433305629200,5.997629150390625,4.120598316192627,3.9885034561157227,-0.31521332263946533
1761397433324992800,6.01699267578125,0.9152674674987793,5.729351043701172,-0.8595116138458252
1761397433344383200,6.03638330078125,-0.663482666015625,6.520041465759277,-1.6297993659973145
1761397433363760000,6.055760009765625,2.6993680000305176,6.456368446350098,-2.4692978858947754
1761397433383123700,6.075123779296875,6.621946334838867,5.333067893981934,-1.7133727073669434
1761397433402514000,6.094513916015625,8.007070541381836,4.219587326049805,-1.3222368955612183
1761397433421891000,6.11389111328125,6.339457988739014,2.8162641525268555,-1.2145123481750488
1761397433441254400,6.13325439453125,2.049783706665039,0.7612419128417969,0.14524853229522705
1761397433460644900,6.152644775390625,-1.7125091552734375,-1.4122233390808105,0.43600577116012573
1761397433480022000,6.17202197265625,-2.763664484024048,-3.3020310401916504,0.6769246459007263
1761397433499385300,6.19138525390625,-3.193063735961914,-4.870234489440918,2.155508041381836
1761397433518775800,6.21077587890625,-3.0127320289611816,-5.750003814697266,1.8824429512023926
1761397433538152700,6.230152587890625,-2.3397562503814697,-6.14841365814209,0.8362717032432556
1761397433557529600,6.249529541015625,-1.7155301570892334,-6.400730609893799,1.797409176826477
1761397433576906800,6.26890673828125,-2.0201735496520996,-6.183204650878906,2.4029300212860107
1761397433596283600,6.28828369140625,-1.7507357597351074,-5.692501068115234,1.5663259029388428
1761397433615660500,6.30766064453125,-0.4501633644104004,-4.69681453704834,0.7179380059242249
1761397433635037400,6.327037353515625,-0.48363637924194336,-3.4012293815612793,-0.29768484830856323
1761397433654414600,6.34641455078125,-0.9314389228820801,-1.3915114402770996,-0.8901631832122803
1761397433673778000,6.36577783203125,0.6824746131896973,0.6565418243408203,-0.9857466816902161
1761397433693168400,6.38516845703125,1.9305696487426758,3.351419448852539,-0.47104865312576294
1761397433712545300,6.404545166015625,0.4904661178588867,6.5149993896484375,-0.857307493686676
1761397433731908900,6.423908935546875,-0.24566221237182617,7.961423873901367,-1.3205177783966064
1761397433751299300,6.44329931640625,1.8932561874389648,8.629055976867676,-2.38163423538208
1761397433770676200,6.46267626953125,4.315919876098633,7.815049171447754,-2.2283732891082764
1761397433790039800,6.482039794921875,5.794249057769775,6.924886703491211,-2.3300440311431885
1761397433809430300,6.50143017578125,5.618558883666992,4.611513137817383,-0.011258602142333984
1761397433828807200,6.52080712890625,2.408736228942871,0.8809795379638672,1.495610237121582
1761397433848170500,6.54017041015625,-2.163240671157837,-2.9010791778564453,0.3664824366569519
1761397433867561000,6.55956103515625,-3.9339804649353027,-6.792423248291016,0.8296574950218201
1761397433886938000,6.578938232421875,-4.463201999664307,-9.90433120727539,1.8801308870315552
1761397433906301400,6.598301513671875,-5.475285530090332,-11.706936836242676,2.1413753032684326
1761397433925692000,6.61769189453125,-7.402200698852539,-12.497529983520508,1.5308334827423096
1761397433945068800,6.63706884765625,-9.419963836669922,-12.70395278930664,0.5719479322433472
1761397433964432400,6.656432373046875,-10.996417999267578,-11.805913925170898,-0.5484525561332703
1761397433983822800,6.67582275390625,-11.832487106323242,-10.385896682739258,-1.7074322700500488
1761397434003199700,6.69519970703125,-9.907505989074707,-8.386066436767578,-2.4448628425598145
1761397434022563000,6.71456298828125,-4.234245777130127,-5.064406871795654,-3.2223551273345947
1761397434041953500,6.73395361328125,4.31431770324707,-1.4627923965454102,-3.478440761566162
1761397434061330700,6.75333056640625,12.543682098388672,3.303231716156006,-5.035274505615234
1761397434080694000,6.772694091796875,13.841358184814453,7.663610458374023,-4.6793131828308105
1761397434100084500,6.79208447265625,12.583393096923828,9.832947731018066,-1.3535083532333374
1761397434119461400,6.81146142578125,13.991339683532715,8.483856201171875,4.146829605102539
1761397434138825000,6.830824951171875,15.170523643493652,4.828240394592285,8.12639331817627
1761397434158215400,6.85021533203125,9.918670654296875,2.4044599533081055,6.148472785949707
1761397434177592300,6.86959228515625,4.654818534851074,0.8684539794921875,1.8825595378875732
1761397434196956000,6.888955810546875,3.1718950271606445,-0.2371232509613037,-0.7384300231933594
1761397434216346400,6.908346435546875,3.256007194519043,-0.7953784465789795,-0.5173622369766235
1761397434235723300,6.92772314453125,-1.852673053741455,-1.2044429779052734,1.616927146911621
1761397434255086800,6.9470869140625,-5.636983871459961,-1.114781141281128,0.8323352336883545
1761397434274477000,6.96647705078125,-9.691061973571777,-0.4827594757080078,-0.7507002353668213
1761397434293854200,6.985854248046875,-13.726455688476562,-0.19223380088806152,-1.1131536960601807
1761397434313217500,7.005217529296875,-15.096961975097656,-0.06201481819152832,-1.5476794242858887
1761397434332608000,7.02460791015625,-13.281009674072266,0.0915069580078125,-2.102172374725342
1761397434351985000,7.04398486328125,-8.12415599822998,0.00471806526184082,-1.7364404201507568
1761397434371348500,7.063348388671875,-2.3546485900878906,0.056357383728027344,-0.9061307907104492
1761397434390739000,7.082739013671875,3.129042625427246,0.09597969055175781,-1.0658996105194092
1761397434410115800,7.10211572265625,8.531279563903809,-0.15175342559814453,0.7410545349121094
1761397434429479400,7.1214794921875,12.682958602905273,0.9574007987976074,0.8069086074829102
1761397434448870000,7.140869873046875,13.511794090270996,1.9326376914978027,2.7031164169311523
1761397434468246800,7.160246826171875,17.85150718688965,0.8289592266082764,11.852408409118652
1761397434487610000,7.179610107421875,22.84784698486328,-1.9119172096252441,16.49930191040039
1761397434507000600,7.19900048828125,17.17243194580078,-1.1776723861694336,9.03747272491455
1761397434526377700,7.218377685546875,6.682403564453125,0.37993574142456055,3.3888473510742188
1761397434545741000,7.237740966796875,-0.8960428237915039,1.4485857486724854,2.9029574394226074
1761397434565131500,7.257131591796875,-5.124751091003418,1.8584034442901611,2.18863582611084
1761397434584508400,7.27650830078125,-7.080052375793457,1.4643077850341797,0.5913052558898926
1761397434603872000,7.2958720703125,-8.222238540649414,0.6256101131439209,-0.7425312995910645
1761397434623262500,7.315262451171875,-9.314994812011719,-0.16708588600158691,-1.0831809043884277
1761397434642639400,7.334639404296875,-10.139307975769043,-0.5225543975830078,-1.062150001525879
1761397434662003000,7.3540029296875,-10.488174438476562,-1.0102741718292236,-1.303110122680664
1761397434681393400,7.373393310546875,-10.382314682006836,-2.160698175430298,-2.2561440467834473
1761397434700770300,7.392770263671875,-9.024075508117676,-2.9821598529815674,-3.185999870300293
1761397434720134000,7.4121337890625,-7.242144584655762,-3.323291063308716,-3.569356679916382
1761397434739524000,7.431524169921875,-5.099079132080078,-3.142123222351074,-3.6048460006713867
1761397434758901200,7.4509013671875,-0.7566003799438477,-2.1159873008728027,-2.241849184036255
1761397434778264600,7.4702646484375,5.392799377441406,0.04662370681762695,-0.5516242980957031
1761397434797655000,7.489655029296875,9.050142288208008,1.7536582946777344,-1.3635926246643066
1761397434817032000,7.509031982421875,9.718097686767578,3.7960896492004395,-4.411120414733887
1761397434836395500,7.5283955078125,10.63784408569336,2.4693431854248047,0.6166558265686035
1761397434855786000,7.547785888671875,13.898386001586914,-0.5947892665863037,6.852681636810303
1761397434875163000,7.567162841796875,13.58769702911377,-1.9589412212371826,6.546979904174805
1761397434894526500,7.5865263671875,8.858936309814453,-2.163935422897339,6.057107448577881
1761397434913917000,7.6059169921875,4.250144958496094,-2.0137579441070557,4.842257976531982
1761397434933293800,7.6252939453125,0.1019735336303711,-1.6474130153656006,2.866511821746826
1761397434952657200,7.6446572265625,-3.0497283935546875,-1.377427577972412,1.289595365524292
1761397434972047600,7.664047607421875,-5.339970588684082,-1.218233346939087,0.9641141891479492
1761397434991424800,7.6834248046875,-7.816555976867676,-1.437192678451538,1.4473726749420166
1761397435010788000,7.7027880859375,-10.337615966796875,-2.012512683868408,1.4196696281433105
1761397435030178600,7.722178466796875,-12.273815155029297,-2.4420008659362793,1.4297702312469482
1761397435049555500,7.741555419921875,-12.993431091308594,-2.9607694149017334,0.15981268882751465
1761397435068932600,7.7609326171875,-12.418449401855469,-3.0693724155426025,-0.5888454914093018
1761397435088309500,7.7803095703125,-10.663652420043945,-1.9519925117492676,-0.6903903484344482
1761397435107686400,7.799686279296875,-8.293157577514648,-0.3794364929199219,0.5363254547119141
1761397435127050000,7.819050048828125,3.2507286071777344,1.8595972061157227,0.18784737586975098
1761397435146440400,7.8384404296875,15.217924118041992,3.5793070793151855,1.0565145015716553
1761397435165817300,7.8578173828125,16.63669776916504,7.955844402313232,-1.7182899713516235
1761397435185180700,7.8771806640625,12.509748458862305,6.428628921508789,-1.4507390260696411
1761397435204571400,7.8965712890625,17.950464248657227,2.718316078186035,4.275467872619629
1761397435223948300,7.9159482421875,22.011764526367188,-0.07871866226196289,6.799324989318848
1761397435243311600,7.9353115234375,14.71446418762207,-0.6737241744995117,3.7078864574432373
1761397435262702000,7.9547021484375,6.287758827209473,-1.365842342376709,1.8851807117462158
1761397435282079000,7.974078857421875,-0.5241842269897461,-2.440674304962158,1.006420373916626
1761397435301442600,7.993442626953125,-6.074311256408691,-4.5976738929748535,-1.0340579748153687
1761397435320833000,8.0128330078125,-9.137720108032227,-5.723453044891357,-3.1427106857299805
1761397435340210000,8.0322099609375,-11.004915237426758,-6.79736852645874,-2.512662887573242
1761397435359573500,8.051573486328126,-12.38503646850586,-7.907747745513916,-1.2598646879196167
1761397435378964000,8.0709638671875,-12.233454704284668,-8.340742111206055,-1.6176575422286987
1761397435398340900,8.0903408203125,-10.358194351196289,-8.441067695617676,-2.5924904346466064
1761397435417704200,8.1097041015625,-7.873711585998535,-8.059378623962402,-3.6340725421905518
1761397435437094700,8.1290947265625,-5.921225547790527,-6.868020534515381,-3.3233909606933594
1761397435456471800,8.148471923828126,-4.73652982711792,-5.190566062927246,-1.3781185150146484
1761397435475835100,8.167835205078125,-2.766299247741699,-3.566283702850342,1.0175800323486328
1761397435495225600,8.1872255859375,0.9291391372680664,-0.7869839668273926,1.5200564861297607
1761397435514602500,8.2066025390625,3.981457233428955,3.5001912117004395,0.6899147629737854
1761397435533966000,8.225966064453125,5.243063926696777,5.770990371704102,-0.6553902626037598
1761397435553356500,8.2453564453125,8.27918815612793,5.49476957321167,-0.98783940076828
1761397435572733400,8.2647333984375,10.962539672851562,4.131322383880615,1.1427340507507324
1761397435592097000,8.284096923828125,11.16846752166748,2.419116973876953,2.2743418216705322
1761397435611487500,8.303487548828125,9.670270919799805,1.1265907287597656,1.4929118156433105
1761397435630864400,8.322864501953125,4.6921067237854,-0.5061321258544922,1.3256350755691528
1761397435650227700,8.342227783203125,-3.005876064300537,-3.494898796081543,3.4553442001342773
1761397435669618200,8.3616181640625,-7.284847259521484,-1.7436881065368652,-0.2638707160949707
1761397435688995300,8.380995361328125,-9.054685592651367,-0.22734355926513672,-1.675264835357666
1761397435708372200,8.400372314453126,-6.740159034729004,-0.6315321922302246,0.11373841762542725
1761397435727749000,8.4197490234375,-4.199485778808594,-3.305269718170166,0.6821603775024414
1761397435747126000,8.4391259765625,-4.7900390625,-5.303261756896973,-0.22884225845336914
1761397435766489600,8.458489501953125,-2.30757999420166,-4.8271307945251465,1.0239359140396118
1761397435785880000,8.477880126953124,-1.3403630256652832,-3.3316144943237305,0.46621978282928467
1761397435805257000,8.497257080078125,0.9361190795898438,-2.4238147735595703,0.16840720176696777
1761397435824620500,8.51662060546875,2.3532466888427734,0.034943580627441406,-0.27183473110198975
1761397435844011000,8.536010986328124,3.748178482055664,3.943297863006592,-1.100800633430481
1761397435863388000,8.555387939453125,5.279421329498291,6.28387975692749,-2.2828011512756348
1761397435882751500,8.57475146484375,6.718303680419922,5.373815059661865,0.37442746758461
1761397435902141700,8.5941416015625,7.52508544921875,4.326955795288086,1.9201786518096924
1761397435921518800,8.613518798828125,8.614923477172852,3.8160829544067383,0.6470587253570557
1761397435940895700,8.632895751953125,8.334711074829102,2.9590182304382324,0.14508360624313354
1761397435960272600,8.652272705078126,4.696637153625488,1.896822452545166,0.6854607462882996
1761397435979649500,8.6716494140625,-2.476475238800049,0.7399201393127441,2.047450065612793
1761397435999013000,8.69101318359375,-6.826178550720215,-0.9197134971618652,2.27978515625
1761397436018403600,8.710403564453125,-6.694370746612549,-2.541985511779785,0.5661028623580933
1761397436037780500,8.729780517578124,-4.651689052581787,-2.910733222961426,-1.0814427137374878
1761397436057144000,8.74914404296875,-1.5595669746398926,-3.229203701019287,-0.1545998454093933
1761397436076534500,8.768534423828125,0.8453307151794434,-4.226954936981201,1.3510123491287231
1761397436095911400,8.787911376953126,0.35483741760253906,-4.297072410583496,1.6525161266326904
1761397436115288300,8.807288330078125,-0.8963699340820312,-4.410780906677246,1.0315898656845093
1761397436134665200,8.826665283203125,-1.8410706520080566,-3.808990240097046,0.06409895420074463
1761397436154042400,8.84604248046875,-1.0324106216430664,-1.9181461334228516,-1.1198161840438843
1761397436173405700,8.86540576171875,1.1720681190490723,0.512627124786377,-1.7940027713775635
1761397436192796200,8.884796142578125,2.977369785308838,3.6505560874938965,-2.0390686988830566
1761397436212173300,8.90417333984375,6.144430160522461,5.930545806884766,-1.2340373992919922
1761397436231536600,8.92353662109375,7.15522575378418,6.064867973327637,0.08685874938964844
1761397436250927000,8.942927001953125,5.348342418670654,5.9132537841796875,-0.49707961082458496
1761397436270304000,8.962303955078125,2.851386547088623,6.279915809631348,-1.7354748249053955
1761397436289667600,8.98166748046875,1.632270336151123,6.0763959884643555,-1.9699112176895142
1761397436309058000,9.00105810546875,1.3234925270080566,3.3766822814941406,0.23938870429992676
1761397436328435000,9.02043505859375,-0.45444393157958984,-0.3989691734313965,1.845883846282959
1761397436347798500,9.039798583984375,-2.2271761894226074,-3.4904427528381348,1.975157618522644
1761397436367189000,9.05918896484375,-2.8829164505004883,-5.063769340515137,1.1499898433685303
1761397436386566000,9.07856591796875,-3.1783714294433594,-4.766721725463867,-0.10193896293640137
1761397436405929200,9.09792919921875,-4.0590691566467285,-4.454784393310547,-0.4941565990447998
1761397436425319700,9.117319580078124,-4.975827217102051,-5.2610578536987305,1.7081053256988525
1761397436444696800,9.13669677734375,-4.92826509475708,-6.000776290893555,2.81613826751709
1761397436464060200,9.15606005859375,-3.598168134689331,-5.731956958770752,2.0057785511016846
1761397436483450600,9.17545068359375,-1.3608975410461426,-4.520772933959961,0.9008685946464539
1761397436502827500,9.19482763671875,0.10773658752441406,-3.2167372703552246,-0.1458110809326172
1761397436522191000,9.214191162109374,1.4421133995056152,-1.3462133407592773,-0.9600348472595215
1761397436541581600,9.23358154296875,1.6735801696777344,0.4421377182006836,-0.9832459688186646
1761397436560958500,9.25295849609375,1.792935848236084,1.26432466506958,-2.258831024169922
1761397436580322000,9.272322021484374,-0.40564727783203125,2.47611141204834,-2.73228120803833
1761397436599712500,9.29171240234375,-1.6223294734954834,3.611665725708008,1.1257120370864868
1761397436619089400,9.31108935546875,-0.5438661575317383,3.091930389404297,3.5124197006225586
1761397436638452700,9.33045263671875,4.988070964813232,0.9025759696960449,1.2418321371078491
1761397436657843200,9.34984326171875,9.119349479675293,0.5204920768737793,-2.8983163833618164
1761397436677220400,9.369220458984374,7.780332565307617,1.381577968597412,-4.110740661621094
1761397436696583700,9.388583740234376,5.041708946228027,0.7913222312927246,-0.3400666117668152
1761397436715974100,9.40797412109375,3.265380859375,-0.4128150939941406,4.476946830749512
1761397436735351000,9.42735107421875,1.0579833984375,-1.7640151977539062,4.206671714782715
1761397436754714600,9.446714599609376,-1.265601634979248,-2.2478628158569336,0.5061677694320679
1761397436774105000,9.46610498046875,-3.477306604385376,-2.3989710807800293,-0.5664379596710205
1761397436793482000,9.48548193359375,-3.516352891921997,-2.425136089324951,0.5326471328735352
1761397436812845600,9.504845458984375,-2.190891742706299,-3.117555856704712,2.0650126934051514
1761397436832236000,9.524236083984375,-2.200465679168701,-3.9587531089782715,3.065093517303467
1761397436851613000,9.543613037109376,-1.843625545501709,-3.612278461456299,0.9999933242797852
1761397436870976300,9.562976318359375,0.2072310447692871,-2.9610376358032227,-1.667011022567749
1761397436890366700,9.58236669921875,0.11250448226928711,-1.6100754737854004,-0.47756338119506836
1761397436909743900,9.601743896484376,0.7299480438232422,0.23073339462280273,0.09225070476531982
1761397436929107200,9.621107177734375,2.3984036445617676,1.5343432426452637,-0.9047093391418457
1761397436948497700,9.64049755859375,3.223634719848633,2.1444597244262695,-0.8125454187393188
1761397436967874600,9.65987451171875,4.3070478439331055,2.0756144523620605,-0.5324926376342773
1761397436987251700,9.679251708984374,3.6032629013061523,2.436129093170166,-1.6960471868515015
1761397437006628600,9.698628662109375,0.5554347038269043,3.401756763458252,-1.142530918121338
1761397437026005500,9.718005615234375,-2.2946786880493164,5.579934120178223,-0.42008137702941895
1761397437045382400,9.73738232421875,-1.6643757820129395,5.470202922821045,-0.2947351932525635
1761397437064759600,9.756759521484375,0.9966111183166504,0.05971527099609375,1.6568796634674072
1761397437084136400,9.776136474609375,3.459562301635742,-1.8960328102111816,0.22963178157806396
1761397437103500000,9.7955,2.1620712280273438,-1.022690773010254,0.29781675338745117
1761397437122890200,9.81489013671875,-0.6703653335571289,-2.019646644592285,2.981411933898926
1761397437142267400,9.834267333984375,-2.0774073600769043,-2.9218883514404297,3.2957944869995117
1761397437161630700,9.853630615234374,-3.095681667327881,-3.9119396209716797,2.3407936096191406
1761397437181021200,9.873021240234374,-3.973504066467285,-3.626338481903076,0.10009419918060303
1761397437200398000,9.892398193359375,-3.5060276985168457,-3.585012674331665,-0.4704629182815552
1761397437219775200,9.911775146484375,-3.055382251739502,-3.6035966873168945,0.7616038918495178
1761397437239152000,9.931152099609376,-1.9336471557617188,-3.381558895111084,0.8596190214157104
1761397437258529000,9.950529052734375,-0.37404823303222656,-2.707916736602783,0.11107909679412842
1761397437277892600,9.969892578125,0.7234086990356445,-1.4800734519958496,0.10139453411102295
1761397437297283000,9.989282958984376,1.6955571174621582,-0.018082141876220703,-1.300980567932129
1761397437316660000,10.008659912109374,-0.6334304809570312,2.2806262969970703,-2.310603618621826
1761397437336023600,10.0280234375,-4.100920677185059,3.129983901977539,1.5067896842956543
1761397437355413800,10.047413818359376,-3.410438060760498,2.792943000793457,3.5298423767089844
1761397437374791000,10.066791015625,1.8606338500976562,1.3818535804748535,-0.7965717315673828
1761397437394154200,10.086154296875,8.614848136901855,0.297421932220459,-3.0651307106018066
1761397437413544700,10.105544677734375,9.491874694824219,0.8111729621887207,-1.2414820194244385
1761397437432921900,10.124921875,6.335968494415283,1.289257526397705,1.7662603855133057
1761397437452285200,10.14428515625,2.16342830657959,-0.16551446914672852,2.4790873527526855
1761397437471675600,10.163675537109375,-1.6098823547363281,0.4609689712524414,-0.3650519847869873
1761397437491052500,10.183052490234376,-2.0978012084960938,0.8203320503234863,-1.0072308778762817
1761397437510429700,10.2024296875,0.6700539588928223,-0.4127922058105469,-0.0409698486328125
1761397437529806600,10.221806640625,0.7180051803588867,-0.9512557983398438,0.24016213417053223
1761397437549183500,10.24118359375,-0.21613216400146484,-1.180466651916504,0.20861458778381348
1761397437568560400,10.260560302734374,-0.9620819091796875,-1.5700960159301758,-0.13991284370422363
1761397437587937500,10.2799375,-1.688340663909912,-1.5547661781311035,-0.505223274230957
1761397437607314400,10.299314453125,-2.280491828918457,-1.48671293258667,-1.0400841236114502
