time,seconds_elapsed,z,y,x
1761397427433293000,0.12529296875,-0.03649812191724777,-0.15179555118083954,-0.10521844029426575
1761397427452670000,0.144669921875,0.03894151374697685,-0.05131116881966591,0.017714571207761765
1761397427472046800,0.164046875,0.04291202127933502,-0.04856235533952713,0.08643488585948944
1761397427491423700,0.183423828125,-0.008399149402976036,-0.062306419014930725,0.06261184066534042
1761397427510800600,0.202800537109375,-0.021837789565324783,-0.005955760832875967,-0.01847812905907631
1761397427530177800,0.222177734375,0.009315420873463154,0.049020491540431976,-0.09529217332601547
1761397427549554700,0.2415546875,0.04703523963689804,-0.02076880633831024,-0.0978882759809494
1761397427568931600,0.260931640625,0.01572931744158268,-0.10613471269607544,-0.06383354216814041
1761397427588308500,0.28030859375,-0.010842538438737392,-0.02626643143594265,-0.09025268256664276
1761397427607685400,0.299685302734375,-0.0004581354442052543,0.055739812552928925,-0.1441599577665329
1761397427627062300,0.319062255859375,-0.008399149402976036,-0.011453386396169662,-0.14171656966209412
1761397427646439400,0.338439453125,-0.0393996499478817,-0.09086353331804276,-0.14461809396743774
1761397427665816300,0.35781640625,-0.0859767496585846,-0.10170606523752213,-0.1388150453567505
1761397427685193200,0.377193115234375,-0.10048437118530273,-0.15301723778247833,-0.12354385852813721
1761397427704570000,0.396570068359375,-0.13209572434425354,-0.27503398060798645,-0.06306997686624527
1761397427723947000,0.415947021484375,-0.24097923934459686,-0.38513919711112976,0.004275931045413017
1761397427743324000,0.435323974609375,-0.33382803201675415,-0.3695625960826874,0.0261137206107378
1761397427762701000,0.454701171875,-0.3958290219306946,-0.35474956035614014,0.19806721806526184
1761397427782078000,0.474077880859375,-0.37200596928596497,-0.30985227227211,0.6832326650619507
1761397427801441300,0.493441162109375,-0.23105297982692719,-0.45080527663230896,1.1740484237670898
1761397427820831700,0.512831787109375,-0.06184828653931618,-1.1719105243682861,0.9507837295532227
1761397427840208600,0.532208740234375,-0.15057384967803955,-0.37735089659690857,0.28098973631858826
1761397427859572200,0.551572265625,-0.11499200016260147,0.38391751050949097,-0.5242596864700317
1761397427878962700,0.570962646484375,-0.36543938517570496,0.017409147694706917,-1.1960389614105225
1761397427898339600,0.590339599609375,-0.4946335554122925,-1.3476817607879639,-1.6578394174575806
1761397427917703000,0.609702880859375,0.08903098851442337,-1.7902406454086304,-1.6561596393585205
1761397427937093600,0.62909375,0.9834640622138977,-1.2479609251022339,-1.196191668510437
1761397427956470500,0.648470458984375,1.2055070400238037,-1.6980026960372925,-0.6939224600791931
1761397427975833900,0.667833740234375,0.8942803740501404,-2.7216298580169678,-0.2848075330257416
1761397427995224300,0.687224365234375,0.8220477104187012,-3.1548733711242676,0.27289602160453796
1761397428014601200,0.706601318359375,0.878703773021698,-2.2169175148010254,1.151447057723999
1761397428033964800,0.72596484375,0.936581552028656,-0.7229377031326294,1.851325273513794
1761397428053355300,0.745355224609375,0.8510629534721375,-0.2548760175704956,1.825058937072754
1761397428072732200,0.764732177734375,0.6146650314331055,0.25441789627075195,1.1702306270599365
1761397428092095500,0.784095458984375,0.8840487003326416,0.3002314269542694,-0.11835165321826935
1761397428111486000,0.80348583984375,1.112505555152893,-0.37047886848449707,-1.2334532737731934
1761397428130863000,0.822863037109375,0.7995990514755249,-0.7631009221076965,-0.9718579649925232
1761397428150240000,0.842239990234375,0.14431266486644745,-0.023975754156708717,-0.6032116413116455
1761397428169617000,0.861616943359375,-0.1776038408279419,0.19745637476444244,-0.2292204350233078
1761397428188993800,0.880993896484375,-0.06551336497068405,0.04199574887752533,0.0725381150841713
1761397428208357400,0.900357421875,0.5477772951126099,-0.3859027624130249,-0.24540787935256958
1761397428227747800,0.919747802734375,1.511694312095642,-0.9914051294326782,-0.7638645172119141
1761397428247124700,0.939124755859375,2.6287810802459717,-1.3844853639602661,-0.9862129092216492
1761397428266488000,0.958488037109375,3.483051061630249,-1.725338101387024,-0.943759024143219
1761397428285878500,0.97787841796875,3.5222980976104736,-2.6897132396698,-1.472294569015503
1761397428305255400,0.99725537109375,2.7758426666259766,-3.0453789234161377,-2.7810349464416504
1761397428324619000,1.016618896484375,1.8455222845077515,-1.0114103555679321,-3.5016818046569824
1761397428344009500,1.036009521484375,1.7015150785446167,1.2693406343460083,-3.1197495460510254
1761397428363386400,1.055386474609375,1.8511725664138794,1.0682191848754883,-2.4827888011932373
1761397428382749700,1.074749755859375,1.629893183708191,-0.2739650011062622,-1.6172181367874146
1761397428402140200,1.09414013671875,1.3032426834106445,-1.1320526599884033,-0.4080459773540497
1761397428421517000,1.11351708984375,0.8214368224143982,-1.631420373916626,0.6203153729438782
1761397428440880600,1.132880615234375,0.4549284875392914,-1.5158175230026245,1.1464076042175293
1761397428460271000,1.15227099609375,0.21654535830020905,-0.9255862832069397,1.0355387926101685
1761397428479648000,1.17164794921875,-0.2638860046863556,-0.24586601555347443,0.4155288338661194
1761397428499011600,1.191011474609375,-0.6754443645477295,0.631463348865509,-0.2286095917224884
1761397428518401800,1.21040185546875,-0.7965448498725891,1.4096827507019043,-0.6653653979301453
1761397428537779000,1.229779052734375,-0.9008470177650452,1.5292561054229736,-0.8896990418434143
1761397428557142300,1.249142333984375,-0.7785248160362244,0.848924994468689,-1.192984700202942
1761397428576532700,1.26853271484375,-0.42240089178085327,0.2214321345090866,-1.0298885107040405
1761397428595909600,1.28790966796875,-0.16126367449760437,0.6339067220687866,-0.042453885078430176
1761397428615273200,1.307273193359375,0.00259610079228878,1.3571498394012451,0.2483094036579132
1761397428634663700,1.32666357421875,0.6204680800437927,1.000720500946045,-0.01817270554602146
1761397428654040600,1.34604052734375,1.5260491371154785,-0.6281036734580994,0.9564340710639954
1761397428673404000,1.36540380859375,1.3670761585235596,-1.4228159189224243,2.855558156967163
1761397428692794400,1.38479443359375,0.5292991399765015,-0.3965925872325897,3.8747568130493164
1761397428712171300,1.404171142578125,0.222042977809906,1.2670499086380005,2.8911399841308594
1761397428731534800,1.423534912109375,-0.03588727489113808,1.8635423183441162,0.8475505709648132
1761397428750925300,1.44292529296875,-0.3570402264595032,1.5370444059371948,-0.6751389503479004
1761397428770302200,1.46230224609375,-0.2513636350631714,1.0508099794387817,-1.1415208578109741
1761397428789665800,1.481665771484375,-0.10369132459163666,0.5376983284950256,-1.0476030111312866
1761397428809056000,1.501055908203125,-0.2211267054080963,0.29412296414375305,-0.7330167293548584
1761397428828433200,1.52043310546875,-0.25090551376342773,0.279920756816864,-0.23288552463054657
1761397428847796500,1.53979638671875,-0.14018943905830383,0.5691569447517395,0.3968980014324188
1761397428867187000,1.55918701171875,-0.03237490355968475,0.7731798887252808,0.7401941418647766
1761397428886563800,1.578563720703125,-0.03008422814309597,0.7139277458190918,0.710262656211853
1761397428905927400,1.597927490234375,-0.16584503650665283,0.5523586273193359,0.45859357714653015
1761397428925318000,1.61731787109375,-0.2713688910007477,0.16492876410484314,0.07009471952915192
1761397428944694800,1.63669482421875,-0.14706148207187653,0.09300149232149124,-0.27686652541160583
1761397428964058000,1.65605810546875,0.09437590092420578,0.1985253542661667,-0.5813738703727722
1761397428983448600,1.675448486328125,-0.09468132257461548,0.28404396772384644,-0.9092461466789246
1761397429002825500,1.694825439453125,-0.45141613483428955,-0.05543438717722893,-1.2218471765518188
1761397429022189000,1.71418896484375,0.021837789565324783,-0.4337015450000763,-0.6800256967544556
1761397429041579500,1.73357958984375,1.2954543828964233,-0.7527165412902832,0.15087927877902985
1761397429060956400,1.752956298828125,1.907523274421692,-2.1185710430145264,-0.10246963053941727
1761397429080320000,1.772320068359375,2.209587335586548,-1.4820681810379028,0.6505523324012756
1761397429099710200,1.791710205078125,2.4288814067840576,0.9152019023895264,2.019613742828369
1761397429119087400,1.81108740234375,2.5290603637695312,2.028165578842163,1.9069124460220337
1761397429138450700,1.83045068359375,2.34641695022583,1.724269151687622,0.8498412370681763
1761397429157841200,1.849841064453125,1.870566964149475,1.1734375953674316,-0.30786702036857605
1761397429177218000,1.869218017578125,1.217876672744751,0.8058602213859558,-1.001025915145874
1761397429196581600,1.88858154296875,0.5812211632728577,0.548082709312439,-0.9448279738426208
1761397429215972000,1.90797216796875,0.09055810421705246,0.48104220628738403,-0.49524441361427307
1761397429235349000,1.927348876953125,-0.41415444016456604,0.603975236415863,-0.1522536724805832
1761397429254712600,1.946712646484375,-0.9040539264678955,0.7175928354263306,0.08826743066310883
1761397429274102800,1.966102783203125,-1.4115153551101685,0.5082249045372009,0.28343313932418823
1761397429293480000,1.98547998046875,-1.8476603031158447,0.34940463304519653,0.4193466305732727
1761397429312843300,2.00484326171875,-2.053363084793091,0.47707170248031616,0.6152759194374084
1761397429332233700,2.024233642578125,-2.0008301734924316,0.46989426016807556,0.8012788891792297
1761397429351610600,2.043610595703125,-1.8684290647506714,0.2367033064365387,0.8134958148002625
1761397429370987500,2.062987548828125,-1.692046880722046,-0.30282753705978394,0.6027535200119019
1761397429390364700,2.08236474609375,-1.562394618988037,-1.3634110689163208,0.15805672109127045
1761397429409741600,2.101741455078125,-1.5155121088027954,-2.019002914428711,-0.08047912269830704
1761397429429105000,2.12110498046875,-1.219098448753357,-0.8521319031715393,0.43049460649490356
1761397429448495400,2.140495361328125,-0.08231166750192642,0.004428642801940441,0.11972606182098389
1761397429467872300,2.159872314453125,0.46516019105911255,-1.4805409908294678,-1.6031686067581177
1761397429487235800,2.17923583984375,0.5150969624519348,-2.5334889888763428,-1.70533287525177
1761397429506626300,2.198626220703125,1.5755277872085571,-0.5263976454734802,0.26464956998825073
1761397429526003200,2.218003173828125,2.650160789489746,1.3699777126312256,0.9428427219390869
1761397429545366800,2.23736669921875,2.6913931369781494,1.36371648311615,0.5071559548377991
1761397429564757200,2.25675732421875,1.955322027206421,0.7643226385116577,-0.08964183181524277
1761397429584134100,2.276134033203125,1.4571760892868042,0.42637139558792114,-0.4909684956073761
1761397429603497500,2.29549755859375,1.3143905401229858,0.1572931706905365,-0.5367820262908936
1761397429622888000,2.314887939453125,1.1056334972381592,-0.09910997003316879,-0.13469181954860687
1761397429642264800,2.334264892578125,0.7087355256080627,-0.3778090178966522,0.4485146105289459
1761397429661628400,2.35362841796875,0.14080029726028442,-0.462564080953598,0.8246437907218933
1761397429681019000,2.373018798828125,-0.4280512034893036,-0.2641914486885071,0.8263236284255981
1761397429700395800,2.392395751953125,-0.8183826208114624,0.1916533261537552,0.5221216678619385
1761397429719759400,2.41175927734375,-1.0085088014602661,0.4679090082645416,0.1423274129629135
1761397429739149600,2.431149658203125,-1.0230164527893066,0.3446705639362335,-0.012980503961443901
1761397429758526700,2.450526611328125,-1.0463813543319702,0.07207997888326645,0.22097399830818176
1761397429777903600,2.469903564453125,-1.0830321311950684,-0.29839888215065,0.5969504714012146
1761397429797280500,2.489280517578125,-1.2268867492675781,-0.487761527299881,0.679872989654541
1761397429816657400,2.508657470703125,-1.3825000524520874,-0.4162923991680145,0.5329642295837402
1761397429836021000,2.52802099609375,-1.2543748617172241,-0.08857285231351852,0.05008947476744652
1761397429855411500,2.547411376953125,-0.7612683773040771,-1.7334318161010742,-1.398687481880188
1761397429874788400,2.566788330078125,-1.1018157005310059,-5.763496398925781,-2.774773597717285
1761397429894151700,2.586151611328125,-1.2737692594528198,-4.599374294281006,-0.3220692276954651
1761397429913542100,2.605542236328125,-0.446529358625412,-0.20600824058055878,1.8939319849014282
1761397429932919300,2.624919189453125,0.6212316751480103,2.9600131511688232,1.2145171165466309
1761397429952282600,2.64428271484375,0.6748335361480713,3.5746781826019287,-0.15378080308437347
1761397429971673000,2.663673095703125,0.3110739588737488,2.3409194946289062,-0.7330167293548584
1761397429991050000,2.683050048828125,0.056961506605148315,1.255749225616455,-0.7693621516227722
1761397430010413600,2.70241357421875,0.036039989441633224,1.1931374073028564,-0.6791094541549683
1761397430029804000,2.721803955078125,0.1847812980413437,1.5171918869018555,-0.47798797488212585
1761397430049181000,2.741180908203125,0.2811424434185028,1.611262321472168,-0.20188501477241516
1761397430068544300,2.760544189453125,0.2748812735080719,1.3606622219085693,0.11270131915807724
1761397430087934700,2.779934814453125,0.24785128235816956,0.8738170266151428,0.4819584786891937
1761397430107311600,2.7993115234375,0.09009996801614761,0.41827765107154846,0.5971031785011292
1761397430126675200,2.81867529296875,-0.15057384967803955,0.27442312240600586,0.48104220628738403
1761397430146065700,2.838065673828125,-0.4874561131000519,0.10094250738620758,0.23532891273498535
1761397430165442600,2.857442626953125,-0.6572716236114502,-0.2244863659143448,-0.0853659063577652
1761397430184806100,2.87680615234375,-0.6259657144546509,-0.46424391865730286,0.15179555118083954
1761397430204196400,2.8961962890625,-0.6875085830688477,-0.3309265077114105,1.0016367435455322
1761397430223573500,2.915573486328125,-0.5169295072555542,0.3127537965774536,1.8580446243286133
1761397430242936800,2.934936767578125,0.1979145109653473,0.8386932611465454,1.4579397439956665
1761397430262327300,2.954327392578125,0.1169772520661354,-0.7748597264289856,-0.4963133931159973
1761397430281704200,2.9737041015625,-0.9591829180717468,-2.970397472381592,-1.657686710357666
1761397430301067800,2.99306787109375,-1.3304253816604614,-0.9359707236289978,-0.5120427012443542
1761397430320458200,3.012458251953125,-0.6807892918586731,2.6574909687042236,0.8270871639251709
1761397430339835100,3.031835205078125,0.35261157155036926,3.2388648986816406,1.4069339036941528
1761397430359198700,3.05119873046875,0.8948912620544434,1.2450593709945679,2.1828627586364746
1761397430378589200,3.070589111328125,0.911384105682373,-0.7203416228294373,2.656116485595703
1761397430397966000,3.089966064453125,0.8681666851043701,-1.2937744855880737,2.042367696762085
1761397430417329400,3.109329345703125,0.4993676245212555,-0.7212579250335693,0.6180247068405151
1761397430436719900,3.128719970703125,-0.41262730956077576,-0.1447708010673523,-0.8199097514152527
1761397430456096800,3.1480966796875,-0.9779664874076843,0.2591519355773926,-1.6738742589950562
1761397430475460400,3.16746044921875,-0.9875873327255249,0.23929941654205322,-1.8869072198867798
1761397430494850800,3.186850830078125,-0.6050441861152649,-0.16966283321380615,-1.5370444059371948
1761397430514227700,3.206227783203125,-0.1238492801785469,-0.1951656937599182,-0.7963921427726746
1761397430533604600,3.2256044921875,0.15897299349308014,0.03894151374697685,-0.037261683493852615
1761397430552981500,3.2449814453125,0.19928891956806183,0.23273280262947083,0.5233433842658997
1761397430572358700,3.264358642578125,0.27686652541160583,0.4324798583984375,0.7214106321334839
1761397430591722000,3.283721923828125,0.3965925872325897,0.42453885078430176,0.776692271232605
1761397430611112400,3.303112548828125,0.4784461259841919,0.1904316395521164,0.8664868474006653
1761397430630489300,3.3224892578125,0.6658235192298889,0.04031591862440109,0.7876875400543213
1761397430649853000,3.34185302734375,1.1355650424957275,-1.3614258766174316,-0.8150229454040527
1761397430669243400,3.361243408203125,0.28725093603134155,-5.996076583862305,-4.202323913574219
1761397430688620300,3.380620361328125,-0.5983248949050903,-5.178152084350586,-3.777632236480713
1761397430707984000,3.39998388671875,-0.19837264716625214,2.1338422298431396,0.44301697611808777
1761397430727374000,3.4193740234375,0.1832541823387146,4.5631818771362305,1.8922520875930786
1761397430746751200,3.438751220703125,0.2635805904865265,3.3375167846679688,2.28243088722229
1761397430766114600,3.458114501953125,0.19241689145565033,1.5740007162094116,2.3879547119140625
1761397430785505000,3.477505126953125,0.29503923654556274,0.6439857482910156,1.6593666076660156
1761397430804882000,3.4968818359375,0.42224815487861633,0.3755183517932892,0.8015843033790588
1761397430824245500,3.51624560546875,0.2608317732810974,0.15408621728420258,0.25976279377937317
1761397430843636000,3.535635986328125,-0.0841442123055458,-0.08933641016483307,-0.06673506647348404
1761397430863012900,3.555012939453125,-0.2895416021347046,-0.08994726091623306,-0.3817795515060425
1761397430882376200,3.574376220703125,-0.3581092059612274,-0.023364907130599022,-0.6716265678405762
1761397430901767000,3.593766845703125,-0.2539597451686859,-0.2163926362991333,-0.7698202729225159
1761397430921143800,3.613143798828125,-0.13942588865756989,-0.5909947156906128,-0.7298097610473633
1761397430940507100,3.632507080078125,-0.18310146033763885,-1.0373713970184326,-0.7065975666046143
1761397430959897600,3.651897705078125,-0.18081079423427582,-1.4906200170516968,-0.6875085830688477
1761397430979274500,3.6712744140625,-0.17180079221725464,-1.5660597085952759,-0.6384881138801575
1761397430998638000,3.69063818359375,-0.09743013978004456,-1.1867234706878662,-0.2686200737953186
1761397431018028500,3.710028564453125,-0.05894676223397255,-0.6872031688690186,0.5905365943908691
1761397431037405400,3.729405517578125,0.0050394898280501366,-0.4680617153644562,1.2505570650100708
1761397431056769000,3.74876904296875,0.43141087889671326,-1.3908991813659668,1.0216420888900757
1761397431076159200,3.7681591796875,0.7689039707183838,-2.9282491207122803,0.9920159578323364
1761397431095536400,3.787536376953125,0.8305995464324951,-1.9919729232788086,2.5495238304138184
1761397431114899700,3.806899658203125,0.9428427219390869,0.17118994891643524,3.133493661880493
1761397431134290200,3.826290283203125,0.8050966858863831,1.3673815727233887,1.8853800296783447
1761397431153667000,3.8456669921875,0.30817243456840515,1.2094775438308716,0.36818817257881165
1761397431173030700,3.86503076171875,-0.25212720036506653,0.5445703268051147,-0.5496098399162292
1761397431192421000,3.884421142578125,-0.5010474920272827,0.2996205687522888,-0.7299624681472778
1761397431211798000,3.903798095703125,-0.6581879258155823,0.5954233407974243,-0.6381826996803284
1761397431231161600,3.92316162109375,-0.8646543025970459,0.9674293398857117,-0.20524467527866364
1761397431250552000,3.942552001953125,-1.2137534618377686,1.090820550918579,0.40712970495224
1761397431269929000,3.961928955078125,-1.5570496320724487,1.0498937368392944,0.82082599401474
1761397431289292300,3.981292236328125,-1.7809251546859741,0.9542961120605469,0.9310839176177979
1761397431308682800,4.000682861328125,-1.896069884300232,0.8212841153144836,0.6563553810119629
1761397431328059600,4.0200595703125,-1.900651216506958,0.5833591222763062,0.20707722008228302
1761397431347423200,4.03942333984375,-1.8317781686782837,0.03420744836330414,-0.319320410490036
1761397431366813700,4.058813720703125,-1.5683503150939941,-0.5129590034484863,-0.6725428104400635
1761397431386190600,4.078190673828125,-1.3684505224227905,-0.7988355159759521,-0.8031114339828491
1761397431405554200,4.09755419921875,-1.3012573719024658,-0.9910996556282043,-0.8217422962188721
1761397431424944600,4.116944580078125,-1.1406044960021973,-0.710262656211853,-1.0231691598892212
1761397431444321500,4.136321533203125,-0.6235223412513733,0.42484426498413086,-1.2572764158248901
1761397431463684900,4.155684814453125,0.3196258246898651,0.9177979826927185,-1.0799779891967773
1761397431483075300,4.175075439453125,0.7698202729225159,-0.8539644479751587,-1.1859599351882935
1761397431502452500,4.194452392578125,0.6691831946372986,-2.1596505641937256,-0.41507071256637573
1761397431521815800,4.21381591796875,0.8880192041397095,-0.8832851648330688,0.5787777900695801
1761397431541206300,4.233206298828125,0.9713998436927795,1.0283613204956055,0.38636088371276855
1761397431560583200,4.252583251953125,0.5210527181625366,2.097496747970581,-0.3877353072166443
1761397431579946800,4.27194677734375,-0.09330692142248154,2.0547375679016113,-0.6743753552436829
1761397431599337200,4.291337158203125,-0.594507098197937,1.372573733329773,-0.647803544998169
1761397431618714000,4.310714111328125,-0.7166765332221985,0.6923953890800476,-0.4515688419342041
1761397431638077400,4.330077392578125,-0.5871769189834595,0.08979454636573792,0.07299624383449554
1761397431657468000,4.349468017578125,-0.5844281315803528,-0.49203747510910034,0.8812998533248901
1761397431676844800,4.3688447265625,-0.8118160367012024,-0.9833113551139832,1.745954155921936
1761397431696208400,4.38820849609375,-1.1303728818893433,-1.2549856901168823,2.299992561340332
1761397431715598800,4.407598876953125,-1.2830846309661865,-1.4046432971954346,2.4349899291992188
1761397431734975700,4.426975830078125,-1.1505308151245117,-1.5312414169311523,2.1312460899353027
1761397431754352600,4.4463525390625,-0.9074136018753052,-1.7687082290649414,1.5323103666305542
1761397431773729800,4.465729736328125,-0.8944330811500549,-2.082530975341797,0.7496622800827026
1761397431793106700,4.485106689453125,-1.1682454347610474,-2.2951059341430664,-0.07711946964263916
1761397431812470000,4.504469970703125,-1.568044900894165,-2.212946891784668,-0.8119687438011169
1761397431831860500,4.523860595703125,-1.7464122772216797,-0.7762341499328613,-0.8321266770362854
1761397431851237600,4.543237548828125,-1.2717839479446411,0.9868237376213074,-0.36574479937553406
1761397431870601000,4.56260107421875,-0.3775036036968231,0.49738237261772156,-1.0005677938461304
1761397431889991400,4.581991455078125,-0.08796200156211853,-1.2610942125320435,-2.3019778728485107
1761397431909368300,4.601368408203125,0.043828289955854416,-1.5507885217666626,-2.499281644821167
1761397431928732000,4.62073193359375,0.4683671295642853,-0.2429644912481308,-1.4631319046020508
1761397431948122400,4.640122314453125,0.8738170266151428,1.043174386024475,-0.510515570640564
1761397431967499300,4.659499267578125,1.0680664777755737,1.1474765539169312,-0.35627666115760803
1761397431986862800,4.67886279296875,0.9497147798538208,0.3578037917613983,-0.5036435723304749
1761397432006253000,4.698253173828125,0.6473453640937805,-0.4271349310874939,-0.6308525204658508
1761397432025630200,4.717630126953125,0.47859883308410645,-0.6371136903762817,-0.7209524512290955
1761397432044993500,4.73699365234375,0.4966188073158264,-0.5909947156906128,-0.7539382576942444
1761397432064384000,4.756384033203125,0.4408790171146393,-0.5346440672874451,-0.7172874212265015
1761397432083761000,4.775760986328125,0.3029802441596985,-0.7456917762756348,-0.6187883019447327
1761397432103138000,4.795137939453125,0.11147962510585785,-0.9229902029037476,-0.5856497883796692
1761397432122515000,4.814514892578125,-0.08933641016483307,-1.1063971519470215,-0.7994463443756104
1761397432141891800,4.833891845703125,-0.0841442123055458,-1.286138892173767,-1.2174185514450073
1761397432161255400,4.85325537109375,-0.04993676394224167,-1.209324836730957,-1.2734638452529907
1761397432180645600,4.872645751953125,-0.026571854948997498,-0.2767138183116913,-0.3968980014324188
1761397432200022800,4.892022705078125,0.16691401600837708,1.042563557624817,0.6986565589904785
1761397432219386000,4.91138623046875,0.869846522808075,0.9839222431182861,0.8011261820793152
1761397432238776600,4.930776611328125,1.1879452466964722,-1.1358704566955566,-0.15744587779045105
1761397432258153700,4.95015380859375,0.834570050239563,-2.661003351211548,-1.0069817304611206
1761397432277517000,4.96951708984375,0.3593308925628662,-0.5154023766517639,-0.8866447806358337
1761397432296907500,4.988907470703125,0.3764346241950989,2.5044736862182617,-0.8561024069786072
1761397432316284400,5.008284423828125,0.3746020793914795,3.0044522285461426,-0.6476507782936096
1761397432335648000,5.02764794921875,0.049020491540431976,0.99736088514328,0.3086305856704712
1761397432355038500,5.04703857421875,-0.48424917459487915,-1.580872654914856,1.2154333591461182
1761397432374415400,5.066415283203125,-1.1056334972381592,-2.2433366775512695,1.2409361600875854
1761397432393778700,5.08577880859375,-1.4544273614883423,-1.1538904905319214,0.4214846193790436
1761397432413169200,5.105169189453125,-1.6451643705368042,0.168899267911911,-0.46607646346092224
1761397432432546300,5.12454638671875,-1.7450379133224487,0.6158867478370667,-0.5848862528800964
1761397432451909600,5.14390966796875,-1.738776683807373,0.3662029206752777,0.023212196305394173
1761397432471300000,5.163300048828125,-1.444806456565857,-0.11117420345544815,0.7737907767295837
1761397432490677000,5.182677001953125,-0.8079982399940491,-0.5370874404907227,1.1375503540039062
1761397432510040600,5.20204052734375,-0.4627167880535126,-0.8875610828399658,0.9216157793998718
1761397432529431000,5.22143115234375,-0.45950984954833984,-1.5420838594436646,0.38636088371276855
1761397432548808000,5.240807861328125,-0.6024481058120728,-1.6248537302017212,0.1566823273897171
1761397432568171300,5.260171142578125,-0.6702521443367004,-0.538919985294342,0.7627955079078674
1761397432587561700,5.279561767578125,-0.18065807223320007,0.6397097706794739,1.510167121887207
1761397432606939000,5.29893896484375,-0.007024743594229221,-0.11056335270404816,1.165496587753296
1761397432626302200,5.31830224609375,-0.6545228362083435,-0.916270911693573,0.4014793634414673
1761397432645692700,5.337692626953125,-0.8689302206039429,0.9446752667427063,0.007482878863811493
1761397432665069600,5.357069580078125,-0.7224795818328857,3.3376693725585938,-0.6496360301971436
1761397432684433200,5.37643310546875,-0.7192726731300354,3.70005464553833,-0.878703773021698
1761397432703823600,5.39582373046875,-0.5932853817939758,2.1483497619628906,-0.19195875525474548
1761397432723200500,5.415200439453125,-0.6126797795295715,0.333064466714859,0.7762341499328613
1761397432742564000,5.434564208984375,-0.7018635272979736,-0.4450022280216217,1.4020471572875977
1761397432761954600,5.45395458984375,-0.7846332788467407,-0.44271156191825867,1.5999616384506226
1761397432781331500,5.47333154296875,-0.9625425934791565,0.08108997344970703,1.5602566003799438
1761397432800694800,5.49269482421875,-1.2319262027740479,0.6693359017372131,1.5863703489303589
1761397432820085200,5.512085205078125,-1.3307307958602905,0.7809682488441467,1.8438425064086914
1761397432839462400,5.53146240234375,-1.3435585498809814,0.4065188467502594,2.1791975498199463
1761397432858825700,5.55082568359375,-1.0970816612243652,-0.24662958085536957,2.539597511291504
1761397432878216200,5.57021630859375,-0.7989882230758667,-1.0659284591674805,2.742856979370117
1761397432897593000,5.589593017578125,-0.5856497883796692,-1.7745113372802734,2.56540584564209
1761397432916956700,5.608956787109375,-0.5427377820014954,-1.4748907089233398,1.9661645889282227
1761397432936347100,5.62834716796875,-0.8096780180931091,-0.021379653364419937,0.9868237376213074
1761397432955724000,5.64772412109375,-0.9240592122077942,0.8643488883972168,-0.3578037917613983
1761397432975087400,5.66708740234375,-1.329050898551941,0.2286095917224884,-1.4583978652954102
1761397432994477800,5.686477783203125,-1.4255647659301758,0.5485408306121826,-1.376697063446045
1761397433013855000,5.70585498046875,-0.7669187188148499,1.4386980533599854,-0.7154548764228821
1761397433033218300,5.72521826171875,-0.09116895496845245,1.6250064373016357,0.26464956998825073
1761397433052608800,5.74460888671875,0.27976804971694946,0.809983491897583,1.265828251838684
1761397433071985700,5.763985595703125,0.4822639226913452,-0.448820024728775,1.7509936094284058
1761397433091349200,5.783349365234375,0.34543412923812866,-0.9767447710037231,1.4217469692230225
1761397433110739700,5.80273974609375,-0.08276980370283127,-0.3271087110042572,0.4938700199127197
1761397433130116600,5.82211669921875,-0.48302745819091797,0.3599417507648468,-0.3961344361305237
1761397433149480200,5.841480224609375,-0.6763606071472168,0.5940489768981934,-0.5031854510307312
1761397433168870700,5.86087060546875,-0.5723638534545898,0.4039227366447449,0.03802524134516716
1761397433188247600,5.88024755859375,-0.25625041127204895,0.1310267299413681,0.6907155513763428
1761397433207611000,5.89961083984375,-0.07467607408761978,-0.1582094430923462,1.2288719415664673
1761397433227001300,5.91900146484375,-0.20570281147956848,-0.4637857675552368,1.3496670722961426
1761397433246378500,5.93837841796875,-0.3715478479862213,-0.37735089659690857,0.7211052179336548
1761397433265741800,5.957741943359375,-0.48669254779815674,-0.12003148347139359,-0.012980503961443901
1761397433285132300,5.97713232421875,-0.5024218559265137,-0.043981000781059265,0.1385096162557602
1761397433304509200,5.99650927734375,-0.4130854606628418,-0.1629435122013092,0.7262973785400391
1761397433323872800,6.015872802734375,-0.5022691488265991,-0.10002623498439789,0.7580614686012268
1761397433343263200,6.03526318359375,-0.564728319644928,-0.1751604527235031,-0.24220094084739685
1761397433362640100,6.05464013671875,-0.4020902216434479,-0.043828289955854416,-1.4121261835098267
1761397433382003700,6.074003662109375,-0.06765133142471313,0.279920756816864,-1.8216992616653442
1761397433401394000,6.093393798828125,0.034665580838918686,0.2654131352901459,-1.4909254312515259
1761397433420771000,6.11277099609375,0.1692046970129013,-0.037261683493852615,-0.8211314082145691
1761397433440134400,6.132134521484375,0.22647161781787872,-0.3032856583595276,-0.2916795611381531
1761397433459524900,6.15152490234375,0.18600298464298248,-0.39918869733810425,-0.2527380585670471
1761397433478902000,6.170902099609375,0.2507528066635132,-0.36253786087036133,-0.3596363365650177
1761397433498265300,6.190265380859375,0.18661384284496307,-0.38223767280578613,-0.37200596928596497
1761397433517655800,6.20965576171875,-0.04978405311703682,-0.34848836064338684,-0.3602471649646759
1761397433537032700,6.22903271484375,-0.0325276181101799,-0.43583953380584717,-0.31504446268081665
1761397433556409600,6.24840966796875,0.02641914412379265,-0.6629219651222229,-0.2098260372877121
1761397433575786800,6.267786865234375,-0.09804098308086395,-0.5465555787086487,-0.0716218426823616
1761397433595163600,6.28716357421875,-0.20738264918327332,-0.19944162666797638,-0.04749337583780289
1761397433614540500,6.30654052734375,-0.21746163070201874,0.07467607408761978,0.17393875122070312
1761397433633917400,6.32591748046875,-0.1963873952627182,0.015271181240677834,0.5667135715484619
1761397433653294600,6.345294677734375,-0.11942064017057419,-0.06749862432479858,0.753480076789856
1761397433672658000,6.364657958984375,-0.033596597611904144,-0.08765657991170883,0.7693621516227722
1761397433692048400,6.38404833984375,0.05894676223397255,-0.005803049076348543,0.8907679915428162
1761397433711425300,6.40342529296875,0.12339114397764206,0.3828485310077667,0.8632798790931702
1761397433730788900,6.422788818359375,0.021379653364419937,0.279920756816864,0.1957765519618988
1761397433750179300,6.442179443359375,-0.022754060104489326,-0.270452618598938,-0.7207997441291809
1761397433769556200,6.46155615234375,0.19119518995285034,-0.10873081535100937,-1.1764918565750122
1761397433788919800,6.480919921875,0.4193466305732727,0.010689826682209969,-1.2023000717163086
1761397433808310300,6.500310302734375,0.5867187976837158,-0.49982577562332153,-0.8409839868545532
1761397433827687200,6.519687255859375,0.3868190348148346,-0.9387195110321045,-0.32878854870796204
1761397433847050500,6.539050537109375,0.2933593988418579,-0.8490777015686035,-0.2411319613456726
1761397433866441000,6.55844091796875,0.44988900423049927,-0.5002838969230652,-0.5192201733589172
1761397433885818000,6.577818115234375,0.5112791657447815,-0.1832541823387146,-0.5980194807052612
1761397433905181400,6.597181396484375,0.49112120270729065,-0.14828316867351532,-0.4321744441986084
1761397433924572000,6.616572021484375,0.45233240723609924,-0.27533939480781555,-0.27656111121177673
1761397433943948800,6.63594873046875,0.4537068009376526,-0.2476985603570938,-0.3524588644504547
1761397433963312400,6.6553125,0.4938700199127197,-0.17210622131824493,-0.7130114436149597
1761397433982702800,6.674702880859375,0.589314877986908,0.006719320081174374,-1.4151804447174072
1761397434002079700,6.694079833984375,0.6629219651222229,-0.01175880990922451,-2.404294729232788
1761397434021443000,6.713443115234375,0.7525638341903687,-0.5289937257766724,-3.271697998046875
1761397434040833500,6.73283349609375,0.8486195802688599,-0.7841751575469971,-3.3915767669677734
1761397434060210700,6.752210693359375,1.1964970827102661,-0.5202891230583191,-2.4171226024627686
1761397434079574000,6.771573974609375,1.8862963914871216,-0.06978929787874222,-1.1836693286895752
1761397434098964500,6.790964599609375,2.129566192626953,-0.25472331047058105,-0.9927794933319092
1761397434118341400,6.81034130859375,1.8610988855361938,-2.047712802886963,-1.6802880764007568
1761397434137705000,6.829705078125,1.423121452331543,-2.8277647495269775,-2.1677441596984863
1761397434157095400,6.849095458984375,1.4906200170516968,-0.7499676942825317,-2.265479803085327
1761397434176472300,6.868472412109375,1.9232525825500488,1.855448603630066,-2.540513753890991
1761397434195836000,6.8878359375,2.106659412384033,2.690018653869629,-2.5586864948272705
1761397434215226400,6.907226318359375,2.155679941177368,1.5349065065383911,-1.6254645586013794
1761397434234603300,6.926603271484375,1.8951536417007446,-0.4315635859966278,-0.17913095653057098
1761397434253966800,6.945966796875,1.4014363288879395,-1.3632583618164062,0.7653915882110596
1761397434273357000,6.965357177734375,1.0970816612243652,-1.5904935598373413,1.362342119216919
1761397434292734200,6.984734130859375,0.8385405540466309,-1.0379822254180908,1.2270394563674927
1761397434312097500,7.00409765625,0.5464028716087341,-0.28251686692237854,0.45920443534851074
1761397434331488000,7.023488037109375,0.2658712565898895,0.060932014137506485,-0.5523586273193359
1761397434350865000,7.042864990234375,0.0522274412214756,-0.129499614238739,-1.148240089416504
1761397434370228500,7.062228515625,-0.17118994891643524,-0.4900522232055664,-1.0059127807617188
1761397434389619000,7.081618896484375,-0.21349111199378967,-0.8435800671577454,-0.44988900423049927
1761397434408995800,7.100995849609375,0.08154810965061188,-1.032789945602417,0.28541839122772217
1761397434428359400,7.120359375,0.3205420970916748,-0.853506326675415,0.936581552028656
1761397434447750000,7.13975,1.1271659135818481,-1.1748119592666626,0.8003626465797424
1761397434467126800,7.159126708984375,1.6185925006866455,-1.9893767833709717,-0.4211791753768921
1761397434486490000,7.178489990234375,1.3586770296096802,-0.5108210444450378,-0.4694361090660095
1761397434505880600,7.197880615234375,1.2129899263381958,2.1191818714141846,0.8567132949829102
1761397434525257700,7.2172578125,1.5185662508010864,2.806232213973999,1.7074707746505737
1761397434544621000,7.23662109375,1.374406337738037,1.9435632228851318,1.7383185625076294
1761397434564011500,7.256011474609375,0.742637574672699,0.7032378911972046,1.3489034175872803
1761397434583388400,7.275388427734375,0.14858859777450562,-0.04321744292974472,0.9013051390647888
1761397434602752000,7.294751953125,-0.22158484160900116,-0.14217470586299896,0.6189410090446472
1761397434622142500,7.314142578125,-0.4682144224643707,0.034665580838918686,0.43568679690361023
1761397434641519400,7.333519287109375,-0.812274158000946,0.21715620160102844,0.23746687173843384
1761397434660883000,7.352883056640625,-1.3156123161315918,0.44484952092170715,0.08704573661088943
1761397434680273400,7.3722734375,-1.764890432357788,0.5577035546302795,-0.07620319724082947
1761397434699650300,7.391650390625,-2.0231261253356934,0.45523393154144287,-0.17928366363048553
1761397434719014000,7.411013916015625,-1.961430549621582,0.2907632887363434,-0.0922379344701767
1761397434738404000,7.430404052734375,-1.7077761888504028,0.32878854870796204,0.091932512819767
1761397434757781200,7.44978125,-1.4199144840240479,-0.14736689627170563,0.1817270666360855
1761397434777144600,7.46914453125,-1.2936217784881592,-0.7513421177864075,0.30695074796676636
1761397434796535000,7.48853515625,-1.150072693824768,-0.5082249045372009,0.47111594676971436
1761397434815912000,7.507911865234375,-0.36452311277389526,0.2170034945011139,0.34726667404174805
1761397434835275500,7.527275634765625,0.6412369012832642,-0.4712686538696289,-0.6158867478370667
1761397434854666000,7.546666015625,0.7348492741584778,-0.9866710305213928,-1.540556788444519
1761397434874043000,7.56604296875,0.661853015422821,-0.2208212912082672,-1.3206517696380615
1761397434893406500,7.585406494140625,0.8128849864006042,0.99736088514328,-0.6812474131584167
1761397434912797000,7.604796875,0.5967977643013,1.9318044185638428,-0.11896250396966934
1761397434932173800,7.624173828125,0.27029991149902344,2.0781023502349854,0.41827765107154846
1761397434951537200,7.643537109375,-0.021837789565324783,1.4681713581085205,0.8629744648933411
1761397434970927600,7.662927734375,-0.28404396772384644,0.5103628635406494,1.2835427522659302
1761397434990304800,7.6823046875,-0.6633801460266113,-0.4227063059806824,1.6688346862792969
1761397435009668000,7.701668212890625,-1.1578609943389893,-1.2287192344665527,1.7609199285507202
1761397435029058600,7.72105859375,-1.586675763130188,-1.5775130987167358,1.5061966180801392
1761397435048435500,7.740435546875,-1.8560594320297241,-1.3131688833236694,0.9819369912147522
1761397435067812600,7.7598125,-1.890419602394104,-1.0743275880813599,0.29778802394866943
1761397435087189500,7.779189453125,-1.7743586301803589,-1.1851963996887207,-0.42102646827697754
1761397435106566400,7.79856640625,-1.579192876815796,-1.0830321311950684,-1.0346225500106812
1761397435125930000,7.817929931640625,-1.5611728429794312,-1.1216683387756348,-1.3606622219085693
1761397435145320400,7.837320556640625,-1.405864953994751,-0.8130376935005188,-0.10659284889698029
1761397435164697300,7.856697265625,-1.3386718034744263,0.13957859575748444,2.01930832862854
1761397435184060700,7.876060791015625,-1.4429739713668823,-1.1850436925888062,1.9644848108291626
1761397435203451400,7.895451416015625,-1.6657804250717163,-3.0600392818450928,0.3304683566093445
1761397435222828300,7.914828369140625,-1.7322101593017578,-1.45198392868042,0.5725166201591492
1761397435242191600,7.934191650390625,-1.2467392683029175,1.0303466320037842,1.508792757987976
1761397435261582000,7.95358203125,-0.7046123147010803,1.8841583728790283,1.8933210372924805
1761397435280959000,7.972958984375,-0.7482879161834717,1.3032426834106445,2.0700087547302246
1761397435300322600,7.992322509765625,-1.0873081684112549,0.4628695249557495,2.050614356994629
1761397435319713000,8.011713134765625,-0.9903361201286316,-0.00030542362947016954,1.744274377822876
1761397435339090000,8.03108984375,-0.5387672781944275,-0.09972081333398819,1.249488115310669
1761397435358453500,8.05045361328125,-0.40010493993759155,0.2357870489358902,0.5028799772262573
1761397435377844000,8.069843994140625,-0.49921491742134094,0.8582404255867004,-0.3277195692062378
1761397435397220900,8.089220947265625,-0.5630484819412231,1.3837217092514038,-0.8269344568252563
1761397435416584200,8.108584228515625,-0.4052971601486206,1.2939271926879883,-0.8887827396392822
1761397435435974700,8.127974609375,0.02504473738372326,0.7040014863014221,-0.5909947156906128
1761397435455351800,8.147351806640625,0.3286358118057251,0.07559234648942947,-0.19058434665203094
1761397435474715100,8.166715087890625,0.26968905329704285,-0.5720584392547607,-0.06016845628619194
1761397435494105600,8.186105712890624,-0.04978405311703682,-0.7855495810508728,-0.13392825424671173
1761397435513482500,8.205482421875,-0.20524467527866364,-0.18249061703681946,-0.15362808108329773
1761397435532846000,8.22484619140625,-0.3130592107772827,0.8244910836219788,-0.48424917459487915
1761397435552236500,8.244236572265624,-0.4309527277946472,0.6413896083831787,-1.230551838874817
1761397435571613400,8.263613525390625,-0.44271156191825867,-0.29626092314720154,-1.816659688949585
1761397435590977000,8.28297705078125,-0.5989357233047485,-0.28999972343444824,-1.774664044380188
1761397435610367500,8.302367431640626,-0.8183826208114624,-0.42484426498413086,-1.3566917181015015
1761397435629744400,8.321744384765625,-0.8872556686401367,-0.7036960124969482,-0.3968980014324188
1761397435649107700,8.341107666015626,-1.3182083368301392,-0.3837648034095764,0.430341899394989
1761397435668498200,8.360498291015626,-1.8629313707351685,0.6852179169654846,0.8385405540466309
1761397435687875300,8.379875244140624,-1.5921733379364014,1.9770071506500244,0.8305995464324951
1761397435707252200,8.399252197265625,-1.0619579553604126,2.1947741508483887,0.19455485045909882
1761397435726629000,8.418629150390625,-0.49860408902168274,0.39231663942337036,-0.8550334572792053
1761397435746006000,8.438006103515624,0.07024743407964706,-0.6210789680480957,-1.483747959136963
1761397435765369600,8.45736962890625,0.5668662786483765,0.31687700748443604,-0.9500201940536499
1761397435784760000,8.476760009765625,0.9203941226005554,1.2484190464019775,-0.09972081333398819
1761397435804137000,8.496136962890626,1.2678134441375732,0.883895993232727,0.3584146201610565
1761397435823500500,8.51550048828125,1.1645803451538086,0.2241809368133545,0.7276718020439148
1761397435842891000,8.53489111328125,1.0045382976531982,-0.2357870489358902,0.9442171454429626
1761397435862268000,8.554267822265626,0.6809419989585876,-0.5349494814872742,0.8880192041397095
1761397435881631500,8.573631591796875,0.2564031481742859,-0.9802571535110474,0.5838172435760498
1761397435901021700,8.593021728515625,-0.021379653364419937,-0.7921161651611328,-0.21242213249206543
1761397435920398800,8.61239892578125,0.26373329758644104,0.17225892841815948,-0.6838434934616089
1761397435939775700,8.631775634765624,0.5276193022727966,0.7110261917114258,-0.44546034932136536
1761397435959152600,8.651152587890625,0.6079457402229309,0.47294849157333374,0.395218163728714
1761397435978529500,8.670529541015625,0.38880428671836853,-0.1817270666360855,0.9245173335075378
1761397435997893000,8.68989306640625,-0.24937839806079865,-0.19256959855556488,0.5450284481048584
1761397436017283600,8.70928369140625,-0.6812474131584167,-0.19348587095737457,-0.4286620616912842
1761397436036660500,8.728660400390625,-0.4727957844734192,-0.5002838969230652,-1.3020209074020386
1761397436056024000,8.748024169921875,0.0050394898280501366,-0.2796153426170349,-1.3835690021514893
1761397436075414500,8.76741455078125,0.16721943020820618,0.3205420970916748,-0.5292991399765015
1761397436094791400,8.78679150390625,-0.028404397889971733,0.42789849638938904,0.3793361485004425
1761397436114168300,8.806168212890626,-0.20631365478038788,0.7041541934013367,1.0677610635757446
1761397436133545200,8.825545166015624,-0.22051586210727692,0.7107207775115967,1.3507360219955444
1761397436152922400,8.84492236328125,-0.051769305020570755,0.4283566474914551,1.2334532737731934
1761397436172285700,8.86428564453125,0.3038965165615082,0.6656708121299744,1.229330062866211
1761397436191676200,8.88367626953125,0.5082249045372009,0.749204158782959,1.3082821369171143
1761397436211053300,8.90305322265625,0.3781144618988037,0.1519482582807541,1.3785295486450195
1761397436230416600,8.922416748046874,-0.05238015204668045,-0.4265241026878357,1.5008517503738403
1761397436249807000,8.94180712890625,-0.4243861436843872,-0.26755109429359436,1.28018319606781
1761397436269184000,8.96118408203125,-0.38483378291130066,0.07742489129304886,0.38956785202026367
1761397436288547600,8.980547607421874,0.22616620361804962,0.4367557764053345,-0.8793146014213562
1761397436307938000,8.99993798828125,0.6449019908905029,0.6673506498336792,-1.5223840475082397
1761397436327315000,9.01931494140625,0.4534013867378235,0.5376983284950256,-1.364327311515808
1761397436346678500,9.038678466796876,0.04306473210453987,0.40071579813957214,-1.080436110496521
1761397436366069000,9.058069091796876,-0.1898207813501358,0.4343124032020569,-0.8021951913833618
1761397436385446000,9.07744580078125,-0.21425467729568481,0.3823903799057007,-0.48073679208755493
1761397436404809200,9.096809326171876,0.0847550556063652,0.27442312240600586,-0.08551861345767975
1761397436424199700,9.11619970703125,0.2958027720451355,0.21379654109477997,0.07207997888326645
1761397436443576800,9.135576904296874,0.11056335270404816,0.09269607067108154,0.027946261689066887
1761397436462940200,9.154940185546875,-0.19959434866905212,-0.23364907503128052,0.01435491070151329
1761397436482330600,9.17433056640625,-0.3834593594074249,-0.5496098399162292,0.055739812552928925
1761397436501707500,9.19370751953125,-0.22540263831615448,-0.07482878863811493,0.3990359604358673
1761397436521071000,9.213071044921875,0.07925742864608765,0.26632940769195557,0.7634063363075256
1761397436540461600,9.232461669921875,0.3384093940258026,0.5238015055656433,0.8063184022903442
1761397436559838500,9.25183837890625,0.6852179169654846,0.9196305274963379,0.836860716342926
1761397436579202000,9.2712021484375,0.9465078115463257,0.6510104537010193,0.8599202036857605
1761397436598592500,9.290592529296875,0.7258392572402954,-0.42362257838249207,0.10903623700141907
1761397436617969400,9.309969482421875,-0.10918894410133362,-1.295912504196167,-1.5724735260009766
1761397436637332700,9.329332763671875,-0.5318952798843384,-0.7850914597511292,-3.0684385299682617
1761397436656723200,9.34872314453125,-0.06551336497068405,0.4724903404712677,-3.204962968826294
1761397436676100400,9.368100341796875,0.7101099491119385,0.6904101371765137,-2.331145763397217
1761397436695463700,9.387463623046875,1.05142080783844,-0.14965757727622986,-1.346612811088562
1761397436714854100,9.406854248046875,0.5984776020050049,-0.6557445526123047,-0.5375455617904663
1761397436734231000,9.42623095703125,-0.17363333702087402,-0.16217994689941406,0.1298050433397293
1761397436753594600,9.4455947265625,-0.45767730474472046,0.24540787935256958,0.5796940326690674
1761397436772985000,9.464985107421874,-0.1432436853647232,0.3017585575580597,0.6250494718551636
1761397436792362000,9.484362060546875,0.1776038408279419,0.14248012006282806,0.346808522939682
1761397436811725600,9.5037255859375,0.2585411071777344,0.19684553146362305,0.2498365342617035
1761397436831116000,9.523115966796874,0.013591351918876171,0.5505260825157166,0.33978378772735596
1761397436850493000,9.542492919921875,-0.23410721123218536,1.1856545209884644,0.434617817401886
1761397436869856300,9.561856201171874,-0.07895200699567795,0.9744541049003601,0.6149705052375793
1761397436889246700,9.581246826171874,0.17897824943065643,0.5682406425476074,0.9422318935394287
1761397436908624000,9.600623779296875,0.09407047927379608,0.43889376521110535,0.9064973592758179
1761397436927987200,9.6199873046875,-0.0584886260330677,0.3733803927898407,0.7113316059112549
1761397436947377700,9.639377685546876,-0.18523943424224854,0.1979145109653473,0.3883461356163025
1761397436966754600,9.658754638671875,-0.17897824943065643,0.0925433561205864,-0.10766182839870453
1761397436986131700,9.678131591796875,0.041232191026210785,0.45416492223739624,-0.30084228515625
1761397437005508600,9.697508544921876,0.13576079905033112,0.34787750244140625,-0.31443363428115845
1761397437024885500,9.716885498046874,-0.1328592747449875,-0.7098045349121094,-0.893058717250824
1761397437044262400,9.736262451171875,-0.319320410490036,-1.2902621030807495,-1.7873390913009644
1761397437063639600,9.7556396484375,-0.44576579332351685,-0.6493306159973145,-2.1946215629577637
1761397437083016400,9.775016357421874,-0.4034646153450012,0.24601873755455017,-1.6912833452224731
1761397437102380000,9.794380126953126,-0.0198525357991457,0.12583453953266144,-0.7027797698974609
1761397437121770200,9.813770263671875,0.0328330397605896,-0.3507790267467499,0.03802524134516716
1761397437141147400,9.8331474609375,-0.20142687857151031,-0.40514445304870605,0.420873761177063
1761397437160510700,9.8525107421875,-0.4549284875392914,-0.10185877978801727,0.6264238357543945
1761397437179901200,9.871901123046875,-0.44454410672187805,0.288930743932724,0.6885775923728943
1761397437199278000,9.891278076171876,-0.09498675167560577,0.3840702176094055,0.728893518447876
1761397437218655200,9.9106552734375,0.06429167091846466,0.0650552362203598,0.7841751575469971
1761397437238032100,9.9300322265625,-0.037108972668647766,-0.10552386194467545,0.8278507590293884
1761397437257409000,9.949408935546876,0.07024743407964706,-0.07681404054164886,0.9895725846290588
1761397437276772600,9.968772705078125,0.2223484069108963,0.09330692142248154,1.1343433856964111
1761397437296163000,9.9881630859375,0.3042019307613373,0.2921377122402191,1.270104169845581
1761397437315540000,10.0075400390625,0.4396573007106781,0.5428904891014099,1.449082374572754
1761397437334903600,10.026903564453125,0.11377029865980148,0.46241137385368347,0.9089407324790955
1761397437354293800,10.046293701171875,-0.9223793745040894,-0.8335011005401611,-0.7812736630439758
1761397437373671000,10.0656708984375,-1.5509412288665771,-1.1764918565750122,-2.160872220993042
1761397437393034200,10.0850341796875,-0.9782719016075134,-0.37979426980018616,-2.111240863800049
1761397437412424700,10.1044248046875,-0.23593975603580475,-0.09544488787651062,-1.1893196105957031
1761397437431801900,10.1238017578125,-0.23105297982692719,-0.42011019587516785,-0.3309265077114105
1761397437451165200,10.143165283203125,-0.7695148587226868,-0.577861487865448,0.021990500390529633
1761397437470555600,10.1625556640625,-0.9052756428718567,0.06994201242923737,-0.1313321590423584
1761397437489932500,10.1819326171875,-0.3239017724990845,0.6129852533340454,-0.45950984954833984
1761397437509309700,10.201309814453126,-0.13469181954860687,0.6949914693832397,-0.12613995373249054
1761397437528686600,10.2206865234375,-0.2426590770483017,0.3295520842075348,0.48898324370384216
1761397437548063500,10.2400634765625,-0.319320410490036,0.09865183383226395,0.760962963104248
1761397437567440400,10.2594404296875,-0.3274141252040863,0.12339114397764206,0.8528954982757568
1761397437586817500,10.278817626953124,-0.25686126947402954,-0.012827792204916477,0.8009734749794006
1761397437606194400,10.2981943359375,-0.14522893726825714,-0.11774080991744995,0.5708367824554443
