time,seconds_elapsed,z,y,x
1761397427434413000,0.1264130859375,8.38145923614502,5.495715618133545,-2.011167526245117
1761397427453790000,0.1457900390625,8.315656661987305,5.483152866363525,-1.7485551834106445
1761397427473166800,0.165166748046875,7.8819580078125,5.554937839508057,-1.3770694732666016
1761397427492543700,0.184543701171875,7.386045455932617,5.559723377227783,-1.3142578601837158
1761397427511920600,0.203920654296875,7.191030025482178,5.507081508636475,-1.557727575302124
1761397427531297800,0.2232978515625,7.465606689453125,5.416752338409424,-1.7120646238327026
1761397427550674700,0.2426748046875,7.906484127044678,5.341378211975098,-1.5140584707260132
1761397427570051600,0.262051513671875,7.902894973754883,5.299503803253174,-1.2113664150238037
1761397427589428500,0.281428466796875,7.521239757537842,5.268397331237793,-1.2179467678070068
1761397427608805400,0.300805419921875,7.536194801330566,5.183452129364014,-1.2819547653198242
1761397427628182300,0.320182373046875,7.587640762329102,5.155934810638428,-1.1473584175109863
1761397427647559400,0.339559326171875,7.414759159088135,5.188836097717285,-0.9619147181510925
1761397427666936300,0.358936279296875,7.3022966384887695,5.111069202423096,-0.9433703422546387
1761397427686313200,0.378313232421875,7.252645492553711,5.1774702072143555,-1.0163514614105225
1761397427705690000,0.397690185546875,7.268796920776367,5.194818019866943,-0.7423732280731201
1761397427725067000,0.41706689453125,6.967899322509766,5.199005603790283,-0.4205385744571686
1761397427744444000,0.43644384765625,7.253243446350098,5.029713153839111,-0.4695914387702942
1761397427763821000,0.455821044921875,8.339585304260254,5.173880577087402,-0.9696913957595825
1761397427783198000,0.475197998046875,9.705886840820312,5.589633464813232,-0.9146564602851868
1761397427802561300,0.494561279296875,8.658429145812988,5.449055194854736,-0.6753742098808289
1761397427821951700,0.51395166015625,3.521636724472046,4.246063709259033,0.22851456701755524
1761397427841328600,0.53332861328125,0.9649057388305664,5.256433010101318,-0.17527425289154053
1761397427860692200,0.552692138671875,4.55055046081543,8.422137260437012,-1.1479566097259521
1761397427880082700,0.572082763671875,9.710074424743652,8.806185722351074,-1.5864413976669312
1761397427899459600,0.59145947265625,12.476775169372559,9.330811500549316,-3.926621913909912
1761397427918823000,0.610822998046875,14.063217163085938,9.926026344299316,-5.618945598602295
1761397427938213600,0.630213623046875,14.79242992401123,9.050253868103027,-3.6017963886260986
1761397427957590500,0.649590576171875,15.224333763122559,8.305487632751465,-0.47617170214653015
1761397427976953900,0.668953857421875,15.67956829071045,7.2676005363464355,2.6213371753692627
1761397427996344300,0.68834423828125,14.297115325927734,5.1080780029296875,4.301098823547363
1761397428015721200,0.70772119140625,10.296914100646973,2.7936203479766846,4.688137531280518
1761397428035084800,0.727084716796875,6.643074035644531,1.5182459354400635,2.5842485427856445
1761397428054475300,0.746475341796875,3.6023945808410645,0.6340979933738708,0.7884350419044495
1761397428073852200,0.76585205078125,-2.0237298011779785,-0.30628129839897156,-1.7647067308425903
1761397428093215500,0.785215576171875,-3.7950167655944824,-1.4297115802764893,-2.0033907890319824
1761397428112606000,0.80460595703125,0.30209386348724365,-2.001596212387085,0.4821537733078003
1761397428131983000,0.823983154296875,3.046063184738159,-1.7958134412765503,2.7768707275390625
1761397428151360000,0.843360107421875,2.8139593601226807,-3.7914273738861084,3.865006685256958
1761397428170737000,0.86273681640625,3.36969256401062,-1.511067509651184,-0.1178465187549591
1761397428190113800,0.88211376953125,1.0612168312072754,0.37148571014404297,-2.905484914779663
1761397428209477400,0.901477294921875,0.9684949517250061,0.6083751320838928,-3.9810585975646973
1761397428228867800,0.920867919921875,4.460819721221924,2.2444677352905273,-3.1178479194641113
1761397428248244700,0.94024462890625,10.599007606506348,3.9260237216949463,-0.4618147611618042
1761397428267608000,0.959608154296875,14.806188583374023,6.0370917320251465,5.269593715667725
1761397428286998500,0.97899853515625,15.095720291137695,6.387639999389648,14.59741497039795
1761397428306375400,0.99837548828125,17.825929641723633,3.6370904445648193,22.557737350463867
1761397428325739000,1.017739013671875,23.135005950927734,1.031306505203247,21.942781448364258
1761397428345129500,1.03712939453125,24.062822341918945,4.084548473358154,10.29751205444336
1761397428364506400,1.05650634765625,20.80439567565918,4.822135925292969,6.476174354553223
1761397428383869700,1.07586962890625,18.127426147460938,5.277968406677246,5.793023586273193
1761397428403260200,1.09526025390625,13.634902000427246,5.067399978637695,5.916851997375488
1761397428422637000,1.114636962890625,7.536793231964111,5.338387489318848,4.8329033851623535
1761397428442000600,1.134000732421875,1.3256237506866455,6.225526332855225,1.933998942375183
1761397428461391000,1.15339111328125,-3.4995031356811523,4.7988057136535645,1.5966109037399292
1761397428480768000,1.17276806640625,-5.471786975860596,3.9176487922668457,1.5146567821502686
1761397428500131600,1.192131591796875,-5.6207404136657715,4.335196495056152,-1.4075778722763062
1761397428519521800,1.211521728515625,-4.589433670043945,4.241876125335693,-3.026322364807129
1761397428538899000,1.23089892578125,-3.0795626640319824,4.023531436920166,-3.9020955562591553
1761397428558262300,1.25026220703125,-0.08255238085985184,3.270390272140503,-3.9984066486358643
1761397428577652700,1.26965283203125,8.50169849395752,3.328416347503662,-1.4662020206451416
1761397428597029600,1.289029541015625,13.354941368103027,3.6646077632904053,2.8079774379730225
1761397428616393200,1.308393310546875,16.089937210083008,3.6221351623535156,5.085346221923828
1761397428635783700,1.32778369140625,27.552156448364258,1.805384635925293,6.22193717956543
1761397428655160600,1.34716064453125,40.18626022338867,-3.383451223373413,16.54218101501465
1761397428674524000,1.36652392578125,38.06980895996094,-6.960721015930176,27.71307373046875
1761397428693914400,1.385914306640625,22.289142608642578,-4.928018093109131,25.228126525878906
1761397428713291300,1.405291259765625,6.235097408294678,-0.32542386651039124,16.15275001525879
1761397428732654800,1.42465478515625,0.6340979933738708,1.2819547653198242,10.119247436523438
1761397428752045300,1.44404541015625,2.196611166000366,1.7150555849075317,4.642076015472412
1761397428771422200,1.463422119140625,4.110869407653809,1.683350682258606,1.2813565731048584
1761397428790785800,1.482785888671875,4.035495281219482,1.3507484197616577,1.5451651811599731
1761397428810176000,1.502176025390625,3.434896945953369,1.1934202909469604,1.2035897970199585
1761397428829553200,1.52155322265625,2.589632272720337,1.317248821258545,-0.1495514214038849
1761397428848916500,1.54091650390625,0.6855437159538269,1.8317056894302368,-1.4871392250061035
1761397428868307000,1.560306884765625,-1.8687944412231445,1.6390835046768188,-1.8897316455841064
1761397428887683800,1.579683837890625,-3.253042459487915,1.4536397457122803,-1.7934205532073975
1761397428907047400,1.59904736328125,-3.882354736328125,1.322034478187561,-1.6348960399627686
1761397428926438000,1.61843798828125,-3.1130621433258057,1.542174220085144,-2.072782516479492
1761397428945814800,1.637814697265625,-2.022533416748047,2.2408783435821533,-2.4538395404815674
1761397428965178000,1.65717822265625,0.11844471842050552,2.173281192779541,-0.22193430364131927
1761397428984568600,1.676568603515625,3.1591241359710693,1.6414763927459717,2.679363250732422
1761397429003945500,1.695945556640625,10.60678482055664,0.8087740540504456,2.0404794216156006
1761397429023309000,1.71530908203125,20.344974517822266,1.4877375364303589,-2.1445672512054443
1761397429042699500,1.734699462890625,23.463420867919922,0.4043870270252228,0.47976094484329224
1761397429062076400,1.754076416015625,29.087749481201172,-2.864208698272705,9.606584548950195
1761397429081440000,1.77343994140625,35.671600341796875,-5.183452129364014,16.875381469726562
1761397429100830200,1.792830322265625,26.85763931274414,-3.7471601963043213,17.030317306518555
1761397429120207400,1.812207275390625,14.281561851501465,0.12502498924732208,12.628121376037598
1761397429139570700,1.83157080078125,7.69531774520874,2.1278176307678223,10.222138404846191
1761397429158961200,1.850961181640625,5.938387393951416,2.2654049396514893,9.117252349853516
1761397429178338000,1.870338134765625,7.246065139770508,1.7635103464126587,8.436494827270508
1761397429197701600,1.88970166015625,8.109275817871094,1.5565310716629028,6.666403770446777
1761397429217092000,1.909092041015625,5.439484119415283,1.7270197868347168,5.653641700744629
1761397429236469000,1.928468994140625,2.7326035499572754,1.7724833488464355,4.371686935424805
1761397429255832600,1.94783251953125,0.9254241585731506,1.9142581224441528,3.5910286903381348
1761397429275222800,1.967222900390625,-0.0011964113218709826,1.3794622421264648,2.550748825073242
1761397429294600000,1.986599853515625,-0.649053156375885,0.6047859191894531,1.5038890838623047
1761397429313963300,2.00596337890625,-0.7363911867141724,0.4624129831790924,-0.24227328598499298
1761397429333353700,2.025353759765625,-1.1473584175109863,0.6394818425178528,-1.3411771059036255
1761397429352730600,2.044730712890625,-1.500898003578186,0.768694281578064,-1.8843477964401245
1761397429372107500,2.064107421875,-0.4630111753940582,0.8943174481391907,-1.7365909814834595
1761397429391484700,2.083484619140625,2.8486554622650146,1.1413763761520386,-0.9930213689804077
1761397429410861600,2.102861572265625,9.641280174255371,0.8464609980583191,0.0687936544418335
1761397429430225000,2.122224853515625,13.243675231933594,2.806781053543091,-2.5124638080596924
1761397429449615400,2.141615478515625,13.207184791564941,4.752145767211914,-4.491926193237305
1761397429468992300,2.1609921875,21.627527236938477,0.8219345808029175,3.988835334777832
1761397429488355800,2.18035595703125,35.70450210571289,-4.067200183868408,7.878368377685547
1761397429507746300,2.199746337890625,32.57289505004883,-4.3788652420043945,7.0959153175354
1761397429527123200,2.219123291015625,20.401803970336914,-0.8129615187644958,7.529016494750977
1761397429546486800,2.23848681640625,12.54856014251709,2.0273189544677734,9.979267120361328
1761397429565877200,2.257877197265625,7.953144073486328,3.468994617462158,9.500701904296875
1761397429585254100,2.277254150390625,5.8821563720703125,3.3020951747894287,6.570092678070068
1761397429604617500,2.296617431640625,5.429912567138672,2.3736801147460938,5.361119270324707
1761397429624008000,2.316008056640625,4.942375183105469,2.101496458053589,5.181657314300537
1761397429643384800,2.335384765625,2.8869404792785645,2.3976082801818848,5.038087844848633
1761397429662748400,2.35474853515625,-0.06640082597732544,2.5902304649353027,4.77667236328125
1761397429682139000,2.374138916015625,-2.764906644821167,2.5112674236297607,3.830310821533203
1761397429701515800,2.393515869140625,-4.020540237426758,2.053640127182007,2.444268226623535
1761397429720879400,2.41287939453125,-3.393620729446411,1.3932210206985474,1.1318050622940063
1761397429740269600,2.43226953125,-1.4111671447753906,1.0504491329193115,0.5712863802909851
1761397429759646700,2.451646728515625,0.2871387302875519,1.0001999139785767,0.7680960893630981
1761397429779023600,2.471023681640625,0.8213363885879517,0.6765705943107605,1.3028919696807861
1761397429798400500,2.490400390625,2.0757737159729004,1.3022937774658203,1.8861424922943115
1761397429817777400,2.50977734375,5.040481090545654,3.1663026809692383,1.7126628160476685
1761397429837141000,2.52914111328125,8.948558807373047,6.4695940017700195,-0.828514814376831
1761397429856531500,2.548531494140625,17.772689819335938,7.572087287902832,2.2845473289489746
1761397429875908400,2.567908447265625,40.77369689941406,0.32721850275993347,14.042279243469238
1761397429895271700,2.587271728515625,49.61457824707031,-5.8851470947265625,20.391036987304688
1761397429914662100,2.606662109375,28.003801345825195,-1.3567304611206055,13.50748348236084
1761397429934039300,2.626039306640625,11.752946853637695,2.612962245941162,9.657432556152344
1761397429953402600,2.645402587890625,8.828319549560547,3.64127779006958,7.808976650238037
1761397429972793000,2.66479296875,8.394619941711426,3.741178274154663,5.26181697845459
1761397429992170000,2.684169921875,5.970092296600342,3.04307222366333,4.169493675231934
1761397430011533600,2.703533447265625,3.542573928833008,2.2127628326416016,2.7290141582489014
1761397430030924000,2.722924072265625,1.94297194480896,2.184048891067505,1.831107497215271
1761397430050301000,2.742301025390625,0.5629115104675293,2.142174482345581,1.7359927892684937
1761397430069664300,2.761664306640625,-0.19202402234077454,2.5603201389312744,1.2705888748168945
1761397430089054700,2.7810546875,-1.0235298871994019,1.8077775239944458,1.6869399547576904
1761397430108431600,2.800431640625,-2.6213371753692627,1.709073543548584,1.7204394340515137
1761397430127795200,2.819795166015625,-3.163909673690796,1.8646070957183838,2.1379871368408203
1761397430147185700,2.839185546875,-2.7140591144561768,1.6265212297439575,1.6211373805999756
1761397430166562600,2.8585625,1.0432707071304321,1.815554141998291,0.5443671345710754
1761397430185926100,2.877926025390625,7.070192813873291,1.8179470300674438,1.2903295755386353
1761397430205316400,2.89731640625,12.550952911376953,2.6273193359375,2.366501569747925
1761397430224693500,2.916693603515625,12.467802047729492,4.954339504241943,-0.2183450609445572
1761397430244056800,2.936056884765625,9.246464729309082,9.130413055419922,-1.8640087842941284
1761397430263447300,2.955447265625,15.343975067138672,9.747760772705078,4.639683246612549
1761397430282824200,2.97482421875,29.861230850219727,4.607978343963623,12.132208824157715
1761397430302187800,2.994187744140625,33.770503997802734,-0.6125625967979431,12.366705894470215
1761397430321578200,3.013578125,25.098316192626953,-0.5264210104942322,4.718048095703125
1761397430340955100,3.032955078125,19.1665096282959,-0.43609192967414856,1.353141188621521
1761397430360318700,3.052318603515625,14.402399063110352,-0.38225340843200684,3.5874392986297607
1761397430379709200,3.071709228515625,5.595615863800049,0.2584248483181,5.241477966308594
1761397430399086000,3.091086181640625,-2.2474586963653564,2.160120725631714,5.7858452796936035
1761397430418449400,3.110449462890625,-5.123033046722412,3.2745778560638428,8.084151268005371
1761397430437840000,3.12983984375,-3.2416765689849854,3.1148569583892822,6.69990348815918
1761397430457216800,3.149216796875,-0.08015955984592438,1.7850457429885864,2.641077995300293
1761397430476580400,3.168580322265625,2.999403238296509,0.6825526356697083,-0.5808576941490173
1761397430495970800,3.187970703125,5.157131195068359,0.15194423496723175,-1.9938194751739502
1761397430515347700,3.20734765625,4.985445976257324,0.1657029688358307,-1.3728820085525513
1761397430534724600,3.226724609375,3.6951162815093994,0.4582255482673645,-0.05563312768936157
1761397430554101500,3.2461015625,1.3244273662567139,1.0426725149154663,0.04307080805301666
1761397430573478700,3.265478759765625,-0.5641079545021057,1.4656038284301758,-0.8315058946609497
1761397430592842000,3.284842041015625,-0.9373882412910461,2.02492618560791,-0.794417142868042
1761397430612232400,3.304232421875,-1.0193424224853516,3.4091739654541016,-0.924227774143219
1761397430631609300,3.323609375,-2.7014968395233154,7.317849636077881,-3.053241729736328
1761397430650973000,3.342972900390625,-1.4973087310791016,11.720643043518066,-1.0414760112762451
1761397430670363400,3.36236328125,22.327428817749023,8.260622024536133,14.534005165100098
1761397430689740300,3.381740234375,55.43392562866211,-2.4777679443359375,26.429325103759766
1761397430709103900,3.401103759765625,48.23990249633789,-2.767897605895996,20.295921325683594
1761397430728494000,3.420494140625,26.455644607543945,1.1994023323059082,8.758329391479492
1761397430747871200,3.439871337890625,15.056836128234863,1.4117653369903564,5.216951370239258
1761397430767234600,3.459234619140625,4.629513740539551,1.4524433612823486,2.861815929412842
1761397430786625000,3.478625,-1.4757733345031738,1.9334007501602173,1.4003994464874268
1761397430806002000,3.498001953125,-2.4017956256866455,2.2504496574401855,1.8478572368621826
1761397430825365500,3.517365478515625,-2.0709879398345947,2.3784656524658203,2.813361167907715
1761397430844756000,3.536755859375,-2.3545374870300293,2.5232315063476562,2.3336002826690674
1761397430864132900,3.5561328125,-3.0113673210144043,2.4394826889038086,1.3549357652664185
1761397430883496200,3.57549609375,-2.6763720512390137,2.5292134284973145,0.44386860728263855
1761397430902887000,3.594886962890625,-1.6582261323928833,3.1752755641937256,-0.23688943684101105
1761397430922263800,3.614263916015625,-1.1335997581481934,3.579662561416626,0.7040880918502808
1761397430941627100,3.633627197265625,-0.004187439568340778,3.7471601963043213,1.4009976387023926
1761397430961017600,3.653017578125,2.0003998279571533,4.079164505004883,2.0991036891937256
1761397430980394500,3.67239453125,5.794219970703125,4.136591911315918,3.1860432624816895
1761397430999758000,3.691758056640625,11.879766464233398,4.478167533874512,4.068994998931885
1761397431019148500,3.7111484375,18.597017288208008,6.007181167602539,4.439882278442383
1761397431038525400,3.730525390625,22.302902221679688,8.529814720153809,1.2687941789627075
1761397431057889000,3.749888916015625,26.952754974365234,8.899505615234375,1.4775680303573608
1761397431077279200,3.769279296875,35.10928726196289,4.882554531097412,9.146564483642578
1761397431096656400,3.788656494140625,31.61696434020996,2.5495524406433105,13.611571311950684
1761397431116019700,3.808019775390625,15.590435981750488,5.229514122009277,11.386246681213379
1761397431135410200,3.82741015625,6.372684955596924,7.362715244293213,8.538787841796875
1761397431154787000,3.846787109375,4.807180881500244,6.640681266784668,6.812366008758545
1761397431174150700,3.866150634765625,5.583651542663574,4.3280181884765625,5.039882659912109
1761397431193541000,3.885541015625,5.348556995391846,1.363310694694519,4.325026988983154
1761397431212918000,3.90491796875,4.201198577880859,-0.900897741317749,4.085146427154541
1761397431232281600,3.924281494140625,3.376272678375244,-1.8969101905822754,4.215555191040039
1761397431251672000,3.943672119140625,0.9469595551490784,-2.201396942138672,3.899702787399292
1761397431271049000,3.963049072265625,-1.9465612173080444,-2.077568292617798,2.664407968521118
1761397431290412300,3.982412353515625,-4.6163530349731445,-1.812563180923462,1.3334003686904907
1761397431309802800,4.001802734375,-6.3702921867370605,-1.2203395366668701,-0.14835500717163086
1761397431329179600,4.0211796875,-6.302096843719482,-0.6532405614852905,-1.2424731254577637
1761397431348543200,4.040543212890625,-5.119443893432617,-0.23270200192928314,-2.076371908187866
1761397431367933700,4.05993359375,-2.2444677352905273,0.9212366938591003,-2.325225353240967
1761397431387310600,4.079310546875,0.8446664214134216,2.7565317153930664,-1.389631748199463
1761397431406674200,4.098674072265625,5.111069202423096,6.209374904632568,-0.9984052777290344
1761397431426064600,4.118064697265625,9.117850303649902,9.858428955078125,-1.4117653369903564
1761397431445441500,4.137441650390625,17.127824783325195,13.600804328918457,-4.296313285827637
1761397431464804900,4.156804931640625,24.689144134521484,16.32802391052246,-4.95912504196167
1761397431484195300,4.1761953125,32.03152084350586,13.755739212036133,2.0404794216156006
1761397431503572500,4.195572509765625,34.3058967590332,9.689735412597656,7.613961696624756
1761397431522935800,4.214935791015625,24.3068904876709,8.197212219238281,9.136395454406738
1761397431542326300,4.234326171875,13.116257667541504,8.045866012573242,8.989834785461426
1761397431561703200,4.253703125,8.271389961242676,5.855835437774658,8.373682975769043
1761397431581066800,4.273066650390625,6.748956203460693,3.6227335929870605,6.362515449523926
1761397431600457200,4.292457275390625,4.824528694152832,1.466800332069397,4.043870449066162
1761397431619834000,4.311834228515625,4.408775806427002,0.009571290574967861,1.9507486820220947
1761397431639197400,4.331197509765625,4.663012981414795,-0.9529415965080261,1.5439687967300415
1761397431658588000,4.350587890625,4.345963954925537,-1.4865410327911377,2.3258235454559326
1761397431677964800,4.36996484375,2.4287149906158447,-1.7048860788345337,2.669193744659424
1761397431697328400,4.389328369140625,-0.2799602448940277,-1.7252250909805298,1.82273268699646
1761397431716718800,4.40871875,-2.7224340438842773,-1.3938192129135132,0.3164508044719696
1761397431736095700,4.428095703125,-4.2825541496276855,-0.6496513485908508,-0.7010970115661621
1761397431755472600,4.44747265625,-4.019941806793213,-0.21655045449733734,0.9996016621589661
1761397431774849800,4.466849853515625,-2.149951219558716,2.2504496574401855,2.6249263286590576
1761397431794226700,4.486226806640625,2.400001049041748,5.169095039367676,4.975276470184326
1761397431813590000,4.505590087890625,9.329017639160156,8.373085021972656,6.280561447143555
1761397431832980500,4.52498046875,16.8999080657959,10.557731628417969,3.9804604053497314
1761397431852357600,4.544357666015625,17.606388092041016,14.58066463470459,-2.785245656967163
1761397431871721000,4.563720947265625,15.579070091247559,14.746966361999512,-2.4819552898406982
1761397431891111400,4.583111328125,17.737396240234375,10.548160552978516,1.989033818244934
1761397431910488300,4.60248828125,20.796619415283203,6.643074035644531,3.4067811965942383
1761397431929852000,4.621851806640625,17.605791091918945,3.9499518871307373,2.063809633255005
1761397431949242400,4.641242431640625,9.697511672973633,3.5910286903381348,-0.09990034252405167
1761397431968619300,4.660619384765625,3.7429728507995605,2.093719720840454,0.23688943684101105
1761397431987982800,4.67998291015625,0.900897741317749,0.7357929348945618,1.5188441276550293
1761397432007373000,4.699373046875,-0.8386843204498291,0.21176479756832123,1.373480200767517
1761397432026750200,4.718750244140625,-1.6666009426116943,-0.009571290574967861,0.11665010452270508
1761397432046113500,4.738113525390625,-1.6145570278167725,0.16331014037132263,-0.30927231907844543
1761397432065504000,4.75750390625,-0.9930213689804077,0.5832505226135254,-0.1537388563156128
1761397432084881000,4.776880859375,-0.20458634197711945,1.5272190570831299,-0.11006984114646912
1761397432104258000,4.796258056640625,0.355932354927063,2.228316068649292,0.4145565330982208
1761397432123635000,4.815635009765625,2.2193429470062256,3.2817561626434326,0.1902294009923935
1761397432143011800,4.83501171875,6.713662147521973,3.8781673908233643,1.1407781839370728
1761397432162375400,4.85437548828125,15.339787483215332,4.455435752868652,3.8057844638824463
1761397432181765600,4.873765625,22.73002052307129,4.790431022644043,6.565905570983887
1761397432201142800,4.893142822265625,23.58904457092285,6.740581512451172,4.291527271270752
1761397432220506000,4.912506103515625,21.046669006347656,8.74756145477295,3.5258240699768066
1761397432239896600,4.931896484375,21.89193344116211,7.756932735443115,10.086345672607422
1761397432259273700,4.951273681640625,25.222145080566406,4.567898273468018,17.863019943237305
1761397432278637000,4.970636962890625,21.50489616394043,2.958127021789551,17.484355926513672
1761397432298027500,4.990027587890625,14.609378814697266,4.0456647872924805,9.521040916442871
1761397432317404400,5.009404296875,11.638689041137695,5.239683151245117,6.060421466827393
1761397432336768000,5.02876806640625,8.473583221435547,7.180262565612793,6.328417778015137
1761397432356158500,5.048158447265625,1.113858938217163,7.3639116287231445,8.4771728515625
1761397432375535400,5.067535400390625,-6.017949104309082,6.03948450088501,8.029714584350586
1761397432394898700,5.086898681640625,-9.265607833862305,3.965505361557007,6.38883638381958
1761397432414289200,5.1062890625,-6.793821811676025,2.5974090099334717,3.914059638977051
1761397432433666300,5.125666259765625,-2.135594129562378,1.6109678745269775,1.3968101739883423
1761397432453029600,5.145029541015625,0.8189435601234436,0.6765705943107605,-1.423729419708252
1761397432472420000,5.164420166015625,1.368694543838501,0.25363919138908386,-4.296911239624023
1761397432491797000,5.183796875,0.6251249313354492,0.6604190468788147,-4.574478626251221
1761397432511160600,5.20316064453125,2.286342144012451,1.5846468210220337,-2.558525562286377
1761397432530551000,5.222551025390625,7.844869136810303,2.6327030658721924,-0.17527425289154053
1761397432549928000,5.241927978515625,17.24925994873047,4.477569580078125,2.895315408706665
1761397432569291300,5.261291259765625,25.183860778808594,6.563512325286865,3.098705291748047
1761397432588681700,5.280681640625,25.677379608154297,9.161520004272461,2.6045875549316406
1761397432608059000,5.300058837890625,23.41975212097168,10.567901611328125,8.566903114318848
1761397432627422200,5.319422119140625,22.763519287109375,8.665008544921875,13.728819847106934
1761397432646812700,5.338812744140625,16.220346450805664,7.468597888946533,11.828320503234863
1761397432666189600,5.358189453125,10.675578117370605,6.985247611999512,7.777271747589111
1761397432685553200,5.37755322265625,10.523036003112793,6.741179466247559,3.5090744495391846
1761397432704943600,5.396943603515625,10.718050956726074,6.687939167022705,2.485544443130493
1761397432724320500,5.416320556640625,7.134200572967529,6.117250919342041,3.593421459197998
1761397432743684000,5.43568408203125,2.7589244842529297,4.765904426574707,4.218546390533447
1761397432763074600,5.455074462890625,-0.4007977843284607,3.8261234760284424,4.143172264099121
1761397432782451500,5.474451416015625,-1.8143577575683594,2.7038896083831787,4.220340728759766
1761397432801814800,5.493814697265625,-1.2352946996688843,1.6133606433868408,2.613560438156128
1761397432821205200,5.513205322265625,-0.6747759580612183,0.5563312768936157,0.4546363055706024
1761397432840582400,5.53258251953125,-0.33918261528015137,-0.0975075215101242,-1.5385849475860596
1761397432859945700,5.55194580078125,0.0077766734175384045,0.28594231605529785,-3.43908429145813
1761397432879336200,5.571336181640625,-0.24406790733337402,1.5355939865112305,-3.360121250152588
1761397432898713000,5.590713134765625,0.5599204897880554,4.690530776977539,-2.700300455093384
1761397432918076700,5.61007666015625,1.7455641031265259,9.667003631591797,0.8195417523384094
1761397432937467100,5.629467041015625,4.102494239807129,16.497316360473633,0.2350948303937912
1761397432956844000,5.648843994140625,8.054241180419922,19.0402889251709,0.584446907043457
1761397432976207400,5.668207275390625,15.941582679748535,18.16571044921875,3.6197423934936523
1761397432995597800,5.687597900390625,19.517656326293945,15.224333763122559,1.9202401638031006
1761397433014975000,5.70697509765625,18.440288543701172,13.13121223449707,-0.5216353535652161
1761397433034338300,5.72633837890625,14.703296661376953,11.765508651733398,-0.8697910308837891
1761397433053728800,5.745728759765625,8.556734085083008,10.48534870147705,-0.8470591902732849
1761397433073105700,5.765105712890625,1.374078392982483,8.520243644714355,0.33918261528015137
1761397433092469200,5.78446923828125,-4.46979284286499,6.511468410491943,2.5501506328582764
1761397433111859700,5.803859619140625,-6.216553211212158,4.4033918380737305,2.9940192699432373
1761397433131236600,5.823236572265625,-2.506481647491455,2.152942180633545,1.7922241687774658
1761397433150600200,5.84260009765625,2.169093608856201,0.3613162338733673,0.013160524889826775
1761397433169990700,5.86199072265625,4.204189300537109,-0.24227328598499298,-1.7126628160476685
1761397433189367600,5.881367431640625,3.9840497970581055,0.21296121180057526,-2.0584256649017334
1761397433208731000,5.90073095703125,2.4191436767578125,1.8987047672271729,-0.5940182209014893
1761397433228121300,5.920121337890625,-1.6504493951797485,4.406980991363525,0.6729813814163208
1761397433247498500,5.93949853515625,-3.1752755641937256,6.818347930908203,-0.09451649338006973
1761397433266861800,5.95886181640625,1.0917253494262695,8.2157564163208,-0.017946170642971992
1761397433286252300,5.978252197265625,6.819544315338135,10.788041114807129,-1.3112667798995972
1761397433305629200,5.997629150390625,8.109275817871094,12.900903701782227,-1.2610175609588623
1761397433324992800,6.01699267578125,4.771886348724365,14.69073486328125,-1.8849459886550903
1761397433344383200,6.03638330078125,3.2344980239868164,15.453446388244629,-2.740978240966797
1761397433363760000,6.055760009765625,6.839883327484131,15.270994186401367,-3.648456335067749
1761397433383123700,6.075123779296875,11.066804885864258,13.99382495880127,-2.9282166957855225
1761397433402514000,6.094513916015625,12.697513580322266,12.747164726257324,-2.554936408996582
1761397433421891000,6.11389111328125,11.169097900390625,11.270195007324219,-2.416750907897949
1761397433441254400,6.13325439453125,6.934998035430908,9.192028045654297,-0.9906286001205444
1761397433460644900,6.152644775390625,3.2201411724090576,6.999604225158691,-0.631106972694397
1761397433480022000,6.17202197265625,2.231905221939087,5.082355499267578,-0.31405797600746155
1761397433499385300,6.19138525390625,1.8687944412231445,3.482753276824951,1.2394821643829346
1761397433518775800,6.21077587890625,2.115255117416382,2.5663022994995117,0.9996016621589661
1761397433538152700,6.230152587890625,2.851048231124878,2.132603168487549,-0.006580262444913387
1761397433557529600,6.249529541015625,3.5264222621917725,1.8556339740753174,1.031306505203247
1761397433576906800,6.26890673828125,3.2470602989196777,2.0614166259765625,1.6857435703277588
1761397433596283600,6.28828369140625,3.5324044227600098,2.541775941848755,0.8410771489143372
1761397433615660500,6.30766064453125,4.8089752197265625,3.548556089401245,-0.048454657196998596
1761397433635037400,6.327037353515625,4.686941146850586,4.89691162109375,-1.098305583000183
1761397433654414600,6.34641455078125,4.117449760437012,6.97986364364624,-1.7060825824737549
1761397433673778000,6.36577783203125,5.6069817543029785,9.101698875427246,-1.8005990982055664
1761397433693168400,6.38516845703125,6.7076802253723145,11.881561279296875,-1.275374412536621
1761397433712545300,6.404545166015625,5.114658355712891,15.128023147583008,-1.6767704486846924
1761397433731908900,6.423908935546875,4.336392879486084,16.594823837280273,-2.1619153022766113
1761397433751299300,6.44329931640625,6.597012042999268,17.19841194152832,-3.204587697982788
1761397433770676200,6.46267626953125,9.21416187286377,16.278371810913086,-3.0113673210144043
1761397433790039800,6.482039794921875,10.88853931427002,15.27757453918457,-3.047259569168091
1761397433809430300,6.50143017578125,10.856236457824707,12.88654613494873,-0.5832505226135254
1761397433828807200,6.52080712890625,7.709076404571533,9.125627517700195,1.0839486122131348
1761397433848170500,6.54017041015625,3.1800613403320312,5.321039199829102,0.08973085135221481
1761397433867561000,6.55956103515625,1.4973087310791016,1.3758729696273804,0.6831508874893188
1761397433886938000,6.578938232421875,1.072582721710205,-1.8059829473495483,1.8460626602172852
1761397433906301400,6.598301513671875,0.13579268753528595,-3.6604204177856445,2.210369825363159
1761397433925692000,6.61769189453125,-1.7455641031265259,-4.48414945602417,1.7072789669036865
1761397433945068800,6.63706884765625,-3.7112679481506348,-4.730610370635986,0.849452018737793
1761397433964432400,6.656432373046875,-5.184648513793945,-3.9116668701171875,-0.17587246000766754
1761397433983822800,6.67582275390625,-5.813961029052734,-2.6524438858032227,-1.2496516704559326
1761397434003199700,6.69519970703125,-3.5437703132629395,-0.9403793215751648,-1.8963119983673096
1761397434022563000,6.71456298828125,2.583052158355713,1.9537396430969238,-2.51425838470459
1761397434041953500,6.73395361328125,11.569297790527344,5.075775146484375,-2.557927370071411
1761397434061330700,6.75333056640625,20.08894157409668,9.468399047851562,-3.899104595184326
1761397434080694000,6.772694091796875,21.52523422241211,13.607982635498047,-3.3176486492156982
1761397434100084500,6.79208447265625,20.37189292907715,15.568302154541016,0.2847459018230438
1761397434119461400,6.81146142578125,21.88535499572754,13.896317481994629,6.297909259796143
1761397434138825000,6.830824951171875,23.149961471557617,9.838089942932129,10.858031272888184
1761397434158215400,6.85021533203125,18.06820297241211,6.974479675292969,9.136993408203125
1761397434177592300,6.86959228515625,13.122239112854004,4.919643402099609,4.73300313949585
1761397434196956000,6.888955810546875,11.96889877319336,3.2745778560638428,1.8131613731384277
1761397434216346400,6.908346435546875,12.233305931091309,2.331207513809204,1.9058831930160522
1761397434235723300,6.92772314453125,7.112665176391602,1.7988044023513794,4.231706619262695
1761397434255086800,6.9470869140625,3.2063822746276855,1.947757601737976,3.772883176803589
1761397434274477000,6.96647705078125,-1.0360921621322632,2.7589244842529297,2.538186550140381
1761397434293854200,6.985854248046875,-5.227719306945801,3.211168050765991,2.4119651317596436
1761397434313217500,7.005217529296875,-6.657430648803711,3.3924243450164795,2.0691933631896973
1761397434332608000,7.02460791015625,-4.810171604156494,3.451646566390991,1.5302101373672485
1761397434351985000,7.04398486328125,0.4019941985607147,3.1860432624816895,1.9262222051620483
1761397434371348500,7.063348388671875,6.196214199066162,3.0861430168151855,2.827120065689087
1761397434390739000,7.082739013671875,11.645867347717285,3.067000389099121,2.7906293869018555
1761397434410115800,7.10211572265625,16.95494270324707,2.857628345489502,4.768895626068115
1761397434429479400,7.1214794921875,20.985652923583984,4.0905303955078125,4.9878387451171875
1761397434448870000,7.140869873046875,21.669401168823242,5.098506927490234,7.137789726257324
1761397434468246800,7.160246826171875,25.85564422607422,3.7806596755981445,16.695322036743164
1761397434487610000,7.179610107421875,30.830324172973633,0.8321040868759155,21.497716903686523
1761397434507000600,7.19900048828125,25.311277389526367,1.581655740737915,13.768899917602539
1761397434526377700,7.218377685546875,14.975480079650879,3.2763724327087402,7.755736351013184
1761397434545741000,7.237740966796875,7.45364236831665,4.515256404876709,7.040282249450684
1761397434565131500,7.257131591796875,3.1920254230499268,5.091328144073486,6.265007972717285
1761397434584508400,7.27650830078125,1.1670992374420166,4.841278553009033,4.691727161407471
1761397434603872000,7.2958720703125,-0.037088751792907715,4.131208419799805,3.3744781017303467
1761397434623262500,7.315262451171875,-1.1682956218719482,3.4582269191741943,3.005983352661133
1761397434642639400,7.334639404296875,-2.0039889812469482,3.2171499729156494,2.9455647468566895
1761397434662003000,7.3540029296875,-2.3371894359588623,2.857030153274536,2.5489542484283447
1761397434681393400,7.373393310546875,-2.196611166000366,1.8370895385742188,1.3836497068405151
1761397434700770300,7.392770263671875,-0.8033902049064636,1.1431710720062256,0.22612173855304718
1761397434720134000,7.4121337890625,1.0049854516983032,0.9206385016441345,-0.373878538608551
1761397434739524000,7.431524169921875,3.163909673690796,1.2185449600219727,-0.6143572330474854
1761397434758901200,7.4509013671875,7.485347270965576,2.352144718170166,0.6460621356964111
1761397434778264600,7.4702646484375,13.567902565002441,4.633700847625732,2.3395824432373047
1761397434797655000,7.489655029296875,17.157136917114258,6.477969169616699,1.4997016191482544
1761397434817032000,7.509031982421875,17.80738639831543,8.595019340515137,-1.6235301494598389
1761397434836395500,7.5283955078125,18.759130477905273,7.134200572967529,3.5341989994049072
1761397434855786000,7.547785888671875,22.098913192749023,3.7782669067382812,9.993025779724121
1761397434875163000,7.567162841796875,21.88595199584961,2.15653133392334,9.77826976776123
1761397434894526500,7.5865263671875,17.2731876373291,1.7856439352035522,9.193822860717773
1761397434913917000,7.6059169921875,12.786645889282227,1.8765711784362793,7.7114691734313965
1761397434933293800,7.6252939453125,8.715258598327637,2.2953150272369385,5.416153907775879
1761397434952657200,7.6446572265625,5.563910961151123,2.710469961166382,3.597608804702759
1761397434972047600,7.664047607421875,3.187239646911621,3.0999016761779785,3.1716864109039307
1761397434991424800,7.6834248046875,0.5395814776420593,3.191427230834961,3.679563045501709
1761397435010788000,7.7027880859375,-2.210369825363159,2.960519790649414,3.754936933517456
1761397435030178600,7.722178466796875,-4.381258487701416,2.850450038909912,3.865006685256958
1761397435049555500,7.741555419921875,-5.278566837310791,2.5812573432922363,2.609373092651367
1761397435068932600,7.7609326171875,-4.799404144287109,2.620140790939331,1.82273268699646
1761397435088309500,7.7803095703125,-3.067000389099121,3.7740795612335205,1.7060825824737549
1761397435107686400,7.799686279296875,-0.6442674994468689,5.279164791107178,2.925823926925659
1761397435127050000,7.819050048828125,10.995019912719727,7.3878397941589355,2.5746772289276123
1761397435146440400,7.8384404296875,22.93939208984375,9.153144836425781,3.4121651649475098
1761397435165817300,7.8578173828125,24.14118766784668,13.885549545288086,0.46360939741134644
1761397435185180700,7.8771806640625,19.735403060913086,12.698111534118652,0.7232306599617004
1761397435204571400,7.8965712890625,25.004398345947266,9.10229778289795,6.667600154876709
1761397435223948300,7.9159482421875,28.932815551757812,6.455835342407227,9.174081802368164
1761397435243311600,7.9353115234375,21.49113655090332,6.107679843902588,5.787041664123535
1761397435262702000,7.9547021484375,12.885350227355957,5.6823554039001465,3.6269209384918213
1761397435282079000,7.974078857421875,5.827121257781982,4.887938499450684,2.4837498664855957
1761397435301442600,7.993442626953125,-0.017946170642971992,3.015554666519165,0.22911277413368225
1761397435320833000,8.0128330078125,-3.3583266735076904,2.1260228157043457,-2.0380866527557373
1761397435340210000,8.0322099609375,-5.435894966125488,1.2131611108779907,-1.4841482639312744
1761397435359573500,8.051573486328126,-6.906284332275391,0.17527425289154053,-0.3188436031341553
1761397435378964000,8.0709638671875,-6.7040910720825195,-0.27397820353507996,-0.8482556343078613
1761397435398340900,8.0903408203125,-4.695914268493652,-0.44745782017707825,-2.0691933631896973
1761397435417704200,8.1097041015625,-2.0715861320495605,-0.15493527054786682,-3.335594654083252
1761397435437094700,8.1290947265625,-0.029312077909708023,0.9726824164390564,-3.122633457183838
1761397435456471800,8.148471923828126,1.1808580160140991,2.630310297012329,-1.144965648651123
1761397435475835100,8.167835205078125,3.1555347442626953,4.247260093688965,1.3621143102645874
1761397435495225600,8.1872255859375,6.86680269241333,7.0097737312316895,1.9507486820220947
1761397435514602500,8.2066025390625,9.941579818725586,11.280961990356445,1.1108678579330444
1761397435533966000,8.225966064453125,11.280961990356445,13.497912406921387,-0.37806597352027893
1761397435553356500,8.2453564453125,14.504693031311035,13.074980735778809,-0.851844847202301
1761397435572733400,8.2647333984375,17.453845977783203,11.485548973083496,1.252044439315796
1761397435592097000,8.284096923828125,17.912670135498047,9.543174743652344,2.338984251022339
1761397435611487500,8.303487548828125,16.603796005249023,8.066205024719238,1.5044872760772705
1761397435630864400,8.322864501953125,11.682358741760254,6.376274108886719,1.3154542446136475
1761397435650227700,8.342227783203125,3.927220106124878,3.4438700675964355,3.332603693008423
1761397435669618200,8.3616181640625,-0.4821537733078003,5.309075355529785,-0.7322037220001221
1761397435688995300,8.380995361328125,-2.4089741706848145,6.925426959991455,-2.6273193359375
1761397435708372200,8.400372314453126,-0.18305093050003052,6.533003807067871,-1.2681959867477417
1761397435727749000,8.4197490234375,2.4604198932647705,3.7393836975097656,-0.8195417523384094
1761397435747126000,8.4391259765625,2.087737798690796,1.5463616847991943,-1.649253010749817
1761397435766489600,8.458489501953125,4.691727161407471,1.9046868085861206,-0.363709032535553
1761397435785880000,8.477880126953124,5.641079425811768,3.4091739654541016,-0.9708877801895142
1761397435805257000,8.497257080078125,7.849056243896484,4.396213531494141,-1.2215359210968018
1761397435824620500,8.51662060546875,9.165108680725098,6.97986364364624,-1.536790370941162
1761397435844011000,8.536010986328124,10.436295509338379,11.035697937011719,-2.1990039348602295
1761397435863388000,8.555387939453125,11.853445053100586,13.50449275970459,-3.2201411724090576
1761397435882751500,8.57475146484375,13.226924896240234,12.672389030456543,-0.4013960063457489
1761397435902141700,8.5941416015625,14.07697582244873,11.59681510925293,1.2442678213119507
1761397435921518800,8.613518798828125,15.263216972351074,10.999805450439453,-0.013160524889826775
1761397435940895700,8.632895751953125,15.038291931152344,10.088738441467285,-0.5330012440681458
1761397435960272600,8.652272705078126,11.341381072998047,9.084351539611816,0.03170489892363548
1761397435979649500,8.6716494140625,4.035495281219482,8.054241180419922,1.4757733345031738
1761397435999013000,8.69101318359375,-0.4019941985607147,6.471388816833496,1.703689694404602
1761397436018403600,8.710403564453125,-0.2189432680606842,4.7988057136535645,-0.08315058797597885
1761397436037780500,8.729780517578124,2.007578134536743,4.262813568115234,-1.740180253982544
1761397436057144000,8.74914404296875,5.294718265533447,3.7609190940856934,-0.7776673436164856
1761397436076534500,8.768534423828125,7.773682594299316,2.688336133956909,0.7106683254241943
1761397436095911400,8.787911376953126,7.232904434204102,2.6626133918762207,0.9553344249725342
1761397436115288300,8.807288330078125,5.831906795501709,2.681756019592285,0.2153540402650833
1761397436134665200,8.826665283203125,4.689932346343994,3.4504501819610596,-0.875174880027771
1761397436154042400,8.84604248046875,5.315057277679443,5.493920803070068,-2.1242282390594482
1761397436173405700,8.86540576171875,7.328019142150879,8.078767776489258,-2.837887763977051
1761397436192796200,8.884796142578125,8.923434257507324,11.38086223602295,-3.098107099533081
1761397436212173300,8.90417333984375,11.879167556762695,13.823934555053711,-2.2540390491485596
1761397436231536600,8.92353662109375,12.668201446533203,14.1194486618042,-0.8937192559242249
1761397436250927000,8.942927001953125,10.666007041931152,14.093725204467773,-1.516451358795166
1761397436270304000,8.962303955078125,8.103293418884277,14.493925094604492,-2.8253252506256104
1761397436289667600,8.98166748046875,7.010372161865234,14.206188201904297,-3.070589542388916
1761397436309058000,9.00105810546875,6.9236321449279785,11.359925270080566,-0.8303094506263733
1761397436328435000,9.02043505859375,5.343173027038574,7.444071292877197,0.7902296781539917
1761397436347798500,9.039798583984375,3.7256247997283936,4.230510234832764,0.8865407705307007
1761397436367189000,9.05918896484375,3.183650493621826,2.5573291778564453,-0.014955141581594944
1761397436386566000,9.07856591796875,2.950948476791382,2.7906293869018555,-1.347757339477539
1761397436405929200,9.09792919921875,2.073380708694458,3.0957143306732178,-1.7676976919174194
1761397436425319700,9.117319580078124,1.1365907192230225,2.3096721172332764,0.45942193269729614
1761397436444696800,9.13669677734375,1.1778669357299805,1.578664779663086,1.588834285736084
1761397436464060200,9.15606005859375,2.5154547691345215,1.8418751955032349,0.7854440212249756
1761397436483450600,9.17545068359375,4.762913703918457,3.046661376953125,-0.30927231907844543
1761397436502827500,9.19482763671875,6.178866386413574,4.389034748077393,-1.3818551301956177
1761397436522191000,9.214191162109374,7.396214962005615,6.348158359527588,-2.217548370361328
1761397436541581600,9.23358154296875,7.4949188232421875,8.236095428466797,-2.251646041870117
1761397436560958500,9.25295849609375,7.464410305023193,9.167501449584961,-3.528815269470215
1761397436580322000,9.272322021484374,5.113461971282959,10.497312545776367,-3.9320058822631836
1761397436599712500,9.29171240234375,3.882952928543091,11.664412498474121,0.08673982322216034
1761397436619089400,9.31108935546875,5.224728107452393,10.97468090057373,2.6045875549316406
1761397436638452700,9.33045263671875,11.231310844421387,8.416155815124512,0.3475574851036072
1761397436657843200,9.34984326171875,15.813566207885742,7.625925540924072,-3.865604877471924
1761397436677220400,9.369220458984374,14.778671264648438,8.187641143798828,-5.078765869140625
1761397436696583700,9.388583740234376,12.220743179321289,7.427919864654541,-1.1509476900100708
1761397436715974100,9.40797412109375,10.52483081817627,6.154339790344238,3.8428730964660645
1761397436735351000,9.42735107421875,8.306085586547852,4.817350387573242,3.582653760910034
1761397436754714600,9.446714599609376,5.9060845375061035,4.406980991363525,-0.20997019112110138
1761397436774105000,9.46610498046875,3.6059837341308594,4.342973232269287,-1.3465609550476074
1761397436793482000,9.48548193359375,3.5168511867523193,4.369892120361328,-0.24287149310112
1761397436812845600,9.504845458984375,4.807778835296631,3.714258909225464,1.303490161895752
1761397436832236000,9.524236083984375,4.747958183288574,2.9168508052825928,2.2408783435821533
1761397436851613000,9.543613037109376,5.02851676940918,3.31465744972229,-0.01196411345154047
1761397436870976300,9.562976318359375,6.979265213012695,4.041477680206299,-2.823530673980713
1761397436890366700,9.58236669921875,6.744170665740967,5.517251014709473,-1.6857435703277588
1761397436909743900,9.601743896484376,7.225128173828125,7.475776195526123,-1.1581261157989502
1761397436929107200,9.621107177734375,8.784051895141602,8.866005897521973,-2.210968017578125
1761397436948497700,9.64049755859375,9.549755096435547,9.518648147583008,-2.170290231704712
1761397436967874600,9.65987451171875,10.647462844848633,9.430113792419434,-1.92741858959198
1761397436987251700,9.679251708984374,9.974481582641602,9.753743171691895,-3.142972469329834
1761397437006628600,9.698628662109375,6.957729816436768,10.687541961669922,-2.6147570610046387
1761397437026005500,9.718005615234375,4.244867324829102,12.756735801696777,-1.8215361833572388
1761397437045382400,9.73738232421875,5.14576530456543,12.414562225341797,-1.573280930519104
1761397437064759600,9.756759521484375,8.112266540527344,6.6969122886657715,0.4103690981864929
1761397437084136400,9.776136474609375,10.786844253540039,4.489533424377441,-1.1018948554992676
1761397437103500000,9.7955,9.57487964630127,5.258825778961182,-1.0534402132034302
1761397437122890200,9.81489013671875,6.748956203460693,4.267599105834961,1.6923238039016724
1761397437142267400,9.834267333984375,5.303092956542969,3.4199416637420654,2.050050735473633
1761397437161630700,9.853630615234374,4.212564468383789,2.5058834552764893,1.0612168312072754
1761397437181021200,9.873021240234374,3.2404799461364746,2.8773691654205322,-1.2795618772506714
1761397437200398000,9.892398193359375,3.604189157485962,3.016152858734131,-1.9208383560180664
1761397437219775200,9.911775146484375,3.9529430866241455,3.105883836746216,-0.6897311210632324
1761397437239152000,9.931152099609376,4.971088886260986,3.436093330383301,-0.5814558863639832
1761397437258529000,9.950529052734375,6.403791427612305,4.240081787109375,-1.3112667798995972
1761397437277892600,9.969892578125,7.346563816070557,5.618945598602295,-1.3028919696807861
1761397437297283000,9.989282958984376,8.134998321533203,7.248457908630371,-2.7020950317382812
1761397437316660000,10.008659912109374,5.580660820007324,9.739386558532715,-3.720241069793701
1761397437336023600,10.0280234375,1.95852530002594,10.708479881286621,0.062213387340307236
1761397437355413800,10.047413818359376,2.77866530418396,10.259825706481934,2.056631088256836
1761397437374791000,10.066791015625,8.390432357788086,8.536993026733398,-2.3461625576019287
1761397437394154200,10.086154296875,15.447464942932129,7.144370079040527,-4.701298236846924
1761397437413544700,10.105544677734375,16.48774528503418,7.485945701599121,-2.8965117931365967
1761397437432921900,10.124921875,13.39143180847168,7.908876895904541,0.14297115802764893
1761397437452285200,10.14428515625,9.236893653869629,6.4319071769714355,0.841675341129303
1761397437471675600,10.163675537109375,5.474180221557617,7.013961315155029,-2.129014015197754
1761397437491052500,10.183052490234376,5.017749309539795,7.302894592285156,-2.899502754211426
1761397437510429700,10.2024296875,7.77607536315918,6.0466628074646,-2.046461582183838
1761397437529806600,10.221806640625,7.750950813293457,5.563910961151123,-1.8406788110733032
1761397437549183500,10.24118359375,6.716653347015381,5.423930644989014,-1.9262222051620483
1761397437568560400,10.260560302734374,5.855237007141113,5.133800983428955,-2.335394859313965
1761397437587937500,10.2799375,5.023132801055908,5.24327278137207,-2.7355945110321045
1761397437607314400,10.299314453125,4.357928276062012,5.3802618980407715,-3.279961585998535
