time,seconds_elapsed,z,y,x
1761396072650905600,0.211905517578125,0.06371927261352539,0.045609474182128906,0.07000946998596191
1761396072670283300,0.231283203125,0.037152767181396484,0.01503753662109375,-0.002227306365966797
1761396072689660700,0.25066064453125,0.13109064102172852,-0.033036231994628906,-0.14717411994934082
1761396072709038300,0.270038330078125,0.1697402000427246,-0.05144309997558594,-0.09797000885009766
1761396072728416000,0.289416015625,0.090576171875,-0.024184226989746094,0.06732296943664551
1761396072747793700,0.308793701171875,-0.009133338928222656,-0.058915138244628906,0.028286218643188477
1761396072767171300,0.32817138671875,0.03500795364379883,-0.08550643920898438,-0.006840944290161133
1761396072786549000,0.347549072265625,0.3352022171020508,-0.0917668342590332,-0.052933454513549805
1761396072805926700,0.3669267578125,0.4467744827270508,-0.10602331161499023,0.09019780158996582
1761396072825304300,0.38630419921875,0.08330774307250977,0.012082576751708984,0.2629058361053467
1761396072844682000,0.405681884765625,-0.13570690155029297,0.03990030288696289,0.15291690826416016
1761396072864059600,0.4250595703125,0.0363926887512207,-0.023586273193359375,-0.047113656997680664
1761396072883437300,0.444437255859375,0.15044307708740234,-0.07708454132080078,-0.0046651363372802734
1761396072902815000,0.46381494140625,0.0022401809692382812,0.04370260238647461,0.13931536674499512
1761396072922192600,0.483192626953125,-0.026957035064697266,0.07532691955566406,0.2287609577178955
1761396072941570000,0.502570068359375,-0.04472970962524414,0.01492452621459961,0.13060903549194336
1761396072960947700,0.52194775390625,-0.0782766342163086,-0.01769876480102539,-0.027086496353149414
1761396072980325400,0.541325439453125,0.0627899169921875,-0.05928516387939453,-0.0011758804321289062
1761396072999703000,0.560703125,0.044968605041503906,-0.022223472595214844,0.01324009895324707
1761396073019080700,0.580080810546875,0.0988922119140625,-0.010995864868164062,0.0045855045318603516
1761396073038458400,0.599458251953125,-0.010313987731933594,0.008519172668457031,0.15590500831604004
1761396073057836000,0.6188359375,-0.02933788299560547,0.021892070770263672,0.2151806354522705
1761396073077213700,0.638213623046875,-0.12026548385620117,0.027402877807617188,0.25563788414001465
1761396073096591400,0.65759130859375,-0.1367788314819336,-0.0331110954284668,0.15976667404174805
1761396073115969000,0.676968994140625,0.013491630554199219,-0.08667802810668945,-0.003362894058227539
1761396073135346700,0.6963466796875,0.17780590057373047,-0.09207534790039062,-0.04609537124633789
1761396073154724400,0.715724365234375,0.1522541046142578,-0.08782339096069336,0.03546285629272461
1761396073174101800,0.735101806640625,0.040692806243896484,-0.06114387512207031,0.08994436264038086
1761396073193479400,0.7544794921875,-0.13467884063720703,-0.018860340118408203,0.16726899147033691
1761396073212857000,0.773857177734375,-0.11670398712158203,0.03645515441894531,0.052303314208984375
1761396073232234800,0.79323486328125,0.020220279693603516,0.03046560287475586,-0.10163640975952148
1761396073251612400,0.8126123046875,0.2572007179260254,0.003616809844970703,-0.0538938045501709
1761396073270990000,0.831989990234375,0.39322996139526367,-0.062369346618652344,0.156080961227417
1761396073290367700,0.85136767578125,0.34303760528564453,-0.05572795867919922,0.24878454208374023
1761396073309745400,0.870745361328125,0.0659637451171875,0.05363035202026367,0.15231895446777344
1761396073329123000,0.890123046875,-0.1598196029663086,0.06812143325805664,0.007564067840576172
1761396073348500700,0.909500732421875,-0.056256771087646484,-0.02943897247314453,0.04327535629272461
1761396073367878400,0.92887841796875,0.24922561645507812,-0.12447500228881836,0.0838468074798584
1761396073387256000,0.948256103515625,0.41989898681640625,-0.06818628311157227,0.04274606704711914
1761396073406633700,0.9676337890625,0.18504571914672852,-0.04964733123779297,0.02031993865966797
1761396073426011100,0.98701123046875,0.06447744369506836,0.011260986328125,-0.05908370018005371
1761396073445388800,1.006388916015625,-0.10670900344848633,0.00951242446899414,0.08731389045715332
1761396073464766500,1.025766357421875,-0.21303606033325195,0.006402492523193359,0.17790722846984863
1761396073484144000,1.04514404296875,-0.010025501251220703,-0.026508808135986328,0.09459710121154785
1761396073503521800,1.064521728515625,0.25557518005371094,-0.0810542106628418,-0.006470441818237305
1761396073522899500,1.0838994140625,0.4574756622314453,-0.11446332931518555,-0.18683409690856934
1761396073542277000,1.103277099609375,0.30216360092163086,-0.06622982025146484,-0.18951892852783203
1761396073561654800,1.12265478515625,-0.02209329605102539,-0.0016298294067382812,0.1111452579498291
1761396073581032400,1.142032470703125,-0.14998579025268555,0.03332185745239258,0.33989107608795166
1761396073600410000,1.16141015625,-0.24187421798706055,0.03179788589477539,0.3436155319213867
1761396073619787800,1.180787841796875,-0.16409063339233398,0.011847972869873047,0.10215926170349121
1761396073639165200,1.200165283203125,0.12543153762817383,-0.04055929183959961,-0.02702474594116211
1761396073658542800,1.21954296875,0.3387322425842285,-0.07441854476928711,0.10162901878356934
1761396073677920500,1.23892041015625,0.2173442840576172,-0.018755435943603516,0.14194703102111816
1761396073697298200,1.258298095703125,0.08122968673706055,0.021553993225097656,0.0836796760559082
1761396073716675800,1.27767578125,-0.0821380615234375,0.02251911163330078,0.1012120246887207
1761396073736053500,1.297053466796875,0.010145187377929688,0.015157699584960938,0.12735199928283691
1761396073755431200,1.31643115234375,0.16121339797973633,0.019144058227539062,0.07075214385986328
1761396073774808800,1.335808837890625,-0.019100189208984375,0.04090404510498047,0.14687275886535645
1761396073794186500,1.3551865234375,0.011363029479980469,0.0007905960083007812,0.1818162202835083
1761396073813564000,1.37456396484375,0.19019460678100586,-0.037023067474365234,0.02754354476928711
1761396073832941600,1.393941650390625,0.2106480598449707,-0.030656814575195312,-0.05286741256713867
1761396073852319200,1.4133193359375,0.07220792770385742,-0.02525043487548828,0.05962944030761719
1761396073871697000,1.43269677734375,0.054866790771484375,-0.04765939712524414,0.09352588653564453
1761396073891074600,1.452074462890625,0.04583120346069336,-0.04929351806640625,0.036087989807128906
1761396073910452200,1.4714521484375,-0.14880132675170898,-0.04671287536621094,0.03436779975891113
1761396073929830000,1.490829833984375,-0.03280973434448242,-0.07095479965209961,-0.02763843536376953
1761396073949207600,1.51020751953125,0.19389724731445312,-0.08471441268920898,-0.036745309829711914
1761396073968585200,1.529585205078125,0.28745174407958984,-0.08950519561767578,-0.0859367847442627
1761396073987963000,1.548962890625,0.15662145614624023,-0.08502197265625,-0.0939791202545166
1761396074007340500,1.568340576171875,0.015614032745361328,-0.053984642028808594,0.02599620819091797
1761396074026718000,1.587718017578125,-0.060877323150634766,0.013231277465820312,0.13196146488189697
1761396074046095600,1.607095703125,-0.12201213836669922,0.06041145324707031,0.1991060972213745
1761396074065473300,1.626473388671875,-0.09328365325927734,0.03884696960449219,0.1259908676147461
1761396074084851000,1.645850830078125,0.170501708984375,-0.035811424255371094,0.04655146598815918
1761396074104228600,1.665228515625,0.14327239990234375,-0.06388473510742188,0.17392587661743164
1761396074123606300,1.684606201171875,0.08708763122558594,0.016485214233398438,0.024554014205932617
1761396074142984000,1.70398388671875,0.1598215103149414,0.03428936004638672,0.09778952598571777
1761396074162361600,1.723361572265625,0.11411476135253906,0.02927875518798828,0.2605019807815552
1761396074181739000,1.742739013671875,-0.05435466766357422,-0.00887298583984375,0.1764366626739502
1761396074201116700,1.76211669921875,-0.07761907577514648,-0.03943634033203125,0.015871286392211914
1761396074220494300,1.781494384765625,0.0984811782836914,-0.0872201919555664,-0.07521557807922363
1761396074239872000,1.8008720703125,0.15824079513549805,-0.08729696273803711,-0.03924727439880371
1761396074259249700,1.820249755859375,0.06795549392700195,-0.06124162673950195,0.04575371742248535
1761396074278627300,1.83962744140625,-0.09285783767700195,-0.033206939697265625,0.03411102294921875
1761396074298005000,1.8590048828125,-0.10112762451171875,-0.01959228515625,0.013180255889892578
1761396074317382700,1.878382568359375,0.254122257232666,-0.05865955352783203,-0.025049924850463867
1761396074336760300,1.89776025390625,0.33585453033447266,-0.011008262634277344,0.07942962646484375
1761396074356138000,1.917137939453125,0.17403316497802734,0.009962081909179688,0.11688399314880371
1761396074375515600,1.936515625,-0.13163375854492188,0.027528762817382812,0.11587953567504883
1761396074394893000,1.95589306640625,-0.09343194961547852,-0.011200904846191406,0.12097382545471191
1761396074414270700,1.975270751953125,0.07031536102294922,0.000560760498046875,0.07762718200683594
1761396074433648400,1.9946484375,0.17651844024658203,-0.014704704284667969,0.07921171188354492
1761396074453026000,2.014026123046875,0.21424484252929688,-0.03508949279785156,0.10978460311889648
1761396074472403700,2.03340380859375,0.15233087539672852,-0.02970409393310547,0.15107083320617676
1761396074491781400,2.052781494140625,-0.07732200622558594,0.02624034881591797,0.10811471939086914
1761396074511159000,2.072158935546875,-0.15911293029785156,0.00293731689453125,0.15148770809173584
1761396074530536400,2.091536376953125,0.0023403167724609375,-0.042931556701660156,0.16108083724975586
1761396074549914000,2.1109140625,0.1966853141784668,-0.08651924133300781,0.03149127960205078
1761396074569291800,2.130291748046875,0.16930580139160156,-0.08920860290527344,-0.11046123504638672
1761396074588669400,2.14966943359375,-0.003551006317138672,-0.036299705505371094,-0.05921053886413574
1761396074608047000,2.169047119140625,-0.03220558166503906,0.02641582489013672,0.17485284805297852
1761396074627424800,2.1884248046875,0.02491474151611328,0.027170181274414062,0.18218278884887695
1761396074646802400,2.207802490234375,0.13919973373413086,-0.01210784912109375,-0.056203365325927734
1761396074666180000,2.22718017578125,0.31201171875,-0.06402158737182617,-0.25898122787475586
1761396074685557800,2.246557861328125,0.3228321075439453,-0.07401180267333984,-0.12662935256958008
1761396074704935200,2.26593505859375,0.05741262435913086,-0.012784957885742188,0.1057131290435791
1761396074724312800,2.285312744140625,-0.08552742004394531,0.014858245849609375,0.2080150842666626
1761396074743690500,2.3046904296875,-0.0065822601318359375,-0.023542404174804688,0.14946317672729492
1761396074763068200,2.324068115234375,0.030571937561035156,-0.05732536315917969,0.10518479347229004
1761396074782445800,2.34344580078125,-0.09154605865478516,-0.04420661926269531,0.2083362340927124
1761396074801823500,2.362823486328125,-0.09681367874145508,-0.03512096405029297,0.20649898052215576
1761396074821201200,2.382201171875,0.13791465759277344,-0.04047679901123047,0.017485857009887695
1761396074840578800,2.401578857421875,0.2974514961242676,-0.0696554183959961,-0.18272876739501953
1761396074859956500,2.42095654296875,0.2790188789367676,-0.058947086334228516,-0.08998608589172363
1761396074879334000,2.440333984375,0.17514848709106445,-0.0024213790893554688,0.13905692100524902
1761396074898711600,2.459711669921875,-0.05472898483276367,0.03834819793701172,0.28841638565063477
1761396074918089200,2.479089111328125,-0.23246479034423828,0.07099628448486328,0.22524666786193848
1761396074937467000,2.498466796875,-0.049655914306640625,0.0011663436889648438,0.07268166542053223
1761396074956844500,2.517844482421875,0.11216497421264648,-0.03140830993652344,0.020188331604003906
1761396074976222200,2.53722216796875,0.18607378005981445,-0.03196907043457031,0.08471012115478516
1761396074995600000,2.556599853515625,0.20653820037841797,-0.016686439514160156,0.09602069854736328
1761396075014977300,2.575977294921875,0.09654951095581055,0.0045490264892578125,0.07571625709533691
1761396075034355000,2.59535498046875,-0.028162002563476562,-0.010994911193847656,0.0598599910736084
1761396075053732600,2.614732666015625,-0.10346221923828125,-0.03063201904296875,0.026374101638793945
1761396075073110300,2.6341103515625,0.008890151977539062,-0.0422821044921875,0.012995719909667969
1761396075092488000,2.653488037109375,0.07132673263549805,-0.06177234649658203,0.03402376174926758
1761396075111865600,2.672865478515625,0.20114612579345703,-0.0873250961303711,-0.00012159347534179688
1761396075131243300,2.6922431640625,0.16017627716064453,-0.07759571075439453,-0.027550697326660156
1761396075150621000,2.711620849609375,0.008122444152832031,-0.045734405517578125,-0.014173269271850586
1761396075169998300,2.730998291015625,-0.01680898666381836,-0.005127906799316406,0.113739013671875
1761396075189376000,2.7503759765625,0.040889739990234375,0.0018329620361328125,0.13014864921569824
1761396075208753700,2.769753662109375,0.06554365158081055,0.012114524841308594,0.12207627296447754
1761396075228131300,2.78913134765625,0.04368925094604492,0.001239776611328125,0.04619574546813965
1761396075247509000,2.808509033203125,0.19280719757080078,-0.030505657196044922,-0.04794049263000488
1761396075266886700,2.82788671875,0.20474576950073242,-0.02191162109375,0.03637504577636719
1761396075286264300,2.847264404296875,0.030298709869384766,-0.013165473937988281,0.15011286735534668
1761396075305642000,2.86664208984375,-0.0812067985534668,0.009264945983886719,0.15279340744018555
1761396075325019400,2.886019287109375,-0.06825113296508789,-0.017716407775878906,0.13337469100952148
1761396075344397000,2.90539697265625,0.029353618621826172,-0.04216909408569336,-0.01645970344543457
1761396075363774700,2.924774658203125,0.17199945449829102,-0.0613408088684082,-0.10355281829833984
1761396075383152400,2.94415234375,0.17102718353271484,-0.061623573303222656,-0.002849578857421875
1761396075402530000,2.963530029296875,0.004246234893798828,-0.0578913688659668,0.03080892562866211
1761396075421907700,2.98290771484375,-0.13100051879882812,-0.06329727172851562,0.0008084774017333984
1761396075441285400,3.002285400390625,-0.13809967041015625,-0.051250457763671875,0.06613874435424805
1761396075460662800,3.021662841796875,0.08539295196533203,-0.01992511749267578,0.03969597816467285
1761396075480040400,3.04104052734375,0.2651557922363281,-0.011478424072265625,0.0626068115234375
1761396075499418000,3.060418212890625,0.24964237213134766,0.01877117156982422,0.10476112365722656
1761396075518795800,3.079795654296875,0.14696502685546875,0.02860260009765625,0.13180851936340332
1761396075538173400,3.09917333984375,0.17956829071044922,0.03438854217529297,0.1499800682067871
1761396075557551000,3.118551025390625,0.13403701782226562,0.010274887084960938,0.20266830921173096
1761396075576928800,3.1379287109375,0.10204553604125977,-0.030764102935791016,0.12528419494628906
1761396075596306400,3.157306396484375,0.0379796028137207,-0.024774551391601562,0.015248775482177734
1761396075615683800,3.176683837890625,-0.07478094100952148,-0.0233612060546875,-0.025927066802978516
1761396075635061500,3.1960615234375,-0.023018836975097656,-0.044953346252441406,0.05719947814941406
1761396075654439200,3.215439208984375,0.10039663314819336,-0.06040763854980469,0.11096954345703125
1761396075673816800,3.23481689453125,0.08378171920776367,-0.061842918395996094,0.12673497200012207
1761396075693194500,3.254194580078125,-0.0017161369323730469,-0.0593719482421875,0.02904987335205078
1761396075712572200,3.273572265625,0.0405888557434082,-0.048476219177246094,-0.02141547203063965
1761396075731949600,3.292949462890625,0.02249288558959961,-0.01584148406982422,0.06694602966308594
1761396075751327200,3.3123271484375,-0.10662698745727539,-0.03390216827392578,0.11699628829956055
1761396075770705000,3.331704833984375,-0.2319469451904297,-0.08659934997558594,-0.009567737579345703
1761396075790082600,3.35108251953125,-0.21681690216064453,-0.08794736862182617,-0.05735349655151367
1761396075809460200,3.370460205078125,-0.08273935317993164,-0.030776023864746094,-0.04798531532287598
1761396075828838000,3.389837890625,0.3291134834289551,0.020508766174316406,0.06287455558776855
1761396075848215600,3.409215576171875,0.6938028335571289,0.02762889862060547,0.14972186088562012
1761396075867593000,3.428593017578125,0.6151366233825684,0.07310771942138672,0.0998222827911377
1761396075886970600,3.447970703125,0.1912217140197754,0.053900718688964844,0.1290569305419922
1761396075906348300,3.467348388671875,0.04520416259765625,0.008489608764648438,0.21964013576507568
1761396075925726000,3.486725830078125,0.09850692749023438,0.0027065277099609375,0.12394249439239502
1761396075945103600,3.506103515625,0.17538881301879883,-0.0013256072998046875,-0.10785770416259766
1761396075964481300,3.525481201171875,-0.03609800338745117,-0.05857086181640625,-0.00844264030456543
1761396075983859000,3.54485888671875,-0.07872724533081055,-0.03745079040527344,0.10466158390045166
1761396076003236400,3.564236328125,0.0014982223510742188,-0.0073719024658203125,0.2302170991897583
1761396076022614000,3.583614013671875,-0.008376598358154297,-0.013247489929199219,0.230133056640625
1761396076041991700,3.60299169921875,-0.0652613639831543,-0.02922344207763672,0.11320018768310547
1761396076061369300,3.622369384765625,0.02409982681274414,-0.08222198486328125,0.02512502670288086
1761396076080747000,3.6417470703125,0.10642671585083008,-0.0745692253112793,-0.018632173538208008
1761396076100124700,3.661124755859375,0.12320470809936523,-0.05947399139404297,-0.0332486629486084
1761396076119502300,3.68050244140625,0.06135988235473633,-0.052568912506103516,0.03341937065124512
1761396076138879700,3.699879638671875,0.027764320373535156,-0.014561653137207031,0.07554364204406738
1761396076158257400,3.71925732421875,0.13216781616210938,-0.0035400390625,0.09081625938415527
1761396076177635000,3.738635009765625,0.13576316833496094,0.012892723083496094,0.08796858787536621
1761396076197012700,3.7580126953125,0.0783538818359375,0.004566192626953125,0.03978705406188965
1761396076216390400,3.777390380859375,0.11813926696777344,-0.019934654235839844,-0.004668235778808594
1761396076235768000,3.79676806640625,0.20131969451904297,-0.05704450607299805,-0.04546356201171875
1761396076255145500,3.8161455078125,0.1258244514465332,-0.03340339660644531,-0.029244661331176758
1761396076274523100,3.835523193359375,0.026564598083496094,-0.0034742355346679688,0.04356527328491211
1761396076293900800,3.85490087890625,-0.04355955123901367,0.0032777786254882812,0.16125011444091797
1761396076313278500,3.874278564453125,-0.004871845245361328,-0.012883186340332031,0.1792459487915039
1761396076332656000,3.89365625,0.07839584350585938,-0.018912315368652344,0.13829970359802246
1761396076352033800,3.91303369140625,0.13486623764038086,-0.03407764434814453,0.08702802658081055
1761396076371411500,3.932411376953125,0.048847198486328125,-0.05533933639526367,0.07491946220397949
1761396076390788900,3.951788818359375,0.005458354949951172,-0.07924318313598633,0.07972300052642822
1761396076410166500,3.97116650390625,0.08949422836303711,-0.057453155517578125,0.03567934036254883
1761396076429544200,3.990544189453125,0.017402172088623047,-0.04780101776123047,0.04971623420715332
1761396076448921900,4.009921875,-0.07467079162597656,-0.007693290710449219,-0.05398154258728027
1761396076468299500,4.029299560546875,0.09710550308227539,-0.026632308959960938,-0.07501745223999023
1761396076487677200,4.04867724609375,0.20675992965698242,-0.04407358169555664,-0.01582169532775879
1761396076507054600,4.0680546875,0.12471437454223633,-0.017386436462402344,0.038346290588378906
1761396076526432300,4.087432373046875,0.08735132217407227,-0.0059833526611328125,0.07559657096862793
1761396076545810000,4.106809814453125,0.04186391830444336,0.010270118713378906,0.1169443130493164
1761396076565187600,4.1261875,0.12099218368530273,0.018953323364257812,0.11013984680175781
1761396076584565200,4.145565185546875,0.1875314712524414,-0.007602691650390625,0.14127576351165771
1761396076603943000,4.16494287109375,0.13298463821411133,-0.032672882080078125,0.09255146980285645
1761396076623320600,4.184320556640625,-0.006444454193115234,-0.05469799041748047,0.03701472282409668
1761396076642698000,4.203697998046875,-0.028381824493408203,-0.0333251953125,0.00777125358581543
1761396076662075600,4.22307568359375,0.01686382293701172,-0.03336143493652344,0.00964975357055664
1761396076681453300,4.242453369140625,0.04381418228149414,-0.029634475708007812,0.10110270977020264
1761396076700831000,4.2618310546875,0.040320396423339844,-0.05753803253173828,0.007478237152099609
1761396076720208600,4.281208740234375,0.0024123191833496094,-0.05536651611328125,-0.07301926612854004
1761396076739586300,4.30058642578125,-0.007321357727050781,-0.040970802307128906,-0.10093188285827637
1761396076758963700,4.319963623046875,0.14884662628173828,-0.058175086975097656,-0.07269740104675293
1761396076778341400,4.33934130859375,0.24545526504516602,-0.06731319427490234,-0.027652502059936523
1761396076797719000,4.358718994140625,0.12831878662109375,-0.012513160705566406,0.09289848804473877
1761396076817096700,4.3780966796875,0.003551959991455078,0.028564453125,0.16713476181030273
1761396076836474400,4.397474365234375,0.09154033660888672,-0.017118453979492188,0.004168033599853516
1761396076855852000,4.41685205078125,0.20244264602661133,0.0050792694091796875,-0.0037534236907958984
1761396076875229400,4.4362294921875,0.1361846923828125,-0.002628326416015625,0.13997912406921387
1761396076894607000,4.455607177734375,-0.11162662506103516,0.04355335235595703,0.2971717119216919
1761396076913984800,4.47498486328125,-0.13737058639526367,0.04745292663574219,0.2629818916320801
1761396076933362400,4.494362548828125,0.024600982666015625,0.0031585693359375,0.14698350429534912
1761396076952740000,4.513739990234375,0.20346736907958984,-0.05728721618652344,0.048367977142333984
1761396076972117800,4.53311767578125,0.09948396682739258,-0.07407379150390625,0.024002552032470703
1761396076991495200,4.5524951171875,0.016808032989501953,-0.029547691345214844,0.05318284034729004
1761396077010872800,4.571872802734375,0.024585723876953125,-0.00406646728515625,0.21561408042907715
1761396077030250500,4.59125048828125,-0.0722041130065918,0.008212089538574219,0.20940053462982178
1761396077049628200,4.610628173828125,-0.01386404037475586,-0.031070709228515625,0.03258717060089111
1761396077069005800,4.630005859375,0.1770486831665039,-0.07857513427734375,-0.11267399787902832
1761396077088383200,4.64938330078125,0.23918390274047852,-0.08982563018798828,-0.11324429512023926
1761396077107761000,4.668760986328125,0.01199483871459961,-0.07379722595214844,0.008723020553588867
1761396077127138600,4.688138671875,-0.07297563552856445,-0.02945995330810547,0.05566442012786865
1761396077146516200,4.70751611328125,0.052677154541015625,0.0036373138427734375,0.12723290920257568
1761396077165894000,4.726893798828125,0.10213088989257812,0.005747795104980469,0.041405320167541504
1761396077185271600,4.746271484375,0.05762767791748047,-0.011997222900390625,0.013417243957519531
1761396077204649000,4.76564892578125,0.11387109756469727,-0.009647369384765625,0.02934741973876953
1761396077224026600,4.785026611328125,0.11469507217407227,-0.008556365966796875,0.07996106147766113
1761396077243404300,4.804404296875,0.046503543853759766,-0.00005340576171875,0.06535148620605469
1761396077262782000,4.823781982421875,0.050520896911621094,-0.02508258819580078,0.04230380058288574
1761396077282159600,4.84315966796875,0.02443981170654297,-0.03354835510253906,0.08685529232025146
1761396077301537300,4.862537353515625,-0.12125205993652344,-0.011376380920410156,0.12925875186920166
1761396077320914700,4.881914794921875,-0.08799505233764648,-0.00963592529296875,0.16719400882720947
1761396077340292400,4.901292236328125,0.011932373046875,-0.03785419464111328,0.06961750984191895
1761396077359670000,4.920669921875,0.17049789428710938,-0.074310302734375,-0.03520989418029785
1761396077379047700,4.940047607421875,0.21596908569335938,-0.06133460998535156,0.011948108673095703
1761396077398425300,4.95942529296875,0.1099400520324707,-0.018941879272460938,0.04215645790100098
1761396077417802800,4.978802734375,0.01488494873046875,-0.00045871734619140625,0.11010897159576416
1761396077437180400,4.998180419921875,0.000026226043701171875,0.023746490478515625,0.11336088180541992
1761396077456558000,5.01755810546875,0.14029216766357422,0.017114639282226562,0.02851855754852295
1761396077475935700,5.036935791015625,0.2452692985534668,-0.04017925262451172,-0.006025791168212891
1761396077495313400,5.0563134765625,0.2414560317993164,-0.057410240173339844,0.02508699893951416
1761396077514691000,5.075691162109375,0.07507038116455078,-0.032431602478027344,0.012026548385620117
1761396077534068500,5.095068359375,-0.11909294128417969,-0.024585723876953125,0.0007944107055664062
1761396077553446100,5.114446044921875,-0.040216922760009766,-0.042387962341308594,-0.01952815055847168
1761396077572823800,5.13382373046875,0.08542394638061523,-0.04572868347167969,0.046642422676086426
1761396077592201500,5.153201416015625,0.02923297882080078,-0.014420509338378906,0.09821963310241699
1761396077611579100,5.1725791015625,0.0341792106628418,-0.025503158569335938,0.09852266311645508
1761396077630956800,5.191956787109375,0.1295180320739746,-0.01660442352294922,0.061860084533691406
1761396077650334200,5.211334228515625,0.0891871452331543,-0.0072307586669921875,0.06296443939208984
1761396077669712000,5.2307119140625,0.1132817268371582,-0.0241851806640625,0.13250458240509033
1761396077689089500,5.250089599609375,0.1018514633178711,-0.035233497619628906,0.08498013019561768
1761396077708467200,5.26946728515625,0.06762313842773438,-0.04345226287841797,-0.017334699630737305
1761396077727844900,5.288844970703125,0.0864567756652832,-0.03672313690185547,0.005131840705871582
1761396077747222300,5.30822216796875,0.039376258850097656,-0.021559715270996094,0.11439001560211182
1761396077766600000,5.327599853515625,-0.1344900131225586,0.015855789184570312,0.15180540084838867
1761396077785977600,5.3469775390625,-0.045847415924072266,0.01693439483642578,0.06609606742858887
1761396077805355300,5.366355224609375,0.18003559112548828,-0.02934551239013672,-0.04815495014190674
1761396077824733000,5.38573291015625,0.22516298294067383,-0.03631401062011719,-0.10748648643493652
1761396077844110600,5.405110595703125,0.19998741149902344,-0.019959449768066406,-0.02791726589202881
1761396077863488000,5.424488037109375,0.18509387969970703,0.022848129272460938,0.12074947357177734
1761396077882865700,5.44386572265625,0.1548452377319336,-0.008016586303710938,0.203865647315979
1761396077902243300,5.463243408203125,-0.06552553176879883,-0.030350685119628906,0.1548464298248291
1761396077921621000,5.48262109375,-0.27158546447753906,-0.05465126037597656,0.06665074825286865
1761396077940998700,5.50199853515625,-0.1259303092956543,-0.07328510284423828,-0.007812023162841797
1761396077960376000,5.5213759765625,0.12932729721069336,-0.08646011352539062,0.03574728965759277
1761396077979753700,5.540753662109375,0.15123510360717773,-0.058342933654785156,0.06347131729125977
1761396077999131400,5.56013134765625,0.008760452270507812,-0.031167984008789062,0.09793102741241455
1761396078018509000,5.579509033203125,0.03477144241333008,-0.013039588928222656,0.03251051902770996
1761396078037886700,5.59888671875,0.2600064277648926,0.007821083068847656,-0.008453607559204102
1761396078057264000,5.61826416015625,0.22560644149780273,0.013921737670898438,0.10596954822540283
1761396078076641800,5.637641845703125,0.02900838851928711,0.02901744842529297,0.1258687973022461
1761396078096019500,5.65701953125,0.018748760223388672,0.010266304016113281,0.03239798545837402
1761396078115397000,5.676397216796875,0.06029367446899414,-0.030393600463867188,-0.026213884353637695
1761396078134774800,5.69577490234375,0.08926916122436523,-0.03044891357421875,-0.01985931396484375
1761396078154152200,5.715152099609375,0.10387182235717773,-0.034239768981933594,0.06446492671966553
1761396078173529900,5.73452978515625,0.012344837188720703,-0.028635025024414062,0.06553792953491211
1761396078192907500,5.753907470703125,-0.09049224853515625,-0.05661773681640625,0.05930829048156738
1761396078212285200,5.77328515625,-0.09881448745727539,-0.03881359100341797,0.007927775382995605
1761396078231662800,5.792662841796875,0.07514476776123047,-0.04188346862792969,0.04515516757965088
1761396078251040300,5.812040283203125,0.21904468536376953,-0.03229045867919922,0.07796502113342285
1761396078270418000,5.83141796875,0.10024023056030273,-0.02469348907470703,0.08979356288909912
1761396078289795600,5.850795654296875,0.033223628997802734,-0.014248847961425781,0.07787394523620605
1761396078309173200,5.87017333984375,0.07979869842529297,-0.03172874450683594,0.08050084114074707
1761396078328551000,5.889551025390625,0.07860898971557617,-0.025010108947753906,0.013075113296508789
1761396078347928300,5.90892822265625,0.07813072204589844,-0.013085365295410156,-0.007010936737060547
1761396078367306000,5.928305908203125,0.1598515510559082,-0.033890724182128906,0.0723872184753418
1761396078386683600,5.94768359375,0.07929039001464844,-0.020280838012695312,0.08449351787567139
1761396078406061300,5.967061279296875,-0.07668399810791016,0.00853729248046875,0.07907593250274658
1761396078425439000,5.98643896484375,0.0002288818359375,0.0130462646484375,0.11592841148376465
1761396078444816400,6.00581640625,0.0025229454040527344,0.0114593505859375,0.11737000942230225
1761396078464194000,6.025194091796875,0.03391599655151367,-0.016121864318847656,0.07692587375640869
1761396078483571700,6.04457177734375,0.1818995475769043,-0.045729637145996094,0.07824933528900146
1761396078502949400,6.063949462890625,0.14438199996948242,-0.039539337158203125,0.02908611297607422
1761396078522327000,6.0833271484375,-0.03455066680908203,-0.020032882690429688,-0.015474081039428711
1761396078541704400,6.102704345703125,-0.022996902465820312,-0.040030479431152344,0.01732182502746582
1761396078561082000,6.12208203125,0.07081222534179688,-0.053673744201660156,0.021421074867248535
1761396078580459800,6.141459716796875,0.023941993713378906,-0.020294189453125,0.031794071197509766
1761396078599837400,6.16083740234375,0.013920783996582031,-0.0058193206787109375,0.03645479679107666
1761396078619215000,6.180215087890625,0.09777355194091797,-0.03338050842285156,0.05473136901855469
1761396078638592500,6.199592529296875,0.18032550811767578,-0.05976676940917969,0.008754491806030273
1761396078657970200,6.21897021484375,0.12357234954833984,-0.06232929229736328,-0.018762588500976562
1761396078677347800,6.238347900390625,-0.0885457992553711,-0.019502639770507812,-0.04181361198425293
1761396078696725500,6.2577255859375,-0.018157958984375,0.0068492889404296875,0.010686039924621582
1761396078716103000,6.27710302734375,0.13538074493408203,0.01989459991455078,0.16202688217163086
1761396078735480600,6.29648046875,0.028217792510986328,0.0032634735107421875,0.17342793941497803
1761396078754858200,6.315858154296875,-0.19856929779052734,0.06308364868164062,0.13759565353393555
1761396078774236000,6.33523583984375,-0.05016946792602539,0.059296607971191406,0.1421523094177246
1761396078793613600,6.354613525390625,0.36290454864501953,-0.01380157470703125,0.02587890625
1761396078812991000,6.373990966796875,0.45845985412597656,-0.06329345703125,-0.03082895278930664
1761396078832368600,6.39336865234375,0.22147464752197266,-0.0780782699584961,0.017359018325805664
1761396078851746300,6.412746337890625,0.0032663345336914062,-0.038967132568359375,0.08928942680358887
1761396078871124000,6.4321240234375,-0.0808405876159668,-0.016584396362304688,0.12662792205810547
1761396078890501600,6.451501708984375,0.07988643646240234,-0.08249568939208984,0.23672950267791748
1761396078909879000,6.470879150390625,0.16733932495117188,-0.05809783935546875,-0.06417703628540039
1761396078929256700,6.490256591796875,0.09131717681884766,-0.07243537902832031,-0.1862964630126953
1761396078948634400,6.50963427734375,-0.14478635787963867,-0.015298843383789062,-0.029920101165771484
1761396078968012000,6.529011962890625,-0.15299081802368164,-0.029720306396484375,0.07544636726379395
1761396078987389700,6.5483896484375,-0.0889139175415039,-0.026673316955566406,0.07959270477294922
1761396079006767000,6.56776708984375,-0.0510106086730957,-0.04091453552246094,0.06710362434387207
1761396079026144800,6.587144775390625,-0.1529374122619629,-0.026708602905273438,-0.037760019302368164
1761396079045522400,6.6065224609375,-0.019691944122314453,-0.00508880615234375,-0.054041147232055664
1761396079064900000,6.625900146484375,0.12971258163452148,0.0008192062377929688,0.07471871376037598
1761396079084277500,6.645277587890625,0.0519556999206543,0.005324363708496094,0.10517263412475586
1761396079103655200,6.6646552734375,0.04854297637939453,0.015414237976074219,0.0492856502532959
1761396079123032800,6.68403271484375,0.3362441062927246,-0.018677234649658203,0.08091259002685547
1761396079142410500,6.703410400390625,0.45688533782958984,-0.008361339569091797,0.04822278022766113
1761396079161788000,6.722787841796875,0.21103477478027344,0.0011696815490722656,0.12748241424560547
1761396079181165600,6.74216552734375,-0.07726812362670898,-0.015033245086669922,0.18697845935821533
1761396079200543200,6.761543212890625,0.03312492370605469,-0.061028480529785156,0.03776121139526367
1761396079219921000,6.7809208984375,0.11241579055786133,-0.07674932479858398,-0.0726327896118164
1761396079239298600,6.800298583984375,0.08437538146972656,-0.04590940475463867,0.06731653213500977
1761396079258676200,6.81967626953125,0.0503392219543457,-0.015424728393554688,0.19115066528320312
1761396079278053600,6.8390537109375,0.06456947326660156,0.0016179084777832031,0.1951313018798828
1761396079297431300,6.858431396484375,-0.06268835067749023,0.014156341552734375,0.07179784774780273
1761396079316809000,6.87780908203125,-0.05264997482299805,0.0027523040771484375,0.036791324615478516
1761396079336186600,6.8971865234375,0.20393943786621094,-0.010129928588867188,0.016934871673583984
1761396079355564000,6.91656396484375,0.2870330810546875,-0.025062084197998047,0.056353092193603516
1761396079374941700,6.935941650390625,0.173553466796875,-0.02815532684326172,0.008745670318603516
1761396079394319400,6.9553193359375,-0.025978565216064453,-0.04076099395751953,-0.0625460147857666
1761396079413697000,6.974697021484375,0.06591272354125977,-0.057779788970947266,-0.12110161781311035
1761396079433074400,6.994074462890625,0.14199018478393555,-0.04726076126098633,-0.08065032958984375
1761396079452452000,7.0134521484375,0.11281394958496094,-0.028047561645507812,0.04777359962463379
1761396079471829800,7.032829833984375,0.07251167297363281,-0.007534503936767578,0.09289145469665527
1761396079491207400,7.05220751953125,-0.09317541122436523,-0.0019102096557617188,0.05736804008483887
1761396079510584800,7.071584716796875,0.01849985122680664,-0.0024733543395996094,0.12293124198913574
1761396079529962500,7.09096240234375,0.13691425323486328,-0.012571334838867188,0.09358501434326172
1761396079549340200,7.110340087890625,0.11247968673706055,-0.01138162612915039,0.03442835807800293
1761396079568717800,7.1297177734375,-0.0003924369812011719,-0.0452580451965332,0.1996825933456421
1761396079588095500,7.149095458984375,-0.13816165924072266,-0.023752212524414062,0.14574921131134033
1761396079607473000,7.168472900390625,-0.004927158355712891,-0.052706241607666016,-0.03412032127380371
1761396079626850600,7.1878505859375,0.2104325294494629,-0.03931570053100586,-0.05266404151916504
1761396079646228200,7.207228271484375,0.046640872955322266,0.017587661743164062,0.09605979919433594
1761396079665606000,7.22660595703125,-0.29877424240112305,0.07074928283691406,0.22600126266479492
1761396079684983300,7.2459833984375,-0.29484987258911133,0.05570507049560547,0.23021388053894043
1761396079704361000,7.26536083984375,0.15269136428833008,-0.027625083923339844,-0.04603934288024902
1761396079723738600,7.284738525390625,0.5156040191650391,-0.08343172073364258,-0.23451709747314453
1761396079743116300,7.3041162109375,0.49110984802246094,-0.010007858276367188,-0.12258434295654297
1761396079762494000,7.323493896484375,0.16234922409057617,-0.0036134719848632812,0.11571431159973145
1761396079781871400,7.342871337890625,-0.11283063888549805,-0.017918109893798828,0.1551576852798462
1761396079801249000,7.3622490234375,-0.22640657424926758,-0.03841543197631836,0.053626060485839844
1761396079820626700,7.381626708984375,-0.09667730331420898,-0.05367565155029297,0.05394124984741211
1761396079840004400,7.40100439453125,0.07283735275268555,-0.0622711181640625,-0.03853487968444824
1761396079859381800,7.4203818359375,0.21886968612670898,-0.08370113372802734,-0.033434152603149414
1761396079878759400,7.439759521484375,0.13734102249145508,-0.061766624450683594,0.1358644962310791
1761396079898137000,7.45913720703125,-0.17827415466308594,0.011218070983886719,0.1638202667236328
1761396079917514800,7.4785146484375,-0.2519998550415039,0.0767221450805664,0.12398910522460938
1761396079936892200,7.49789208984375,-0.12413501739501953,0.0968785285949707,0.23673629760742188
1761396079956269800,7.517269775390625,0.11356258392333984,0.009065628051757812,0.20546531677246094
1761396079975647500,7.5366474609375,0.3224611282348633,-0.023110389709472656,-0.003111124038696289
1761396079995025200,7.556025146484375,0.3406105041503906,-0.05141258239746094,-0.06591153144836426
1761396080014402600,7.575402587890625,0.05412578582763672,0.023508071899414062,-0.04938006401062012
1761396080033780200,7.5947802734375,-0.11353588104248047,-0.018694400787353516,0.03102421760559082
1761396080053158000,7.614157958984375,-0.036995887756347656,0.028130531311035156,0.017170190811157227
1761396080072535600,7.63353564453125,0.07758855819702148,-0.017013072967529297,0.0657343864440918
1761396080091913000,7.652912841796875,-0.000301361083984375,-0.06502342224121094,0.07351255416870117
1761396080111290600,7.67229052734375,0.0034236907958984375,-0.09501218795776367,-0.04215669631958008
1761396080130668300,7.691668212890625,0.18932485580444336,-0.11133527755737305,-0.11530184745788574
1761396080150046000,7.7110458984375,0.28171348571777344,-0.06613492965698242,-0.006855010986328125
1761396080169423600,7.730423583984375,0.05551958084106445,0.03375864028930664,0.12229800224304199
1761396080188801000,7.749801025390625,-0.05484437942504883,0.01689624786376953,0.2001659870147705
1761396080208178700,7.7691787109375,-0.011161327362060547,0.015897750854492188,0.09017562866210938
1761396080227556400,7.788556396484375,-0.056120872497558594,0.05805540084838867,0.03421640396118164
1761396080246934000,7.80793408203125,-0.057328224182128906,-0.0382380485534668,0.11443018913269043
1761396080266311400,7.8273115234375,0.16107702255249023,-0.07825756072998047,-0.010941505432128906
1761396080285689000,7.846689208984375,0.2681550979614258,0.04015970230102539,-0.04137897491455078
1761396080305066800,7.866066650390625,0.10703420639038086,-0.007945537567138672,0.18891239166259766
1761396080324444400,7.8854443359375,-0.042157649993896484,-0.02103281021118164,0.07715225219726562
1761396080343821800,7.90482177734375,0.03720235824584961,0.0494990348815918,-0.13054752349853516
1761396080363199500,7.924199462890625,0.051708221435546875,-0.01019906997680664,0.10276651382446289
1761396080382577200,7.9435771484375,0.06824445724487305,-0.1278986930847168,0.1508340835571289
1761396080401954800,7.962954833984375,0.059931278228759766,-0.009383201599121094,0.059679269790649414
1761396080421332200,7.982332275390625,-0.05835580825805664,-0.0034880638122558594,0.15645861625671387
1761396080440710000,8.0017099609375,0.025124073028564453,-0.1382131576538086,-0.07819890975952148
1761396080460087600,8.021087646484375,0.1679544448852539,-0.03268623352050781,-0.4734525680541992
1761396080479465200,8.04046533203125,0.1729717254638672,-0.11319160461425781,-0.19310355186462402
1761396080498842600,8.059842529296875,0.1316547393798828,-0.08382654190063477,0.014023065567016602
1761396080518220300,8.07922021484375,-0.042204856872558594,0.03652381896972656,0.1424548625946045
1761396080537598000,8.098597900390626,-0.15549612045288086,-0.00423431396484375,0.0844430923461914
1761396080556975600,8.1179755859375,0.06554460525512695,-0.046900272369384766,0.015172243118286133
1761396080576353000,8.13735302734375,0.36896181106567383,-0.07355165481567383,0.11515522003173828
1761396080595730700,8.156730712890624,0.4048271179199219,0.008542537689208984,-0.008272886276245117
1761396080615108400,8.1761083984375,0.010009765625,0.01340627670288086,-0.04089212417602539
1761396080634486000,8.195486083984376,-0.24446725845336914,-0.002929210662841797,-0.12181973457336426
1761396080653863400,8.214863525390625,-0.06199073791503906,0.029784202575683594,-0.08263063430786133
1761396080673241000,8.234240966796875,0.24657773971557617,-0.010910511016845703,0.46109533309936523
1761396080692618800,8.25361865234375,0.007807254791259766,0.003986835479736328,0.4318044185638428
1761396080711996400,8.272996337890625,-0.1626882553100586,-0.02337503433227539,-0.21039390563964844
1761396080731373800,8.292373779296875,0.23528718948364258,-0.0879678726196289,-0.35654711723327637
1761396080750751500,8.31175146484375,0.5016498565673828,-0.05053520202636719,0.044777870178222656
1761396080770129200,8.331129150390625,0.13262176513671875,0.024718761444091797,0.3486347198486328
1761396080789506800,8.3505068359375,-0.20294904708862305,0.01627826690673828,0.33577919006347656
1761396080808884200,8.36988427734375,-0.3369631767272949,-0.025400638580322266,0.09695577621459961
1761396080828262000,8.389261962890625,-0.13234663009643555,-0.03728342056274414,-0.05573534965515137
1761396080847639600,8.4086396484375,0.09000635147094727,-0.07565164566040039,-0.043814659118652344
1761396080867017200,8.428017333984375,0.2679009437561035,-0.006649494171142578,0.060921669006347656
1761396080886394600,8.44739453125,0.05628824234008789,-0.019861698150634766,0.32949304580688477
1761396080905772300,8.466772216796874,-0.009649276733398438,0.03374004364013672,0.13312292098999023
1761396080925150000,8.48614990234375,0.038219451904296875,0.02075338363647461,0.16311955451965332
1761396080944527600,8.505527587890626,-0.03622913360595703,0.03849649429321289,0.16901588439941406
1761396080963905000,8.524905029296875,0.016242504119873047,0.004952430725097656,-0.01709890365600586
1761396080983282700,8.54428271484375,0.0764780044555664,-0.029213428497314453,-0.10063457489013672
1761396081002660400,8.563660400390624,0.21110820770263672,-0.05795860290527344,-0.09319210052490234
1761396081022037800,8.583037841796875,0.1408376693725586,-0.0770254135131836,-0.11133646965026855
1761396081041415400,8.60241552734375,-0.01366424560546875,-0.03272199630737305,-0.1277928352355957
1761396081060793000,8.62179296875,0.001033782958984375,-0.026539325714111328,0.000019788742065429688
1761396081080170800,8.641170654296875,0.05489540100097656,-0.012909889221191406,0.02077007293701172
1761396081099548400,8.66054833984375,0.10821008682250977,-0.035921573638916016,0.000675201416015625
1761396081118925800,8.67992578125,0.16970491409301758,-0.06562995910644531,-0.07020878791809082
1761396081138303500,8.699303466796875,0.1503753662109375,-0.04686689376831055,-0.09261584281921387
1761396081157681200,8.71868115234375,-0.023517131805419922,-0.025772571563720703,0.11593198776245117
1761396081177058800,8.738058837890625,-0.22078990936279297,-0.019056320190429688,0.1806027889251709
1761396081196436200,8.757436279296876,-0.16045665740966797,0.01873493194580078,0.056418418884277344
1761396081215814000,8.77681396484375,-0.05506563186645508,0.03260612487792969,0.18903899192810059
1761396081235191600,8.796191650390625,0.14426183700561523,0.027266502380371094,0.18091368675231934
1761396081254569000,8.81556884765625,0.16460514068603516,0.0045013427734375,0.13188672065734863
1761396081273946600,8.834946533203125,0.12056303024291992,-0.016420364379882812,0.018891572952270508
1761396081293324300,8.85432421875,0.10525131225585938,-0.02306365966796875,0.01922464370727539
1761396081312702000,8.873701904296874,0.11521530151367188,-0.03297567367553711,0.016164779663085938
1761396081332079400,8.893079345703125,0.06798934936523438,-0.03526639938354492,-0.04405522346496582
1761396081351457000,8.91245703125,0.06831884384155273,-0.04656791687011719,-0.09977388381958008
1761396081370834700,8.931834716796875,0.08265352249145508,-0.05063199996948242,-0.03287005424499512
1761396081390212400,8.95121240234375,-0.021980762481689453,-0.05481767654418945,0.0265042781829834
1761396081409589800,8.97058984375,-0.05937623977661133,-0.018049240112304688,-0.08739948272705078
1761396081428967400,8.989967529296875,0.042992591857910156,-0.022040367126464844,0.05835270881652832
1761396081448345000,9.009344970703125,0.08263254165649414,-0.007576465606689453,0.016287803649902344
1761396081467722500,9.028722412109374,0.05244779586791992,-0.020782470703125,0.028711795806884766
1761396081487100200,9.04810009765625,0.1586461067199707,-0.028258800506591797,0.008347272872924805
1761396081506477800,9.067477783203126,0.02613210678100586,0.0067615509033203125,0.14432692527770996
1761396081525855500,9.08685546875,-0.0849618911743164,0.014278888702392578,0.17418241500854492
1761396081545233000,9.10623291015625,0.07155561447143555,0.023895740509033203,0.05388355255126953
1761396081564610600,9.125610595703124,0.1303725242614746,-0.00731658935546875,0.03908371925354004
1761396081583988200,9.14498828125,-0.01597452163696289,-0.03360891342163086,0.024588823318481445
1761396081603366000,9.164365966796876,-0.056002140045166016,-0.004077911376953125,0.13963794708251953
1761396081622743300,9.183743408203124,0.13002300262451172,0.03615093231201172,0.23844623565673828
1761396081642121000,9.203120849609375,0.11623477935791016,0.019161701202392578,0.15930986404418945
1761396081661498600,9.22249853515625,0.07367563247680664,-0.01820087432861328,-0.029070138931274414
1761396081680876000,9.2418759765625,0.169158935546875,-0.09734296798706055,-0.24130010604858398
1761396081700253700,9.261253662109375,0.09926319122314453,-0.06771707534790039,-0.1714322566986084
1761396081719631400,9.28063134765625,-0.034212589263916016,-0.03813648223876953,0.08181476593017578
1761396081739009000,9.300009033203125,-0.05728483200073242,-0.005580425262451172,0.13138484954833984
1761396081758386400,9.319386474609376,0.004316806793212891,-0.014228343963623047,0.0312809944152832
1761396081777764000,9.33876416015625,0.06079673767089844,-0.018908023834228516,-0.019583702087402344
1761396081797141800,9.358141845703125,0.10016632080078125,-0.023254871368408203,-0.0782170295715332
1761396081816519400,9.37751953125,0.11573314666748047,-0.012231826782226562,0.012973785400390625
1761396081835896800,9.396896728515625,0.08815765380859375,-0.00562286376953125,0.10596847534179688
1761396081855274500,9.4162744140625,0.04079008102416992,-0.04107809066772461,0.10666084289550781
1761396081874652200,9.435652099609374,0.06667137145996094,-0.021827220916748047,-0.02978682518005371
1761396081894029600,9.455029541015625,-0.01832294464111328,0.021422386169433594,0.054787635803222656
1761396081913407200,9.4744072265625,-0.1743946075439453,0.021027565002441406,0.2806556224822998
1761396081932785000,9.493784912109374,-0.10216379165649414,0.023090362548828125,0.2101576328277588
1761396081952162600,9.51316259765625,0.0011858940124511719,0.007864952087402344,0.03749513626098633
1761396081971540000,9.5325400390625,0.0946950912475586,-0.04302167892456055,-0.03155660629272461
1761396081990917600,9.551917724609375,0.14378929138183594,-0.057538509368896484,-0.15819215774536133
1761396082010295300,9.57129541015625,0.2302556037902832,-0.011859893798828125,-0.11119890213012695
1761396082029672700,9.590672607421874,0.17716312408447266,-0.022057056427001953,0.06391143798828125
1761396082049050400,9.61005029296875,0.10235166549682617,-0.011427879333496094,0.010385513305664062
1761396082068428000,9.629427978515626,0.17711734771728516,0.019013404846191406,-0.031630516052246094
1761396082087805700,9.6488056640625,0.007720947265625,-0.0012879371643066406,0.2509186267852783
1761396082107183000,9.66818310546875,-0.17910242080688477,0.008894920349121094,0.22701144218444824
1761396082126560800,9.687560791015626,-0.0948491096496582,-0.06030416488647461,0.03231215476989746
1761396082145938400,9.7069384765625,0.1403369903564453,-0.12872838973999023,-0.04989981651306152
1761396082165316000,9.726316162109375,0.12056493759155273,-0.09653377532958984,-0.15666723251342773
1761396082184693500,9.745693603515624,-0.08764076232910156,-0.02735280990600586,-0.05158209800720215
1761396082204071200,9.7650712890625,0.0313725471496582,0.016754627227783203,0.12651371955871582
1761396082223448800,9.78444873046875,0.18668842315673828,0.03259086608886719,0.16782379150390625
1761396082242826200,9.803826171875,0.08357810974121094,0.021242141723632812,0.08199930191040039
1761396082262204000,9.823203857421875,0.010372161865234375,0.0071868896484375,-0.06343746185302734
1761396082281581600,9.84258154296875,0.12931203842163086,-0.04676485061645508,-0.05280041694641113
1761396082300959200,9.861959228515625,0.10768651962280273,-0.060090065002441406,-0.06053638458251953
1761396082320336600,9.881336669921875,-0.0539088249206543,-0.033338069915771484,-0.11610126495361328
1761396082339714300,9.90071435546875,-0.07670783996582031,-0.008615970611572266,-0.04965829849243164
1761396082359092000,9.920092041015625,0.055777549743652344,0.017891407012939453,0.14551472663879395
1761396082378469400,9.939469482421876,0.21064233779907227,0.006908893585205078,0.1879134178161621
1761396082397847000,9.958846923828125,0.008909225463867188,-0.029229164123535156,-0.0009605884552001953
1761396082417224700,9.978224609375,-0.08855819702148438,-0.028955459594726562,-0.13400816917419434
1761396082436602400,9.997602294921874,0.10509920120239258,-0.05340719223022461,-0.004994392395019531
1761396082455979800,10.016979736328125,0.14511442184448242,-0.04881715774536133,-0.0030379295349121094
1761396082475357400,10.036357421875,0.022397518157958984,-0.03084564208984375,0.1788175106048584
1761396082494735000,10.055735107421874,-0.028484344482421875,0.011634349822998047,0.15039706230163574
1761396082514112500,10.075112548828125,0.009646415710449219,0.012023448944091797,0.013281583786010742
1761396082533490200,10.094490234375,0.02926158905029297,0.017371177673339844,0.048822641372680664
1761396082552867800,10.113867919921875,0.11350154876708984,-0.003756999969482422,0.12371492385864258
1761396082572245200,10.133245361328125,0.0327143669128418,0.0219268798828125,0.10638260841369629
1761396082591623000,10.152622802734374,0.04109621047973633,-0.03121805191040039,0.0490880012512207
1761396082611000600,10.17200048828125,0.05039405822753906,-0.03474569320678711,-0.10341572761535645
1761396082630378200,10.191378173828125,0.11131143569946289,-0.019432544708251953,0.04157376289367676
1761396082649755600,10.210755615234374,1.0328397750854492,-0.23225069046020508,0.20270037651062012
1761396082669133300,10.23013330078125,0.8167390823364258,-0.03584098815917969,-0.22724366188049316
1761396082688511000,10.249510986328126,-0.27109813690185547,-0.07499980926513672,-0.26122212409973145
1761396082707888400,10.268888427734375,-0.6087985038757324,0.023203372955322266,-0.17296314239501953
1761396082727266000,10.28826611328125,-0.5432581901550293,0.08552312850952148,0.004388570785522461
1761396082746643700,10.307643798828124,-0.17127037048339844,0.06055307388305664,0.148101806640625
1761396082766021400,10.327021484375,0.18512487411499023,0.06390619277954102,0.23997759819030762
1761396082785398800,10.346398681640625,0.7572097778320312,0.0015006065368652344,0.19524288177490234
