time,seconds_elapsed,z,y,x
1761396097575315500,0.1203154296875,5.320441246032715,7.8179497718811035,-2.699702262878418
1761396097594692900,0.13969287109375,5.571089267730713,7.8287177085876465,-2.531606435775757
1761396097614070500,0.159070556640625,5.749354839324951,7.856832981109619,-2.6273193359375
1761396097633448000,0.178447998046875,5.776872158050537,7.886743545532227,-2.6673989295959473
1761396097652825600,0.19782568359375,5.477769374847412,7.910671710968018,-2.5363919734954834
1761396097672203000,0.217203125,5.193023204803467,7.881359577178955,-2.5232315063476562
1761396097691580400,0.236580322265625,5.140979290008545,7.80837869644165,-2.541177749633789
1761396097710958000,0.2559580078125,5.243870735168457,7.8424763679504395,-2.5465614795684814
1761396097730335500,0.27533544921875,5.3934221267700195,7.8424763679504395,-2.5489542484283447
1761396097749713200,0.294713134765625,5.162514686584473,7.898707389831543,-2.424527645111084
1761396097769090600,0.314090576171875,5.066802024841309,7.936394691467285,-2.359323024749756
1761396097788468200,0.33346826171875,5.257031440734863,7.920242786407471,-2.347957134246826
1761396097807845600,0.352845703125,5.248656272888184,7.911868095397949,-2.352742910385132
1761396097827223300,0.372223388671875,5.164309501647949,7.882555961608887,-2.444268226623535
1761396097846600700,0.3916005859375,5.340181827545166,7.914859294891357,-2.472383975982666
1761396097865978000,0.41097802734375,5.386841773986816,7.917252063751221,-2.41375994682312
1761396097885355800,0.430355712890625,5.288736343383789,7.896913051605225,-2.455035924911499
1761396097904733200,0.449733154296875,5.377869129180908,7.868797302246094,-2.6285157203674316
1761396097924110800,0.46911083984375,5.398207664489746,7.8819580078125,-2.5184457302093506
1761396097943488300,0.48848828125,5.329414367675781,7.908876895904541,-2.472383975982666
1761396097962865700,0.50786572265625,5.291129112243652,7.898109436035156,-2.5262224674224854
1761396097982243300,0.527243408203125,5.146363258361816,7.872984886169434,-2.486142635345459
1761396098001620700,0.546620849609375,5.041677474975586,7.858627796173096,-2.5322046279907227
1761396098020998400,0.565998291015625,5.261219024658203,7.881359577178955,-2.5465614795684814
1761396098040375800,0.585375732421875,5.368896007537842,7.908876895904541,-2.554338216781616
1761396098059753500,0.60475341796875,5.247459888458252,7.920242786407471,-2.4574289321899414
1761396098079131000,0.624130859375,5.137988567352295,7.9040913581848145,-2.5423741340637207
1761396098098508500,0.643508544921875,5.215754985809326,7.903493404388428,-2.4538395404815674
1761396098117886000,0.662885986328125,5.336592674255371,7.902894973754883,-2.4424736499786377
1761396098137263400,0.682263427734375,5.362913608551025,7.88494873046875,-2.472383975982666
1761396098156641000,0.70164111328125,5.243870735168457,7.908876895904541,-2.4562325477600098
1761396098176018400,0.721018310546875,5.088337421417236,7.903493404388428,-2.4293131828308105
1761396098195396000,0.74039599609375,5.2145586013793945,7.913662910461426,-2.5537400245666504
1761396098214773500,0.7597734375,5.364109992980957,7.925626754760742,-2.554936408996582
1761396098234151200,0.779151123046875,5.158327579498291,7.956135272979736,-2.431705951690674
1761396098253528600,0.798528564453125,5.038686275482178,7.961519241333008,-2.444866418838501
1761396098272906000,0.817906005859375,5.299503803253174,7.9244303703308105,-2.641676187515259
1761396098292283600,0.83728369140625,5.480760097503662,7.898707389831543,-2.6159534454345703
1761396098311661000,0.8566611328125,5.3748779296875,7.913662910461426,-2.4299113750457764
1761396098331038700,0.876038818359375,5.310271739959717,7.907680511474609,-2.496312141418457
1761396098350416100,0.895416015625,5.224130153656006,7.898109436035156,-2.527418851852417
1761396098369793500,0.91479345703125,5.026124000549316,7.907082557678223,-2.4023938179016113
1761396098389171200,0.934171142578125,5.063212871551514,7.916055679321289,-2.3982064723968506
1761396098408548600,0.953548583984375,5.221737384796143,7.894520282745361,-2.531606435775757
1761396098427926300,0.97292626953125,5.137988567352295,7.883752346038818,-2.489732027053833
1761396098447303700,0.9923037109375,5.135595798492432,7.897511005401611,-2.4909284114837646
1761396098466681000,1.01168115234375,5.321039199829102,7.895716667175293,-2.5465614795684814
1761396098486058800,1.031058837890625,5.280959606170654,7.925626754760742,-2.5058834552764893
1761396098505436200,1.050436279296875,5.170889854431152,7.950153350830078,-2.3886351585388184
1761396098524813800,1.069813720703125,5.164907455444336,7.939385414123535,-2.465803623199463
1761396098544191200,1.089191162109375,5.349753379821777,7.926225185394287,-2.667997360229492
1761396098563569000,1.10856884765625,5.411966800689697,7.945367813110352,-2.579462766647339
1761396098582946300,1.1279462890625,5.197809219360352,7.978269100189209,-2.3718855381011963
1761396098602323700,1.14732373046875,5.116453170776367,7.970492362976074,-2.4293131828308105
1761396098621701400,1.166701416015625,5.2977094650268555,7.917252063751221,-2.4496521949768066
1761396098641078800,1.186078857421875,5.274977684020996,7.921439170837402,-2.4095723628997803
1761396098660456400,1.20545654296875,5.227719306945801,7.911269664764404,-2.547757863998413
1761396098679833900,1.224833740234375,5.2145586013793945,7.912466049194336,-2.6147570610046387
1761396098699211500,1.24421142578125,5.1182475090026855,7.934599876403809,-2.458625316619873
1761396098718589000,1.2635888671875,5.07517671585083,7.937591075897217,-2.3270199298858643
1761396098737966300,1.28296630859375,5.136193752288818,7.915457248687744,-2.434098720550537
1761396098757344000,1.302343994140625,5.232504844665527,7.896913051605225,-2.551347255706787
1761396098776721400,1.321721435546875,5.353940486907959,7.8795647621154785,-2.630908489227295
1761396098796099000,1.34109912109375,5.303691387176514,7.856832981109619,-2.6117658615112305
1761396098815476500,1.3604765625,5.163711071014404,7.916055679321289,-2.53399920463562
1761396098834854100,1.379854248046875,5.2115678787231445,7.952546119689941,-2.4777679443359375
1761396098854231600,1.3992314453125,5.377869129180908,7.989634990692139,-2.4257240295410156
1761396098873609000,1.41860888671875,5.349154949188232,7.963313579559326,-2.437688112258911
1761396098892986600,1.437986572265625,5.289334297180176,7.942376613616943,-2.507079839706421
1761396098912364000,1.457364013671875,5.309075355529785,7.916055679321289,-2.5322046279907227
1761396098931741700,1.47674169921875,5.234897613525391,7.9040913581848145,-2.4765713214874268
1761396098951119000,1.496119140625,5.197809219360352,7.910671710968018,-2.4299113750457764
1761396098970496500,1.51549658203125,5.161916732788086,7.901100158691406,-2.444268226623535
1761396098989874200,1.534874267578125,5.007579803466797,7.923233985900879,-2.414358139038086
1761396099009251600,1.55425146484375,5.065605640411377,7.936992645263672,-2.417349100112915
1761396099028629200,1.573629150390625,5.315655708312988,7.9244303703308105,-2.4466612339019775
1761396099048006700,1.593006591796875,5.420341491699219,7.944769382476807,-2.475973129272461
1761396099067384000,1.612384033203125,5.248656272888184,7.957331657409668,-2.416750907897949
1761396099086761700,1.63176171875,5.048257350921631,7.969893932342529,-2.437688112258911
1761396099106139100,1.65113916015625,5.155336380004883,7.964509963989258,-2.4765713214874268
1761396099125516800,1.670516845703125,5.283352375030518,7.941778182983398,-2.4430718421936035
1761396099144894200,1.689894287109375,5.231906890869141,7.931010723114014,-2.458625316619873
1761396099164271600,1.709271728515625,5.209773063659668,7.913662910461426,-2.5292134284973145
1761396099183649300,1.728649169921875,5.167300701141357,7.932805061340332,-2.555534601211548
1761396099203026700,1.748026611328125,5.0638108253479,7.956733703613281,-2.434098720550537
1761396099222404400,1.767404296875,5.047659397125244,7.972286701202393,-2.3401806354522705
1761396099241781800,1.78678173828125,5.185246467590332,7.954938888549805,-2.4323041439056396
1761396099261159200,1.8061591796875,5.425127029418945,7.936992645263672,-2.5782663822174072
1761396099280536800,1.825536865234375,5.50648307800293,7.953742504119873,-2.630310297012329
1761396099299914200,1.844914306640625,5.385645389556885,7.923832416534424,-2.5914268493652344
1761396099319292000,1.8642919921875,5.325825214385986,7.937591075897217,-2.5573291778564453
1761396099338669300,1.88366943359375,5.259424209594727,7.95134973526001,-2.4975085258483887
1761396099358046700,1.903046630859375,5.1840500831604,7.944170951843262,-2.4466612339019775
1761396099377424400,1.92242431640625,5.0362935066223145,7.948358535766602,-2.3772692680358887
1761396099396801800,1.9418017578125,5.047060966491699,7.905287742614746,-2.335394859313965
1761396099416179500,1.961179443359375,5.113461971282959,7.8664045333862305,-2.2444677352905273
1761396099435556900,1.980556884765625,5.029115200042725,7.95434045791626,-2.2510478496551514
1761396099454934500,1.9999345703125,4.940580368041992,8.01057243347168,-2.1990039348602295
1761396099474312000,2.01931201171875,5.143372058868408,8.02791976928711,-2.1828525066375732
1761396099493689300,2.038689453125,5.376074314117432,8.014161109924316,-2.2510478496551514
1761396099513067000,2.05806689453125,5.3353962898254395,8.018348693847656,-2.416750907897949
1761396099532444400,2.0774443359375,5.188836097717285,7.989634990692139,-2.5124638080596924
1761396099551822000,2.096822021484375,5.072783946990967,7.932207107543945,-2.495713949203491
1761396099571199500,2.116199462890625,5.121238708496094,7.881359577178955,-2.63449764251709
1761396099590577000,2.135576904296875,5.307280540466309,7.843074321746826,-2.864806890487671
1761396099609954600,2.15495458984375,5.352146148681641,7.849056243896484,-2.8522446155548096
1761396099629332000,2.17433203125,5.175076961517334,7.860422611236572,-2.7349963188171387
1761396099648709600,2.193709716796875,5.078167915344238,7.892127513885498,-2.743969440460205
1761396099668087000,2.213087158203125,5.315655708312988,7.898707389831543,-2.723032236099243
1761396099687464400,2.23246435546875,5.48375129699707,7.911868095397949,-2.5938198566436768
1761396099706842000,2.251842041015625,5.247459888458252,7.922037601470947,-2.4646072387695312
1761396099726219500,2.271219482421875,5.213960647583008,7.943572998046875,-2.569293260574341
1761396099745597200,2.29059716796875,5.343770980834961,7.926823139190674,-2.5704896450042725
1761396099764974600,2.309974609375,5.221737384796143,7.9968132972717285,-2.4562325477600098
1761396099784352000,2.32935205078125,5.151148796081543,7.991429328918457,-2.304288148880005
1761396099803729700,2.348729736328125,5.227719306945801,7.956733703613281,-2.294118642807007
1761396099823107000,2.368107177734375,5.213960647583008,7.923832416534424,-2.3976082801818848
1761396099842484700,2.387484619140625,4.980062007904053,7.95553731918335,-2.5154547691345215
1761396099861862100,2.406862060546875,4.9878387451171875,7.997411251068115,-2.434697151184082
1761396099881239600,2.426239501953125,5.067399978637695,7.974679470062256,-2.292922258377075
1761396099900617200,2.4456171875,5.182853698730469,7.9351983070373535,-2.5112674236297607
1761396099919994600,2.46499462890625,5.289932727813721,7.917252063751221,-2.616551637649536
1761396099939372300,2.484372314453125,5.264808177947998,7.923233985900879,-2.5633113384246826
1761396099958749700,2.503749755859375,5.197210788726807,7.953742504119873,-2.5597219467163086
1761396099978127000,2.523127197265625,5.183452129364014,7.984848976135254,-2.42093825340271
1761396099997504800,2.5425048828125,5.189434051513672,7.990232944488525,-2.3228325843811035
1761396100016882200,2.561882080078125,5.20678186416626,7.9351983070373535,-2.537588357925415
1761396100036259800,2.581259765625,5.239683151245117,7.902894973754883,-2.6572296619415283
1761396100055637200,2.60063720703125,5.205585479736328,7.954938888549805,-2.5088746547698975
1761396100075014700,2.6200146484375,5.093721389770508,7.985447406768799,-2.3742783069610596
1761396100094392300,2.639392333984375,4.980062007904053,7.977072715759277,-2.4640090465545654
1761396100113769700,2.658769775390625,5.000401020050049,7.950153350830078,-2.5537400245666504
1761396100133147400,2.6781474609375,5.26600456237793,7.918448448181152,-2.596810817718506
1761396100152524800,2.69752490234375,5.475376605987549,7.952546119689941,-2.581855535507202
1761396100171902200,2.716902099609375,5.382654666900635,7.987840175628662,-2.475973129272461
1761396100191279900,2.73627978515625,5.226522922515869,7.978269100189209,-2.321636199951172
1761396100210657300,2.7556572265625,5.178666591644287,7.985447406768799,-2.3503501415252686
1761396100230035000,2.775034912109375,5.098506927490234,7.985447406768799,-2.424527645111084
1761396100249412400,2.794412353515625,4.9704909324646,7.937591075897217,-2.42512583732605
1761396100268789800,2.813789794921875,5.1182475090026855,7.899305820465088,-2.530410051345825
1761396100288167400,2.83316748046875,5.169095039367676,7.902894973754883,-2.5704896450042725
1761396100307544800,2.852544921875,5.047060966491699,7.957930088043213,-2.455634355545044
1761396100326922500,2.871922607421875,5.039284706115723,7.99083137512207,-2.3473589420318604
1761396100346300000,2.8912998046875,5.151148796081543,7.984251022338867,-2.444866418838501
1761396100365677300,2.91067724609375,5.190032482147217,7.94716215133667,-2.626721143722534
1761396100385055000,2.930054931640625,5.265406131744385,7.973483085632324,-2.6632115840911865
1761396100404432400,2.949432373046875,5.361119270324707,7.960920810699463,-2.42093825340271
1761396100423809800,2.968809814453125,5.381458282470703,7.95434045791626,-2.4711875915527344
1761396100443187500,2.9881875,5.222933769226074,8.00638484954834,-2.526820659637451
1761396100462564900,3.00756494140625,5.1152567863464355,8.01057243347168,-2.4149563312530518
1761396100481942500,3.026942626953125,5.112864017486572,7.971688747406006,-2.454437732696533
1761396100501320000,3.04631982421875,5.079962253570557,7.909475326538086,-2.4783661365509033
1761396100520697300,3.065697265625,5.076373100280762,7.908278942108154,-2.500499725341797
1761396100540075000,3.085074951171875,5.154139995574951,7.936992645263672,-2.4293131828308105
1761396100559452400,3.104452392578125,5.092525005340576,7.984251022338867,-2.369492530822754
1761396100578830000,3.123830078125,5.1188459396362305,7.99800968170166,-2.280359983444214
1761396100598207500,3.14320751953125,5.231308460235596,7.9728851318359375,-2.3910279273986816
1761396100617585000,3.1625849609375,5.24626350402832,7.9860453605651855,-2.520240545272827
1761396100636962600,3.181962646484375,5.278566837310791,7.99083137512207,-2.3808584213256836
1761396100656340000,3.201340087890625,5.281557559967041,7.99800968170166,-2.379662036895752
1761396100675717600,3.220717529296875,5.279763221740723,7.971688747406006,-2.4675984382629395
1761396100695095000,3.240094970703125,5.144568920135498,7.94297456741333,-2.528017044067383
1761396100714478800,3.259478759765625,5.018347263336182,7.954938888549805,-2.5357937812805176
1761396100733856300,3.278856201171875,5.1290154457092285,7.93998384475708,-2.592623233795166
1761396100753233700,3.298233642578125,5.202594757080078,7.929215908050537,-2.5764718055725098
1761396100772611300,3.317611328125,5.167300701141357,7.945367813110352,-2.486142635345459
1761396100791988700,3.33698876953125,5.166104316711426,7.9519476890563965,-2.3850460052490234
1761396100811366100,3.3563662109375,5.330012321472168,7.930412292480469,-2.444268226623535
1761396100830743800,3.375743896484375,5.312066078186035,7.94716215133667,-2.51425838470459
1761396100850121200,3.395121337890625,5.117051124572754,7.9489569664001465,-2.486142635345459
1761396100869499000,3.414498779296875,5.12602424621582,8.002197265625,-2.4364917278289795
1761396100888876300,3.433876220703125,5.153541564941406,7.996214866638184,-2.2851455211639404
1761396100908253700,3.453253662109375,5.12602424621582,7.971090316772461,-2.4113669395446777
1761396100927631400,3.47263134765625,5.224728107452393,7.925626754760742,-2.6219353675842285
1761396100947008800,3.4920087890625,5.269593715667725,7.908278942108154,-2.6632115840911865
1761396100966386400,3.511386474609375,5.296513080596924,7.945965766906738,-2.5178475379943848
1761396100985763800,3.530763916015625,5.285147190093994,7.998608112335205,-2.3676979541778564
1761396101005141200,3.550141357421875,5.191826820373535,7.992625713348389,-2.3336002826690674
1761396101024519000,3.569518798828125,5.080560684204102,7.9758758544921875,-2.3814568519592285
1761396101043896300,3.588896240234375,5.136193752288818,7.940581798553467,-2.447857618331909
1761396101063273700,3.608273681640625,5.12602424621582,7.886145114898682,-2.4813570976257324
1761396101082651400,3.6276513671875,5.117649555206299,7.868198871612549,-2.5112674236297607
1761396101102028800,3.64702880859375,5.207380294799805,7.898109436035156,-2.520240545272827
1761396101121406500,3.666406494140625,5.160121917724609,7.950153350830078,-2.50289249420166
1761396101140783900,3.685783935546875,5.106283664703369,8.005785942077637,-2.3054845333099365
1761396101160161300,3.705161376953125,5.304887771606445,8.049455642700195,-2.169093608856201
1761396101179539000,3.7245390625,5.321039199829102,8.02492904663086,-2.2570300102233887
1761396101198916400,3.743916259765625,5.068596363067627,7.989036560058594,-2.5124638080596924
1761396101218294000,3.7632939453125,4.95912504196167,7.898109436035156,-2.709273338317871
1761396101237671400,3.78267138671875,5.06082010269165,7.854440212249756,-2.8283164501190186
1761396101257048800,3.802048828125,5.296513080596924,7.850253105163574,-2.789433002471924
1761396101276426500,3.821426513671875,5.298307418823242,7.937591075897217,-2.6368906497955322
1761396101295804000,3.840803955078125,5.215754985809326,8.021339416503906,-2.3599212169647217
1761396101315181600,3.860181640625,5.313262462615967,8.056633949279785,-2.197807550430298
1761396101334559000,3.87955908203125,5.477769374847412,8.02074146270752,-2.2600209712982178
1761396101353936400,3.898936279296875,5.467599868774414,7.978269100189209,-2.4472594261169434
1761396101373314000,3.91831396484375,5.231308460235596,7.977670669555664,-2.3742783069610596
1761396101392691500,3.93769140625,5.057828903198242,7.978867053985596,-2.2606191635131836
1761396101412068900,3.95706884765625,5.057828903198242,7.925626754760742,-2.3473589420318604
1761396101431446500,3.976446533203125,5.092525005340576,7.898109436035156,-2.53399920463562
1761396101450824000,3.995823974609375,4.866403102874756,7.942376613616943,-2.373081922531128
1761396101470201300,4.015201416015625,4.746163845062256,7.968099594116211,-2.3198416233062744
1761396101489579000,4.0345791015625,5.056034088134766,7.926225185394287,-2.521436929702759
1761396101508956400,4.053956298828125,5.498706340789795,7.882555961608887,-2.7050859928131104
1761396101528334000,4.073333984375,5.496313571929932,7.905287742614746,-2.7218358516693115
1761396101547711500,4.09271142578125,5.32821798324585,7.9316086769104,-2.59621262550354
1761396101567089000,4.1120888671875,5.261219024658203,7.9316086769104,-2.620738983154297
1761396101586466600,4.131466552734375,5.271986484527588,7.941180229187012,-2.7038896083831787
1761396101605844000,4.150843994140625,5.143970489501953,7.917850017547607,-2.548356056213379
1761396101625221400,4.170221435546875,5.149952411651611,7.894520282745361,-2.572284460067749
1761396101644599000,4.18959912109375,5.277370452880859,7.859225749969482,-2.702693223953247
1761396101663976400,4.2089765625,5.221737384796143,7.8664045333862305,-2.671586513519287
1761396101683354000,4.22835400390625,4.858626365661621,7.8819580078125,-2.5154547691345215
1761396101702731500,4.2477314453125,4.814359188079834,7.875975608825684,-2.5459632873535156
1761396101722109000,4.26710888671875,5.020740032196045,7.8664045333862305,-2.7176482677459717
1761396101741486600,4.286486572265625,5.321039199829102,7.904689788818359,-2.6632115840911865
1761396101760864000,4.305864013671875,5.67756986618042,7.966903209686279,-2.438286304473877
1761396101780241700,4.32524169921875,5.802595138549805,8.12123966217041,-2.162513494491577
1761396101799619000,4.344619140625,5.582455158233643,8.210372924804688,-1.9920248985290527
1761396101818996500,4.36399658203125,5.252245903015137,8.185248374938965,-2.042872428894043
1761396101838374100,4.3833740234375,5.087738990783691,8.068597793579102,-2.224726915359497
1761396101857751600,4.40275146484375,5.120640277862549,7.9142608642578125,-2.468794822692871
1761396101877129000,4.42212890625,5.054837703704834,7.8041911125183105,-2.6769702434539795
1761396101896506600,4.441506591796875,4.942973613739014,7.716254711151123,-2.7290141582489014
1761396101915884000,4.460884033203125,4.800002098083496,7.746763229370117,-2.7936203479766846
1761396101935261400,4.480261474609375,4.839483737945557,7.792226791381836,-2.827120065689087
1761396101954639000,4.49963916015625,5.033900737762451,7.832904815673828,-2.7672994136810303
1761396101974016500,4.5190166015625,5.2253265380859375,7.902296543121338,-2.637488842010498
1761396101993394200,4.538394287109375,5.267200946807861,7.9860453605651855,-2.4299113750457764
1761396102012771600,4.557771484375,5.349753379821777,8.003992080688477,-2.434098720550537
1761396102032149000,4.57714892578125,5.481956481933594,7.995018482208252,-2.610569477081299
1761396102051526700,4.596526611328125,5.468796253204346,7.992625713348389,-2.5974090099334717
1761396102070904000,4.615904052734375,5.315057277679443,8.02074146270752,-2.468794822692871
1761396102090281500,4.635281494140625,5.009374141693115,8.001599311828613,-2.3712873458862305
1761396102109659100,4.6546591796875,4.9393839836120605,7.989036560058594,-2.499901533126831
1761396102129036500,4.67403662109375,5.173282623291016,7.936992645263672,-2.407777786254883
1761396102148414200,4.693414306640625,5.341378211975098,7.895716667175293,-2.3641088008880615
1761396102167791600,4.71279150390625,5.150550842285156,7.92861795425415,-2.526820659637451
1761396102187169000,4.7321689453125,4.835894584655762,8.000402450561523,-2.551945447921753
1761396102206546700,4.751546630859375,5.082953453063965,7.977072715759277,-2.372483730316162
1761396102225924000,4.770924072265625,5.431109428405762,7.937591075897217,-2.376072883605957
1761396102245301500,4.790301513671875,5.431109428405762,7.945965766906738,-2.444866418838501
1761396102264679200,4.80967919921875,5.288736343383789,7.9244303703308105,-2.4735803604125977
1761396102284056600,4.829056640625,5.2971110343933105,7.942376613616943,-2.5537400245666504
1761396102303434200,4.848434326171875,5.225924491882324,7.9657063484191895,-2.4777679443359375
1761396102322811600,4.867811767578125,4.95912504196167,7.993224143981934,-2.376072883605957
1761396102342189000,4.88718896484375,5.003392219543457,7.985447406768799,-2.383251428604126
1761396102361566700,4.906566650390625,5.272584915161133,7.948358535766602,-2.4538395404815674
1761396102380944100,4.925944091796875,5.347958564758301,7.966304779052734,-2.5010979175567627
1761396102400321500,4.945321533203125,5.197210788726807,7.976474285125732,-2.438286304473877
1761396102419699200,4.96469921875,5.073382377624512,7.998608112335205,-2.459223508834839
1761396102439076600,4.98407666015625,5.104488849639893,7.999804496765137,-2.4532413482666016
1761396102458454300,5.003454345703125,5.26899528503418,7.966903209686279,-2.4299113750457764
1761396102477831700,5.022831787109375,5.314459323883057,7.939385414123535,-2.3988046646118164
1761396102497209000,5.042208984375,5.224728107452393,7.946564197540283,-2.4765713214874268
1761396102516586800,5.061586669921875,4.985445976257324,7.946564197540283,-2.6973092555999756
1761396102535964200,5.080964111328125,4.995615482330322,7.9585280418396,-2.5902304649353027
1761396102555341600,5.100341552734375,5.365306377410889,7.918448448181152,-2.390429735183716
1761396102574719200,5.11971923828125,5.470590591430664,7.896913051605225,-2.386242389678955
1761396102594096600,5.1390966796875,5.36351203918457,7.971688747406006,-2.3880369663238525
1761396102613474000,5.15847412109375,5.149952411651611,8.035696983337402,-2.397010087966919
1761396102632851700,5.177851806640625,5.108676433563232,8.061419486999512,-2.2779672145843506
1761396102652229000,5.19722900390625,5.078167915344238,7.978867053985596,-2.222334146499634
1761396102671606500,5.2166064453125,5.065605640411377,7.887939929962158,-2.4293131828308105
1761396102690984200,5.235984130859375,5.030909538269043,7.87059211730957,-2.5674986839294434
1761396102710361600,5.255361572265625,5.065007209777832,7.88913631439209,-2.4915266036987305
1761396102729739300,5.2747392578125,5.155336380004883,7.934599876403809,-2.482553482055664
1761396102749116700,5.29411669921875,5.170889854431152,7.941778182983398,-2.5184457302093506
1761396102768494000,5.313494140625,5.197210788726807,7.910671710968018,-2.3922245502471924
1761396102787871700,5.332871826171875,5.210371494293213,7.9519476890563965,-2.6087749004364014
1761396102807249200,5.352249267578125,5.257031440734863,7.953144073486328,-2.5489542484283447
1761396102826626600,5.37162646484375,5.467599868774414,7.945367813110352,-2.2396819591522217
1761396102846004200,5.391004150390625,5.5728840827941895,7.974081516265869,-2.2265214920043945
1761396102865381600,5.410381591796875,5.364109992980957,8.01356315612793,-2.383251428604126
1761396102884759000,5.429759033203125,5.212165832519531,8.029714584350586,-2.4993033409118652
1761396102904136700,5.44913671875,5.37906551361084,7.99083137512207,-2.3048863410949707
1761396102923514000,5.46851416015625,5.322235584259033,7.998608112335205,-2.2438695430755615
1761396102942891800,5.487891845703125,5.084748268127441,8.007580757141113,-2.1876380443573
1761396102962269200,5.507269287109375,4.981856822967529,7.977670669555664,-2.139183521270752
1761396102981646600,5.526646484375,4.972883701324463,7.948358535766602,-2.297708034515381
1761396103001024300,5.546024169921875,5.1182475090026855,7.95134973526001,-2.437688112258911
1761396103020401700,5.565401611328125,5.280361175537109,7.970492362976074,-2.3024935722351074
1761396103039779300,5.584779296875,5.262415409088135,7.984251022338867,-2.2085752487182617
1761396103059156700,5.60415673828125,5.1050872802734375,8.036294937133789,-2.2540390491485596
1761396103078534100,5.6235341796875,5.154139995574951,8.0291166305542,-2.1613171100616455
1761396103097911800,5.642911865234375,5.38624382019043,7.988438606262207,-2.3976082801818848
1761396103117289200,5.662289306640625,5.554339408874512,7.956135272979736,-2.521436929702759
1761396103136666600,5.68166650390625,5.400002479553223,7.912466049194336,-2.430509567260742
1761396103156044300,5.701044189453125,5.045864582061768,7.940581798553467,-2.4221346378326416
1761396103175421700,5.720421630859375,4.914857864379883,7.9627156257629395,-2.42512583732605
1761396103194799000,5.739799072265625,5.096712112426758,7.952546119689941,-2.48315167427063
1761396103214176800,5.7591767578125,5.32403039932251,7.944170951843262,-2.4263222217559814
1761396103233554200,5.77855419921875,5.2941203117370605,7.956135272979736,-2.3545374870300293
1761396103252931600,5.797931640625,5.104488849639893,7.997411251068115,-2.4161527156829834
1761396103272309200,5.817309326171875,5.13320255279541,7.9830546379089355,-2.365903377532959
1761396103291686700,5.836686767578125,5.2941203117370605,7.978867053985596,-2.3772692680358887
1761396103311064300,5.856064208984375,5.3934221267700195,7.95134973526001,-2.328216314315796
1761396103330441700,5.875441650390625,5.313860893249512,7.971688747406006,-2.318047046661377
1761396103349819100,5.894819091796875,5.112864017486572,7.984251022338867,-2.2959132194519043
1761396103369196800,5.91419677734375,5.1188459396362305,8.003393173217773,-2.2983062267303467
1761396103388574200,5.93357421875,5.280361175537109,8.01775074005127,-2.338385820388794
1761396103407951600,5.95295166015625,5.2115678787231445,8.017151832580566,-2.210968017578125
1761396103427329300,5.972329345703125,5.084748268127441,8.023134231567383,-2.211566209793091
1761396103446706700,5.991706787109375,5.175076961517334,7.971688747406006,-2.4580271244049072
1761396103466084000,6.011083984375,5.341378211975098,7.905886173248291,-2.5914268493652344
1761396103485461800,6.030461669921875,5.360520839691162,7.913662910461426,-2.4843480587005615
1761396103504839200,6.049839111328125,5.1427741050720215,8.004590034484863,-2.316850423812866
1761396103524216800,6.069216796875,5.1218366622924805,8.026723861694336,-2.3162522315979004
1761396103543594200,6.08859423828125,5.270790100097656,7.996214866638184,-2.249253273010254
1761396103562971600,6.1079716796875,5.227719306945801,7.960322856903076,-2.1882362365722656
1761396103582349000,6.12734912109375,5.106283664703369,7.9489569664001465,-2.4269204139709473
1761396103601726700,6.146726806640625,5.123631477355957,7.990232944488525,-2.4149563312530518
1761396103621104000,6.166104248046875,5.182255744934082,7.9758758544921875,-2.1649062633514404
1761396103640481500,6.1854814453125,5.204987525939941,8.00518798828125,-2.172683000564575
1761396103659859200,6.204859130859375,5.151747226715088,8.047062873840332,-2.227717876434326
1761396103679236600,6.224236572265625,5.0087761878967285,8.050053596496582,-2.2031915187835693
1761396103698614300,6.2436142578125,5.08355188369751,8.011768341064453,-2.3365912437438965
1761396103717991700,6.26299169921875,5.426921844482422,7.978867053985596,-2.3874387741088867
1761396103737369000,6.282369140625,5.536991596221924,7.980661869049072,-2.3635106086730957
1761396103756746800,6.301746826171875,5.213362216949463,8.020143508911133,-2.3982064723968506
1761396103776124200,6.321124267578125,4.922036170959473,8.007580757141113,-2.3844478130340576
1761396103795501600,6.34050146484375,5.050650596618652,7.9758758544921875,-2.3509483337402344
1761396103814879200,6.359879150390625,5.401797294616699,7.9316086769104,-2.3461625576019287
1761396103834256600,6.379256591796875,5.436492919921875,7.93998384475708,-2.38983154296875
1761396103853634000,6.398634033203125,5.120042324066162,7.9758758544921875,-2.3359930515289307
1761396103873011700,6.41801171875,4.961517810821533,8.00638484954834,-2.335394859313965
1761396103892389000,6.43738916015625,5.096114158630371,7.9830546379089355,-2.341377019882202
1761396103911766500,6.4567666015625,5.221138954162598,7.967501163482666,-2.345564365386963
1761396103931144200,6.476144287109375,5.26899528503418,7.976474285125732,-2.3880369663238525
1761396103950521600,6.495521484375,5.264808177947998,7.989036560058594,-2.365903377532959
1761396103969899300,6.514899169921875,5.2354960441589355,7.981259822845459,-2.4155545234680176
1761396103989276700,6.534276611328125,5.152345180511475,7.977072715759277,-2.4113669395446777
1761396104008654000,6.553654052734375,5.2253265380859375,7.992625713348389,-2.3856441974639893
1761396104028031700,6.57303173828125,5.13021183013916,8.014759063720703,-2.2169501781463623
1761396104047409200,6.5924091796875,5.132604598999023,8.02193832397461,-2.2097716331481934
1761396104066786600,6.61178662109375,5.3078789710998535,8.002197265625,-2.3156540393829346
1761396104086164200,6.631164306640625,5.282754421234131,8.005785942077637,-2.255235433578491
1761396104105541600,6.650541748046875,5.240281581878662,8.028517723083496,-2.2241287231445312
1761396104124919000,6.6699189453125,5.240281581878662,8.031509399414062,-2.149951219558716
1761396104144296700,6.689296630859375,5.2043890953063965,8.02074146270752,-2.249253273010254
1761396104163674000,6.708674072265625,5.139184951782227,8.0081787109375,-2.317448616027832
1761396104183051500,6.728051513671875,5.187041282653809,7.9866437911987305,-2.2983062267303467
1761396104202429200,6.74742919921875,5.187041282653809,7.969893932342529,-2.2719850540161133
1761396104221806600,6.766806640625,5.109274387359619,7.972286701202393,-2.348555326461792
1761396104241184000,6.78618408203125,5.054239749908447,7.972286701202393,-2.4017956256866455
1761396104260561700,6.805561767578125,5.087738990783691,7.995018482208252,-2.3682961463928223
1761396104279939000,6.82493896484375,5.227719306945801,7.987840175628662,-2.307279348373413
1761396104299316500,6.84431640625,5.275575637817383,8.014161109924316,-2.331207513809204
1761396104318694100,6.863694091796875,5.288736343383789,8.02373218536377,-2.321636199951172
1761396104338071600,6.883071533203125,5.336592674255371,7.999206066131592,-2.3228325843811035
1761396104357449200,6.90244921875,5.368297576904297,7.9968132972717285,-2.3437697887420654
1761396104376826600,6.92182666015625,5.220541000366211,7.978269100189209,-2.3048863410949707
1761396104396204000,6.9412041015625,4.934000492095947,7.982456207275391,-2.2570300102233887
1761396104415581700,6.960581787109375,4.944767951965332,7.992027759552002,-2.3120648860931396
1761396104434959000,6.979958984375,5.152345180511475,8.007580757141113,-2.2683959007263184
1761396104454336500,6.99933642578125,5.2390851974487305,8.037490844726562,-2.1511476039886475
1761396104473714200,7.018714111328125,5.217549800872803,8.026723861694336,-2.1511476039886475
1761396104493091600,7.038091552734375,5.271986484527588,8.012965202331543,-2.2881367206573486
1761396104512469000,7.057468994140625,5.294718265533447,8.017151832580566,-2.3784656524658203
1761396104531846700,7.0768466796875,5.24327278137207,8.020143508911133,-2.2085752487182617
1761396104551224000,7.09622412109375,5.202594757080078,8.01236629486084,-2.2325034141540527
1761396104570601500,7.1156015625,5.158327579498291,7.997411251068115,-2.3718855381011963
1761396104589979100,7.134979248046875,5.0638108253479,7.972286701202393,-2.321038007736206
1761396104609356500,7.1543564453125,5.2115678787231445,7.950153350830078,-2.3563320636749268
1761396104628734000,7.17373388671875,5.347958564758301,7.957331657409668,-2.410768747329712
1761396104648111600,7.193111572265625,5.143970489501953,7.989036560058594,-2.280359983444214
1761396104667489000,7.212489013671875,5.102694511413574,8.050651550292969,-2.242074728012085
1761396104686866400,7.231866455078125,5.247459888458252,8.063812255859375,-2.2025933265686035
1761396104706244000,7.251244140625,5.200799942016602,8.036294937133789,-2.2097716331481934
1761396104725621500,7.27062158203125,5.207380294799805,8.0081787109375,-2.3647069931030273
1761396104744999200,7.289999267578125,5.339583873748779,7.9968132972717285,-2.51425838470459
1761396104764376600,7.30937646484375,5.302495002746582,7.970492362976074,-2.3545374870300293
1761396104783754000,7.32875390625,5.245665550231934,7.995018482208252,-2.181057929992676
1761396104803131400,7.34813134765625,5.221138954162598,8.025527000427246,-2.1361923217773438
1761396104822509000,7.367509033203125,5.139782905578613,8.024331092834473,-2.12542462348938
1761396104841886500,7.386886474609375,5.092525005340576,7.987242221832275,-2.204387903213501
1761396104861264000,7.406263916015625,5.140381336212158,7.973483085632324,-2.293520450592041
1761396104880641500,7.4256416015625,5.208576679229736,7.989036560058594,-2.2121646404266357
1761396104900019000,7.44501904296875,5.170291423797607,7.9860453605651855,-2.186441659927368
1761396104919396600,7.464396728515625,5.1427741050720215,7.963912010192871,-2.2707886695861816
1761396104938774000,7.48377392578125,5.0949177742004395,7.960322856903076,-2.344966173171997
1761396104958151400,7.5031513671875,5.217549800872803,7.9621171951293945,-2.4023938179016113
1761396104977528800,7.52252880859375,5.263611793518066,7.993224143981934,-2.4155545234680176
1761396104996906500,7.541906494140625,5.321039199829102,8.02492904663086,-2.3300111293792725
1761396105016284000,7.561283935546875,5.303092956542969,8.029714584350586,-2.268994092941284
1761396105035661600,7.58066162109375,5.303092956542969,8.018946647644043,-2.314457654953003
1761396105055039000,7.6000390625,5.242076396942139,8.005785942077637,-2.334796667098999
1761396105074416400,7.61941650390625,5.303092956542969,7.998608112335205,-2.314457654953003
1761396105093794000,7.6387939453125,5.232504844665527,8.004590034484863,-2.258824586868286
1761396105113171500,7.65817138671875,5.111667156219482,7.9968132972717285,-2.2337000370025635
1761396105132548900,7.677548828125,5.165505886077881,7.984251022338867,-2.26959228515625
1761396105151926300,7.69692626953125,5.206183910369873,7.985447406768799,-2.280359983444214
1761396105171304000,7.716303955078125,5.131408214569092,7.99083137512207,-2.190629243850708
1761396105190681300,7.735681396484375,5.166104316711426,8.007580757141113,-2.152942180633545
1761396105210059000,7.75505908203125,5.267200946807861,8.004590034484863,-2.1894326210021973
1761396105229436400,7.7744365234375,5.196612358093262,8.006982803344727,-2.3048863410949707
1761396105248813800,7.793813720703125,5.222933769226074,8.00937557220459,-2.228914260864258
1761396105268191500,7.81319140625,5.281557559967041,8.018946647644043,-2.214557409286499
1761396105287569000,7.83256884765625,5.255236625671387,8.027321815490723,-2.2642083168029785
1761396105306946300,7.8519462890625,5.252843856811523,7.999804496765137,-2.197807550430298
1761396105326323700,7.87132373046875,5.240880012512207,7.981858253479004,-2.2648067474365234
1761396105345701400,7.890701416015625,5.169095039367676,7.991429328918457,-2.3742783069610596
1761396105365078800,7.910078857421875,5.178666591644287,8.017151832580566,-2.256431818008423
1761396105384456400,7.92945654296875,5.275575637817383,7.99083137512207,-2.1266210079193115
1761396105403833900,7.948833740234375,5.146363258361816,7.992625713348389,-2.2671995162963867
1761396105423211300,7.968211181640625,5.0464630126953125,7.980661869049072,-2.334198474884033
1761396105442589000,7.9875888671875,5.1320061683654785,7.984251022338867,-2.2911276817321777
1761396105461966300,8.00696630859375,5.282754421234131,7.996214866638184,-2.290529489517212
1761396105481343700,8.02634375,5.330610752105713,7.990232944488525,-2.2498514652252197
1761396105500721400,8.045721435546875,5.318646430969238,7.9830546379089355,-2.2534406185150146
1761396105520098800,8.065098876953124,5.285147190093994,8.004590034484863,-2.292922258377075
1761396105539476200,8.084476318359375,5.182853698730469,8.023134231567383,-2.2157537937164307
1761396105558854000,8.10385400390625,5.048855781555176,8.000402450561523,-2.217548370361328
1761396105578231300,8.123231201171874,5.271986484527588,7.995018482208252,-2.2989044189453125
1761396105597608700,8.142608642578125,5.360520839691162,8.008777618408203,-2.292922258377075
1761396105616986000,8.161986083984376,5.137988567352295,7.995616912841797,-2.1744775772094727
1761396105636363800,8.18136376953125,5.187041282653809,7.972286701202393,-2.1613171100616455
1761396105655741200,8.2007412109375,5.377270698547363,7.996214866638184,-2.2127628326416016
1761396105675118800,8.220118896484376,5.260022163391113,8.011768341064453,-2.255235433578491
1761396105694496300,8.239496337890625,5.0362935066223145,8.038089752197266,-2.173281192779541
1761396105713873700,8.258873779296875,5.106283664703369,8.008777618408203,-2.162513494491577
1761396105733251300,8.278251220703124,5.282754421234131,7.999804496765137,-2.214557409286499
1761396105752628700,8.297628662109375,5.359922885894775,7.980063438415527,-2.283350944519043
1761396105772006100,8.317006103515626,5.376074314117432,8.007580757141113,-2.348555326461792
1761396105791383800,8.3363837890625,5.333003520965576,8.02791976928711,-2.328216314315796
1761396105810761200,8.35576123046875,5.178068161010742,8.051848411560059,-2.1756739616394043
1761396105830138600,8.375138671875,5.2043890953063965,8.024331092834473,-2.1062822341918945
1761396105849516300,8.394516357421875,5.301896572113037,7.967501163482666,-2.172683000564575
1761396105868893700,8.413893798828125,5.066203594207764,7.967501163482666,-2.334198474884033
1761396105888271000,8.43327099609375,4.9639105796813965,7.977670669555664,-2.3371894359588623
1761396105907648500,8.4526484375,5.104488849639893,7.960322856903076,-2.237887382507324
1761396105927026200,8.472026123046875,5.333601474761963,7.957331657409668,-2.314457654953003
1761396105946403600,8.491403564453124,5.355136871337891,7.9860453605651855,-2.324627161026001
1761396105965781200,8.51078125,5.126622676849365,8.037490844726562,-2.256431818008423
1761396105985158700,8.53015869140625,5.160121917724609,8.035696983337402,-2.0781664848327637
1761396106004536000,8.5495361328125,5.260620594024658,8.0350980758667,-2.1822543144226074
1761396106023913500,8.56891357421875,5.228915691375732,8.020143508911133,-2.3359930515289307
1761396106043291100,8.588291015625,5.2384867668151855,7.998608112335205,-2.270190477371216
1761396106062668500,8.60766845703125,5.291129112243652,8.022536277770996,-2.2713868618011475
1761396106082046000,8.6270458984375,5.179264545440674,8.053044319152832,-2.256431818008423
1761396106101423600,8.646423583984374,5.056034088134766,8.036294937133789,-2.191227436065674
1761396106120801000,8.665801025390625,5.202594757080078,7.990232944488525,-2.2360928058624268
1761396106140178400,8.685178466796875,5.342574596405029,7.984848976135254,-2.2677977085113525
1761396106159556000,8.70455615234375,5.241477966308594,8.012965202331543,-2.231307029724121
1761396106178933500,8.72393359375,5.14576530456543,8.031509399414062,-2.163709878921509
1761396106198311000,8.743310791015626,5.150550842285156,8.0350980758667,-2.176870346069336
1761396106217688600,8.7626884765625,5.213960647583008,8.02193832397461,-2.1894326210021973
1761396106237066000,8.78206591796875,5.170889854431152,8.018348693847656,-2.227717876434326
1761396106256443400,8.801443359375,5.189434051513672,7.991429328918457,-2.228914260864258
1761396106275821000,8.820821044921875,5.255236625671387,8.006982803344727,-2.268994092941284
1761396106295198500,8.840198486328125,5.244469165802002,8.022536277770996,-2.276172637939453
1761396106314576000,8.859575927734374,5.173282623291016,8.0350980758667,-2.2205393314361572
1761396106333953500,8.87895361328125,5.120640277862549,8.025527000427246,-2.1517457962036133
1761396106353331000,8.8983310546875,5.164907455444336,8.018946647644043,-2.310270309448242
1761396106372708400,8.917708251953124,5.280361175537109,7.987242221832275,-2.35872483253479
1761396106392086000,8.9370859375,5.237290382385254,7.99800968170166,-2.3503501415252686
1761396106411463400,8.95646337890625,5.149354457855225,8.02193832397461,-2.2540390491485596
1761396106430840800,8.9758408203125,5.143372058868408,8.0291166305542,-2.2055842876434326
1761396106450218500,8.995218505859375,5.216951370239258,8.0081787109375,-2.2061824798583984
1761396106469596000,9.014595947265626,5.333003520965576,7.985447406768799,-2.241476535797119
1761396106488973300,9.033973388671875,5.264808177947998,7.988438606262207,-2.341975212097168
1761396106508351000,9.05335107421875,5.063212871551514,8.008777618408203,-2.2295124530792236
1761396106527728400,9.072728271484374,5.107480049133301,8.024331092834473,-2.160120725631714
1761396106547105800,9.092105712890625,5.157729148864746,8.045866012573242,-2.18045973777771
1761396106566483200,9.111483154296875,5.170889854431152,8.039883613586426,-2.2121646404266357
1761396106585860900,9.13086083984375,5.254040241241455,8.004590034484863,-2.3359930515289307
1761396106605238300,9.15023828125,5.377869129180908,7.994420528411865,-2.4233310222625732
1761396106624616000,9.169615966796876,5.389235019683838,8.039285659790039,-2.2713868618011475
1761396106643993300,9.188993408203125,5.292923450469971,8.032705307006836,-2.124826431274414
1761396106663370800,9.208370849609375,5.123033046722412,8.02074146270752,-2.2055842876434326
1761396106682748200,9.227748046875,5.091328144073486,7.99083137512207,-2.282752752304077
1761396106702125800,9.247125732421875,5.100899696350098,7.978269100189209,-2.2576282024383545
1761396106721503200,9.266503173828125,5.147559642791748,7.95553731918335,-2.2719850540161133
1761396106740880600,9.285880615234374,5.136792182922363,7.942376613616943,-2.304288148880005
1761396106760258300,9.30525830078125,5.161318302154541,7.9621171951293945,-2.397010087966919
1761396106779635700,9.3246357421875,5.315057277679443,7.995616912841797,-2.2845473289489746
1761396106799013000,9.34401318359375,5.326423168182373,8.055437088012695,-2.1272194385528564
1761396106818390800,9.363390869140625,5.173880577087402,8.084749221801758,-1.9980069398880005
1761396106837768200,9.382768310546876,5.143372058868408,8.007580757141113,-2.197807550430298
1761396106857145600,9.4021455078125,5.231308460235596,7.987242221832275,-2.423929452896118
1761396106876523300,9.421523193359375,5.266602516174316,7.974081516265869,-2.3946173191070557
1761396106895900700,9.440900634765624,5.293521881103516,7.981259822845459,-2.324028968811035
1761396106915278000,9.460278076171875,5.163711071014404,7.997411251068115,-2.2468605041503906
1761396106934655700,9.47965576171875,5.06799840927124,8.023134231567383,-2.1924238204956055
1761396106954033200,9.499033203125,5.112265586853027,8.032705307006836,-2.2259232997894287
1761396106973410600,9.51841064453125,5.26600456237793,7.989036560058594,-2.2821545600891113
1761396106992788200,9.537788330078126,5.38624382019043,7.984848976135254,-2.2642083168029785
1761396107012165600,9.55716552734375,5.335994720458984,7.952546119689941,-2.2402801513671875
1761396107031543000,9.57654296875,5.2115678787231445,7.9657063484191895,-2.3718855381011963
1761396107050920400,9.59592041015625,5.237290382385254,7.9657063484191895,-2.338385820388794
1761396107070298000,9.615298095703125,5.187041282653809,7.956733703613281,-2.1613171100616455
1761396107089675500,9.634675537109375,5.20379114151001,7.996214866638184,-2.2468605041503906
1761396107109053200,9.65405322265625,5.175675392150879,7.989036560058594,-2.201396942138672
1761396107128430600,9.6734306640625,5.30548620223999,7.980063438415527,-2.301297187805176
1761396107147808000,9.69280810546875,5.270790100097656,7.991429328918457,-2.2085752487182617
1761396107167185400,9.712185302734374,5.173880577087402,7.994420528411865,-2.193620204925537
1761396107186563000,9.73156298828125,5.2390851974487305,8.047660827636719,-2.2444677352905273
1761396107205940500,9.7509404296875,5.131408214569092,8.01236629486084,-2.1744775772094727
1761396107225318000,9.77031787109375,5.216951370239258,7.998608112335205,-2.2468605041503906
1761396107244695600,9.789695556640625,5.26899528503418,8.02373218536377,-2.1607189178466797
1761396107264073000,9.809072998046876,5.38624382019043,7.920242786407471,-2.1876380443573
1761396107283450400,9.828450439453125,5.407779216766357,7.926225185394287,-2.248655080795288
1761396107302827800,9.847827880859375,5.464010715484619,7.980063438415527,-2.280359983444214
1761396107322205400,9.867205322265624,5.587240695953369,7.9489569664001465,-2.0823538303375244
1761396107341582800,9.886582763671875,5.54177713394165,7.9860453605651855,-2.2085752487182617
1761396107360960500,9.90596044921875,4.872385025024414,8.101499557495117,-2.3706889152526855
1761396107380338000,9.925337890625,4.73300313949585,8.070392608642578,-2.3054845333099365
1761396107399715300,9.94471533203125,4.910071849822998,7.8795647621154785,-2.4430718421936035
1761396107419092700,9.9640927734375,5.36351203918457,7.967501163482666,-2.5393829345703125
1761396107438470400,9.983470458984375,5.200799942016602,8.019545555114746,-2.1655044555664062
1761396107457847800,10.002847900390625,5.553741455078125,7.8628153800964355,-2.297109842300415
1761396107477225200,10.02222509765625,5.5758748054504395,8.100900650024414,-2.431107759475708
