time,seconds_elapsed,z,y,x
1761396906085479200,0.239479248046875,-0.09206390380859375,0.1914653778076172,0.2419205904006958
1761396906104856000,0.25885595703125,0.12333869934082031,0.16296672821044922,0.29157426953315735
1761396906124233000,0.27823291015625,0.09933757781982422,0.17084026336669922,0.22800880670547485
1761396906143609600,0.297609619140625,-0.1762523651123047,0.1468677520751953,0.2652330994606018
1761396906162986500,0.316986572265625,-0.6398229598999023,0.16558837890625,0.1931169331073761
1761396906182363400,0.33636328125,-0.9671483039855957,0.22616291046142578,0.4572429656982422
1761396906201740300,0.355740234375,-0.41527557373046875,0.18685579299926758,0.3117941617965698
1761396906221117200,0.3751171875,0.33882999420166016,0.12372159957885742,0.176216721534729
1761396906240494000,0.394494140625,0.586796760559082,0.15026092529296875,0.21522149443626404
1761396906259871000,0.41387109375,0.5108413696289062,0.1647624969482422,0.15340667963027954
1761396906279248000,0.433247802734375,0.34036731719970703,0.0420222282409668,0.11655649542808533
1761396906298624800,0.452624755859375,-0.15623092651367188,0.007569789886474609,0.21008658409118652
1761396906318001700,0.472001708984375,-0.6925792694091797,0.06971502304077148,0.15228307247161865
1761396906337378300,0.49137841796875,-0.7083959579467773,0.11760663986206055,0.0947594940662384
1761396906356755200,0.510755126953125,-0.13114452362060547,0.1306624412536621,0.2758384346961975
1761396906376132000,0.530132080078125,0.17464256286621094,0.2377943992614746,0.47767528891563416
1761396906395509000,0.549509033203125,0.00559234619140625,0.28960752487182617,0.5653194785118103
1761396906414886000,0.568885986328125,-0.46135425567626953,0.18176984786987305,0.5834020376205444
1761396906434262800,0.5882626953125,-0.9113407135009766,0.23623228073120117,0.2884235382080078
1761396906453639700,0.6076396484375,-0.5681934356689453,0.1866893768310547,0.29000771045684814
1761396906473016600,0.6270166015625,-0.06560134887695312,0.29274749755859375,0.41677892208099365
1761396906492393500,0.6463935546875,0.21747970581054688,0.22934532165527344,0.5227969884872437
1761396906511770000,0.66577001953125,0.4757423400878906,0.15456438064575195,0.03570696711540222
1761396906531147000,0.68514697265625,0.3565826416015625,0.016514301300048828,-0.06877186894416809
1761396906550524000,0.70452392578125,-0.07748222351074219,0.11674165725708008,0.06577509641647339
1761396906569900800,0.72390087890625,-0.16344738006591797,0.15893220901489258,0.1333465874195099
1761396906589277700,0.743277587890625,-0.09865379333496094,0.1587505340576172,0.3384656012058258
1761396906608654600,0.762654541015625,0.08095073699951172,0.12549352645874023,0.2990134358406067
1761396906628031500,0.782031494140625,0.03788948059082031,0.08216381072998047,0.01845031976699829
1761396906647408400,0.801408447265625,0.14190196990966797,0.03470659255981445,-0.027813464403152466
1761396906666785300,0.820785400390625,0.1755390167236328,0.0713338851928711,0.1094718873500824
1761396906686162200,0.840162109375,0.01643657684326172,0.1429729461669922,0.31172025203704834
1761396906705538800,0.859538818359375,-0.10711956024169922,0.14981698989868164,0.38772863149642944
1761396906724915700,0.878915771484375,-0.062361717224121094,0.1183319091796875,0.3399926424026489
1761396906744292600,0.898292724609375,0.02834606170654297,0.10985660552978516,0.2778961658477783
1761396906763669500,0.91766943359375,-0.03271007537841797,0.10816240310668945,0.24466022849082947
1761396906783046400,0.93704638671875,-0.16259479522705078,0.15598344802856445,0.12964588403701782
1761396906802423300,0.95642333984375,-0.24561405181884766,0.13337230682373047,0.19556072354316711
1761396906821800200,0.97580029296875,-0.29585933685302734,0.1893172264099121,0.23180414736270905
1761396906841177000,0.995177001953125,-0.4091815948486328,0.19876337051391602,0.28704559803009033
1761396906860554000,1.014553955078125,-0.27591991424560547,0.21115970611572266,0.20684105157852173
1761396906879931000,1.033930908203125,-0.24374866485595703,0.20131969451904297,0.38311582803726196
1761396906899307500,1.0533076171875,0.3390073776245117,0.1878490447998047,0.15590301156044006
1761396906918684400,1.072684326171875,0.7848911285400391,0.01857137680053711,0.1290387511253357
1761396906938061300,1.092061279296875,0.5689067840576172,-0.02546215057373047,0.1107456386089325
1761396906957438200,1.111438232421875,0.12506484985351562,0.030879974365234375,0.2065938413143158
1761396906976815000,1.130815185546875,-0.5258398056030273,0.10031795501708984,0.27886220812797546
1761396906996192000,1.15019189453125,-0.7623805999755859,0.2208094596862793,0.21047881245613098
1761396907015569000,1.16956884765625,-0.532989501953125,0.2655196189880371,0.435962975025177
1761396907034945800,1.18894580078125,-0.23309612274169922,0.3148336410522461,0.48352980613708496
1761396907054322700,1.20832275390625,0.22230911254882812,0.1858210563659668,0.3081572651863098
1761396907073699600,1.227699462890625,0.5425586700439453,0.08318567276000977,0.08711913228034973
1761396907093076200,1.247076171875,0.37133026123046875,0.056429386138916016,0.1359458863735199
1761396907112453000,1.266453125,0.028909683227539062,0.15285921096801758,0.14373111724853516
1761396907131830000,1.285830078125,-0.1389923095703125,0.12932491302490234,0.05084037780761719
1761396907151207000,1.30520703125,-0.3384113311767578,0.05178499221801758,0.0015923380851745605
1761396907170583800,1.324583740234375,-0.4373044967651367,0.12820768356323242,-0.09138008952140808
1761396907189960700,1.343960693359375,-0.3866863250732422,0.18590879440307617,0.11619609594345093
1761396907209337600,1.363337646484375,-0.4086341857910156,0.33573246002197266,0.48793232440948486
1761396907228714500,1.382714599609375,-0.3787384033203125,0.39899444580078125,0.5692864656448364
1761396907248091400,1.40209130859375,0.27852725982666016,0.2219548225402832,0.3275296688079834
1761396907267468000,1.421468017578125,0.2840557098388672,0.26972484588623047,0.2352968156337738
1761396907286845000,1.440844970703125,-0.20054340362548828,0.262542724609375,0.6013374924659729
1761396907306221800,1.460221923828125,0.030427932739257812,0.0832223892211914,0.4999741315841675
1761396907325598700,1.4795986328125,0.6465024948120117,-0.1716923713684082,-0.02472364902496338
1761396907344975600,1.4989755859375,0.4946002960205078,-0.22455358505249023,-0.3824758529663086
1761396907364352500,1.5183525390625,0.2070903778076172,-0.11266231536865234,-0.4317976236343384
1761396907383729400,1.5377294921875,0.2390117645263672,-0.05492687225341797,0.11583244800567627
1761396907403106300,1.557106201171875,-0.010896682739257812,0.08951282501220703,0.5873269438743591
1761396907422483200,1.576483154296875,-0.08700084686279297,0.12790298461914062,0.5139557123184204
1761396907441860000,1.595860107421875,-0.3119535446166992,0.20145463943481445,0.7034223675727844
1761396907461237000,1.615237060546875,-0.32635021209716797,0.19242238998413086,0.7261222004890442
1761396907480614000,1.63461376953125,-0.38919544219970703,0.1499638557434082,0.34474843740463257
1761396907499990500,1.653990478515625,-0.5685939788818359,0.22816753387451172,0.3172302842140198
1761396907519367400,1.673367431640625,-0.3575592041015625,0.28293657302856445,0.6483125686645508
1761396907538744300,1.692744384765625,-0.10923290252685547,0.28357791900634766,0.5770261287689209
1761396907558121200,1.712121337890625,0.19901180267333984,0.11963748931884766,0.1750110387802124
1761396907577498000,1.731498046875,0.21479320526123047,0.05269145965576172,0.11790207028388977
1761396907596875000,1.750875,-0.046782493591308594,0.18841886520385742,0.21128931641578674
1761396907616252000,1.770251953125,-0.26784324645996094,0.20670843124389648,0.20103996992111206
1761396907635628800,1.78962890625,-0.2677040100097656,0.24056196212768555,0.12034875154495239
1761396907655005700,1.809005615234375,-0.07776641845703125,0.16486787796020508,-0.037409454584121704
1761396907674382600,1.828382568359375,0.015151023864746094,0.15019750595092773,-0.02026119828224182
1761396907693759200,1.84775927734375,0.010042190551757812,0.23143863677978516,0.04978179931640625
1761396907713136000,1.86713623046875,0.03157234191894531,0.27600622177124023,-0.008085012435913086
1761396907732513000,1.886512939453125,0.13902664184570312,0.2555265426635742,-0.15700402855873108
1761396907751890000,1.905889892578125,-0.05191516876220703,0.1954197883605957,-0.07149282097816467
1761396907771266800,1.925266845703125,-0.2579326629638672,0.1626572608947754,-0.10662657022476196
1761396907790643700,1.944643798828125,-0.29571056365966797,0.13097572326660156,-0.0731634795665741
1761396907810020600,1.9640205078125,-0.29761219024658203,0.07753372192382812,0.13901889324188232
1761396907829397500,1.9833974609375,-0.0024394989013671875,0.010609626770019531,0.231047585606575
1761396907848774400,2.0027744140625,0.2508420944213867,-0.029236316680908203,0.3706812262535095
1761396907868151300,2.0221513671875,0.0044879913330078125,0.06641244888305664,0.6302258968353271
1761396907887528200,2.041528076171875,-0.11918163299560547,-0.012154102325439453,0.7356919646263123
1761396907906905000,2.060905029296875,-0.058078765869140625,-0.08657646179199219,0.4771965742111206
1761396907926281700,2.08028173828125,-0.07434844970703125,-0.011951446533203125,0.28267794847488403
1761396907945658600,2.09965869140625,-0.0747823715209961,0.11368703842163086,0.22885119915008545
1761396907965035500,2.119035400390625,-0.11868953704833984,0.24629878997802734,0.3451470136642456
1761396907984412400,2.138412353515625,-0.09077739715576172,0.2996706962585449,0.41854795813560486
1761396908003789300,2.157789306640625,-0.04515266418457031,0.29936742782592773,0.4094930589199066
1761396908023166200,2.177166259765625,-0.1805877685546875,0.28771543502807617,0.48967403173446655
1761396908042543000,2.196543212890625,-0.2728567123413086,0.27532958984375,0.4019203782081604
1761396908061920000,2.215919921875,-0.28862667083740234,0.28252744674682617,0.3445081114768982
1761396908081297000,2.235296875,-0.10108375549316406,0.32110071182250977,0.2969799041748047
1761396908100673800,2.254673828125,0.21442699432373047,0.16580915451049805,0.21237999200820923
1761396908120050700,2.27405078125,0.36971282958984375,-0.0541081428527832,-0.29488974809646606
1761396908139427600,2.293427490234375,0.24872589111328125,-0.17637872695922852,-0.6821240186691284
1761396908158804500,2.312804443359375,0.16044044494628906,-0.13962316513061523,-0.6309384703636169
1761396908178181000,2.33218115234375,0.17847251892089844,-0.016800880432128906,-0.16302579641342163
1761396908197558000,2.35155810546875,0.15518474578857422,0.10254669189453125,0.2984601557254791
1761396908216935000,2.370934814453125,-0.13318252563476562,0.24680185317993164,0.6626688838005066
1761396908236311800,2.390311767578125,-0.061066627502441406,0.21856403350830078,0.6285383701324463
1761396908255688700,2.409688720703125,0.011484146118164062,0.12451601028442383,0.40634435415267944
1761396908275065600,2.429065673828125,-0.3332834243774414,0.10914850234985352,0.3969511091709137
1761396908294442500,2.4484423828125,-0.42919921875,0.14740753173828125,0.3905348777770996
1761396908313819400,2.4678193359375,-0.2507047653198242,0.18680334091186523,0.327409029006958
1761396908333196300,2.4871962890625,0.12823963165283203,0.2035536766052246,0.33744049072265625
1761396908352573200,2.5065732421875,0.20771408081054688,0.17827987670898438,0.11791163682937622
1761396908371950000,2.5259501953125,0.03827953338623047,0.11619806289672852,-0.03401428461074829
1761396908391327000,2.545326904296875,-0.0012445449829101562,0.10348939895629883,-0.09183120727539062
1761396908410703600,2.56470361328125,-0.22889232635498047,0.1600780487060547,0.11661601066589355
1761396908430080500,2.58408056640625,-0.2263050079345703,0.14428138732910156,0.28880175948143005
1761396908449457400,2.60345751953125,-0.09802436828613281,0.1458759307861328,0.19748282432556152
1761396908468834300,2.622834228515625,-0.10308551788330078,0.13000869750976562,0.37914642691612244
1761396908488211200,2.642211181640625,0.15871810913085938,0.0659036636352539,0.43490806221961975
1761396908507588000,2.661588134765625,0.3281707763671875,0.03307056427001953,0.3342043161392212
1761396908526965000,2.680965087890625,0.11040687561035156,0.09309577941894531,0.3081373870372772
1761396908546342000,2.700341796875,-0.14934062957763672,0.14951705932617188,0.33777233958244324
1761396908565718800,2.71971875,-0.2429342269897461,0.16128158569335938,0.18956446647644043
1761396908585095700,2.739095703125,-0.16473388671875,0.1984081268310547,0.16733795404434204
1761396908604472600,2.75847265625,-0.12773704528808594,0.22290849685668945,0.3187759518623352
1761396908623849500,2.777849365234375,-0.11871719360351562,0.20140457153320312,0.34045031666755676
1761396908643226400,2.797226318359375,0.021509170532226562,0.08546590805053711,0.23466521501541138
1761396908662603300,2.816603271484375,0.17258739471435547,0.01909351348876953,0.12968313694000244
1761396908681980000,2.83597998046875,0.038603782653808594,0.05241727828979492,0.17805248498916626
1761396908701356800,2.855356689453125,-0.047675132751464844,0.15097808837890625,0.26414263248443604
1761396908720733700,2.874733642578125,-0.0830678939819336,0.1650538444519043,0.25458401441574097
1761396908740110600,2.894110595703125,-0.03965950012207031,0.1324477195739746,0.03274589776992798
1761396908759487500,2.913487548828125,0.013582229614257812,0.06860017776489258,-0.02801913022994995
1761396908778864400,2.932864501953125,-0.020293235778808594,0.10235023498535156,0.14996063709259033
1761396908798241300,2.9522412109375,-0.13670730590820312,0.17753839492797852,0.31362950801849365
1761396908817618200,2.9716181640625,-0.17474651336669922,0.18251371383666992,0.37645721435546875
1761396908836995000,2.9909951171875,-0.12798500061035156,0.16983270645141602,0.37206143140792847
1761396908856372000,3.0103720703125,0.028800010681152344,0.08711910247802734,0.11612570285797119
1761396908875748900,3.029748779296875,0.2552194595336914,0.026950359344482422,-0.14938098192214966
1761396908895125800,3.049125732421875,0.13480186462402344,0.10778141021728516,0.06992149353027344
1761396908914502700,3.068502685546875,-0.05174827575683594,0.2020726203918457,0.3511051833629608
1761396908933879300,3.08787939453125,-0.16375732421875,0.21247196197509766,0.28660041093826294
1761396908953256200,3.107256103515625,-0.09094619750976562,0.10945987701416016,0.21657317876815796
1761396908972633000,3.126633056640625,-0.196685791015625,0.16591978073120117,0.33200937509536743
1761396908992010000,3.146010009765625,-0.21949100494384766,0.13675785064697266,0.33330556750297546
1761396909011387000,3.165386962890625,-0.18025779724121094,0.11863040924072266,0.32319003343582153
1761396909030763800,3.184763671875,0.045844078063964844,0.060629844665527344,0.3560221493244171
1761396909050140700,3.204140625,0.22381877899169922,0.03742218017578125,0.23685580492019653
1761396909069517600,3.223517578125,0.12236785888671875,0.05364227294921875,0.16399383544921875
1761396909088894500,3.24289453125,-0.11652088165283203,0.13144683837890625,0.3092593848705292
1761396909108271400,3.262271240234375,-0.2584981918334961,0.1890726089477539,0.32257014513015747
1761396909127648300,3.281648193359375,-0.07073593139648438,0.13414573669433594,0.10932201147079468
1761396909147025200,3.301025146484375,0.05771636962890625,0.11679267883300781,-0.007470428943634033
1761396909166402000,3.320402099609375,-0.0008144378662109375,0.17742061614990234,0.13660049438476562
1761396909185779000,3.339779052734375,-0.057621002197265625,0.17119073867797852,0.17870014905929565
1761396909205155800,3.35915576171875,-0.02891254425048828,0.15874528884887695,0.09160971641540527
1761396909224532500,3.378532470703125,0.05111980438232422,0.12987422943115234,0.18934345245361328
1761396909243909600,3.39790966796875,-0.018480300903320312,0.14376020431518555,0.22342532873153687
1761396909263286300,3.417286376953125,-0.0968618392944336,0.1448383331298828,0.1719433069229126
1761396909282663200,3.4366630859375,-0.0760335922241211,0.11238527297973633,0.12605637311935425
1761396909302040000,3.4560400390625,0.04071235656738281,0.054290771484375,0.15460717678070068
1761396909321417000,3.4754169921875,-0.0059757232666015625,0.0639028549194336,0.2618985176086426
1761396909340793900,3.4947939453125,-0.10647964477539062,0.07442712783813477,0.3303152322769165
1761396909360170800,3.514170654296875,-0.070159912109375,0.08010005950927734,0.3302898108959198
1761396909379547600,3.533547607421875,0.010880470275878906,0.12312746047973633,0.3522544503211975
1761396909398924500,3.552924560546875,0.012692451477050781,0.18991327285766602,0.2896565794944763
1761396909418301400,3.572301513671875,-0.09876155853271484,0.2188253402709961,0.30830803513526917
1761396909437678300,3.59167822265625,-0.027541160583496094,0.18025445938110352,0.21075540781021118
1761396909457055200,3.61105517578125,-0.19355201721191406,0.16600608825683594,0.21685898303985596
1761396909476432100,3.63043212890625,-0.20410919189453125,0.16845083236694336,0.18528896570205688
1761396909495809000,3.64980908203125,0.046367645263671875,0.095611572265625,0.07621830701828003
1761396909515186000,3.66918603515625,0.14774513244628906,0.07610750198364258,0.06019014120101929
1761396909534562600,3.6885625,0.16547393798828125,0.0743408203125,0.10349392890930176
1761396909553939500,3.707939453125,0.05505657196044922,0.04513740539550781,0.20881515741348267
1761396909573316400,3.72731640625,-0.19048500061035156,0.08556842803955078,0.26408863067626953
1761396909592693200,3.746693359375,-0.2135305404663086,0.11319732666015625,0.27140915393829346
1761396909612070100,3.766070068359375,-0.03113555908203125,0.1639242172241211,0.2591433525085449
1761396909631447000,3.785447021484375,0.01692485809326172,0.2073516845703125,0.1783263087272644
1761396909650824000,3.804823974609375,0.008962631225585938,0.17822599411010742,0.21032679080963135
1761396909670200800,3.824200927734375,0.06250858306884766,0.11590337753295898,0.11025536060333252
1761396909689577700,3.84357763671875,0.07615280151367188,0.050585269927978516,0.03952360153198242
1761396909708954600,3.86295458984375,-0.04059028625488281,0.06373405456542969,0.07324296236038208
1761396909728331500,3.88233154296875,-0.18133831024169922,0.15093374252319336,0.28478920459747314
1761396909747708400,3.90170849609375,-0.17589569091796875,0.18855047225952148,0.39679837226867676
1761396909767085300,3.921085205078125,-0.0151519775390625,0.12305021286010742,0.2479754090309143
1761396909786462200,3.940462158203125,0.09888458251953125,0.06919431686401367,0.17399084568023682
1761396909805839000,3.959839111328125,0.1262044906616211,0.07305622100830078,0.2151128649711609
1761396909825216000,3.979216064453125,0.1177053451538086,0.09536886215209961,0.13598501682281494
1761396909844593000,3.998593017578125,-0.1154794692993164,0.12068367004394531,0.10964465141296387
1761396909863969800,4.0179697265625,-0.17605113983154297,0.1765117645263672,0.24000424146652222
1761396909883346400,4.037346435546875,-0.05330371856689453,0.1997084617614746,0.4504837989807129
1761396909902723300,4.056723388671875,-0.0638284683227539,0.20146560668945312,0.3493344187736511
1761396909922102000,4.07610205078125,-0.13266849517822266,0.09702301025390625,0.17321550846099854
1761396909941477000,4.09547705078125,-0.022634506225585938,0.04444456100463867,0.09423583745956421
1761396909960854000,4.11485400390625,0.07292652130126953,0.03276348114013672,0.17617440223693848
1761396909980231000,4.13423095703125,0.10629844665527344,0.0344853401184082,0.23205500841140747
1761396909999704300,4.153704345703125,0.10320091247558594,0.010085582733154297,0.1671963334083557
1761396910038361600,4.192361572265625,-0.21658706665039062,0.15306568145751953,0.1939692497253418
1761396910057738500,4.211738525390625,-0.2492847442626953,0.2265634536743164,0.2735077440738678
1761396910077115400,4.231115478515625,0.01366424560546875,0.16400527954101562,0.23052853345870972
1761396910096492300,4.2504921875,0.21986007690429688,0.06016397476196289,0.11930125951766968
1761396910115869200,4.269869140625,0.06455612182617188,0.03166961669921875,0.11642366647720337
1761396910135246000,4.28924609375,-0.012195587158203125,0.05493879318237305,0.2206798791885376
1761396910154623000,4.308623046875,-0.10419654846191406,0.19975709915161133,0.2537787854671478
1761396910173999900,4.327999755859375,-0.12242317199707031,0.23378419876098633,0.22405633330345154
1761396910193376800,4.347376708984375,0.05970191955566406,0.16405868530273438,0.10567969083786011
1761396910212753700,4.366753662109375,-0.02205371856689453,0.12293529510498047,0.03767138719558716
1761396910232130600,4.386130615234375,-0.18028545379638672,0.1344447135925293,0.17078644037246704
1761396910251507200,4.405507080078125,-0.10159015655517578,0.12527894973754883,0.36219513416290283
1761396910270884000,4.424884033203125,0.034193992614746094,0.08170413970947266,0.22272783517837524
1761396910290261000,4.444260986328125,-0.03534126281738281,0.04570341110229492,0.1944960653781891
1761396910309638000,4.463637939453125,-0.06352996826171875,0.06324195861816406,0.27521803975105286
1761396910329014800,4.483014892578125,0.014982223510742188,0.0843496322631836,0.3119906187057495
1761396910348391700,4.5023916015625,-0.07053852081298828,0.15609264373779297,0.28079289197921753
1761396910367768600,4.5217685546875,-0.21359729766845703,0.1809396743774414,0.2971869111061096
1761396910387145500,4.5411455078125,-0.1160745620727539,0.1542830467224121,0.24720418453216553
1761396910406522400,4.5605224609375,0.0033941268920898438,0.10892963409423828,0.11749249696731567
1761396910425899300,4.579899169921875,-0.027036666870117188,0.12075376510620117,0.08688461780548096
1761396910445276200,4.599276123046875,0.06588268280029297,0.07161617279052734,0.14734065532684326
1761396910464653000,4.618653076171875,0.06689167022705078,0.030708789825439453,0.24079638719558716
1761396910484030000,4.638030029296875,-0.08537864685058594,0.04703044891357422,0.17754000425338745
1761396910503406800,4.65740673828125,-0.1542682647705078,0.07016468048095703,0.15606099367141724
1761396910522783700,4.67678369140625,0.03354835510253906,0.09894371032714844,0.09956187009811401
1761396910542160600,4.69616064453125,-0.14476871490478516,0.14658355712890625,0.062070250511169434
1761396910561537500,4.71553759765625,-0.42357826232910156,0.1732625961303711,0.03027498722076416
1761396910580914400,4.73491455078125,0.5757408142089844,0.17980194091796875,-0.32002246379852295
1761396910600291300,4.754291259765625,0.6524810791015625,-0.0397334098815918,0.009056568145751953
1761396910619668200,4.773668212890625,-0.3751354217529297,-0.009831428527832031,0.1720409095287323
1761396910639044900,4.793044921875,-0.1316537857055664,0.10877370834350586,0.25840282440185547
1761396910658422000,4.812422119140625,0.21682357788085938,0.18864154815673828,0.6113527417182922
1761396910677798700,4.831798583984375,-0.17345619201660156,0.2933201789855957,0.6958280205726624
1761396910697175600,4.851175537109375,-0.3451814651489258,0.25273799896240234,0.31251025199890137
1761396910716552400,4.870552490234375,-0.21470355987548828,0.16978740692138672,0.14931094646453857
1761396910735929300,4.889929443359375,-0.10410499572753906,0.16512727737426758,0.3145924210548401
1761396910755306200,4.90930615234375,-0.056748390197753906,0.13082456588745117,0.39612412452697754
1761396910774683100,4.92868310546875,-0.07089805603027344,0.16879558563232422,0.4297146499156952
1761396910794060000,4.94806005859375,0.019517898559570312,0.14140558242797852,0.4718571901321411
1761396910813437000,4.96743701171875,-0.06598663330078125,-0.02375507354736328,0.24391216039657593
1761396910832813800,4.986813720703125,-0.1320171356201172,-0.14557600021362305,0.01088559627532959
1761396910852190700,5.006190673828125,0.0012445449829101562,-0.09908533096313477,0.014541089534759521
1761396910871567600,5.025567626953125,0.16851234436035156,0.043506622314453125,0.07640081644058228
1761396910890944500,5.044944580078125,0.27042293548583984,0.09553146362304688,0.11370867490768433
1761396910910321400,5.0643212890625,0.07536697387695312,0.19784975051879883,0.07070255279541016
1761396910929698300,5.0836982421875,-0.3122673034667969,0.22288990020751953,0.1482938528060913
1761396910949075200,5.1030751953125,-0.18453598022460938,0.2127981185913086,0.11235547065734863
1761396910968452000,5.1224521484375,0.036197662353515625,0.18217086791992188,0.10501164197921753
1761396910987829000,5.1418291015625,-0.059154510498046875,0.1844038963317871,0.13376855850219727
1761396911007206000,5.161205810546875,-0.017294883728027344,0.10667037963867188,0.10848522186279297
1761396911026582800,5.180582763671875,0.07910823822021484,0.0471186637878418,0.06299459934234619
1761396911045959700,5.199959716796875,-0.08275985717773438,0.057781219482421875,0.06404024362564087
1761396911065336600,5.219336669921875,-0.08436965942382812,0.06260299682617188,0.07595652341842651
1761396911084713500,5.23871337890625,0.07342815399169922,0.05238199234008789,0.05343663692474365
1761396911104090000,5.258090087890625,0.032242774963378906,0.08307027816772461,0.17882150411605835
1761396911123467000,5.277467041015625,-0.004967689514160156,0.09497213363647461,0.25790756940841675
1761396911142844200,5.29684423828125,-0.09299755096435547,0.09153413772583008,0.2814571261405945
1761396911162220800,5.316220703125,-0.027797698974609375,0.07005500793457031,0.27910351753234863
1761396911181597700,5.33559765625,0.09685516357421875,0.07631874084472656,0.4026900827884674
1761396911200974600,5.354974609375,-0.03591632843017578,0.09179544448852539,0.36362022161483765
1761396911220351500,5.3743515625,-0.1600933074951172,0.08414793014526367,0.27847379446029663
1761396911239728400,5.393728271484375,-0.11573028564453125,0.09464263916015625,0.22092151641845703
1761396911259105300,5.413105224609375,-0.053924560546875,0.13412189483642578,0.15480774641036987
1761396911278482200,5.432482177734375,0.04657936096191406,0.1370091438293457,0.07441872358322144
1761396911297859000,5.451859130859375,0.18052101135253906,0.11131906509399414,0.05037999153137207
1761396911317236000,5.471236083984375,0.02894115447998047,0.14755010604858398,0.12163704633712769
1761396911336612900,5.49061279296875,-0.15998554229736328,0.1791248321533203,0.3205178678035736
1761396911355989800,5.50998974609375,-0.05769062042236328,0.09743499755859375,0.18437498807907104
1761396911375366700,5.52936669921875,-0.0946493148803711,0.04244184494018555,0.011703252792358398
1761396911394743600,5.54874365234375,-0.055419921875,0.03607511520385742,0.0972970724105835
1761396911414120400,5.568120361328125,0.10383415222167969,0.10727453231811523,0.22395670413970947
1761396911433497300,5.587497314453125,0.08414649963378906,0.1382908821105957,0.33689022064208984
1761396911452874200,5.606874267578125,-0.04184722900390625,0.13338232040405273,0.4823998808860779
1761396911472251100,5.626251220703125,-0.20854473114013672,0.10573768615722656,0.24111968278884888
1761396911491628000,5.6456279296875,-0.30895233154296875,0.11359643936157227,0.15026408433914185
1761396911511005000,5.6650048828125,-0.24849605560302734,0.13743019104003906,0.4372767508029938
1761396911530381800,5.6843818359375,-0.034682273864746094,0.12324047088623047,0.56667160987854
1761396911549758700,5.7037587890625,0.05559062957763672,0.10549354553222656,0.2305775284767151
1761396911569135600,5.723135498046875,0.05738258361816406,0.09973526000976562,-0.07552796602249146
1761396911588512500,5.742512451171875,0.06792640686035156,0.09979629516601562,-0.20615261793136597
1761396911607889400,5.761889404296875,0.13637638092041016,0.08977365493774414,-0.3354227542877197
1761396911627266300,5.781266357421875,0.15686988830566406,0.038639068603515625,-0.25806039571762085
1761396911646643200,5.800643310546875,-0.02953815460205078,0.07305717468261719,0.1304992437362671
1761396911666020000,5.82002001953125,-0.09671401977539062,0.05222940444946289,0.3200639486312866
1761396911685396700,5.839396728515625,-0.08779716491699219,0.034102439880371094,0.2880135774612427
1761396911704774000,5.85877392578125,0.007656097412109375,0.08917617797851562,0.33371269702911377
1761396911724150500,5.878150634765625,-0.0019693374633789062,0.1403050422668457,0.3150104880332947
1761396911743527400,5.89752734375,-0.1156930923461914,0.18764114379882812,0.20215636491775513
1761396911762904300,5.916904296875,-0.04314231872558594,0.15822315216064453,0.1542494297027588
1761396911782281200,5.93628125,0.03133106231689453,0.13235902786254883,0.19527369737625122
1761396911801658000,5.955658203125,-0.08177757263183594,0.10320138931274414,0.13789641857147217
1761396911821035000,5.975034912109375,-0.07819461822509766,0.04292154312133789,0.1410394310951233
1761396911840412000,5.994411865234375,0.09054088592529297,0.013764381408691406,0.2593645453453064
1761396911859788800,6.013788818359375,0.1411418914794922,0.03402900695800781,0.2641493082046509
1761396911879165700,6.033165771484375,0.019331932067871094,0.05535316467285156,0.13155585527420044
1761396911898542600,6.05254248046875,-0.15649700164794922,0.0926971435546875,0.17821729183197021
1761396911917919500,6.07191943359375,-0.08958244323730469,0.09658288955688477,0.1732645034790039
1761396911937296400,6.09129638671875,0.06943416595458984,0.0995335578918457,0.06404244899749756
1761396911956673300,6.11067333984375,-0.028469085693359375,0.12608575820922852,0.10697442293167114
1761396911976050200,6.13005029296875,-0.022874832153320312,0.12003564834594727,0.1208835244178772
1761396911995427000,6.149427001953125,0.013811111450195312,0.10024070739746094,0.1456848382949829
1761396912014804000,6.168803955078125,-0.06045246124267578,0.15160751342773438,0.14508849382400513
1761396912034180900,6.188180908203125,-0.1629791259765625,0.14872169494628906,0.24468207359313965
1761396912053557800,6.207557861328125,-0.13460731506347656,0.10332918167114258,0.18443822860717773
1761396912072934700,6.2269345703125,-0.058040618896484375,0.03447389602661133,0.1444416642189026
1761396912092311600,6.2463115234375,0.04236602783203125,0.051267147064208984,0.17956119775772095
1761396912111688400,6.2656884765625,0.0709390640258789,0.11532020568847656,0.2563282251358032
1761396912131065300,6.2850654296875,-0.07984447479248047,0.14869976043701172,0.2689560055732727
1761396912150442200,6.304442138671875,0.018733978271484375,0.05555009841918945,0.17404532432556152
1761396912169819100,6.323819091796875,0.17345714569091797,0.016511917114257812,0.03872197866439819
1761396912189196000,6.343196044921875,0.01620197296142578,0.078857421875,0.21286559104919434
1761396912208573000,6.362572998046875,-0.02806854248046875,0.12362957000732422,0.2692444920539856
1761396912227949800,6.38194970703125,-0.009576797485351562,0.0836496353149414,0.15981310606002808
1761396912247326700,6.40132666015625,-0.1635732650756836,0.056944847106933594,0.1539939045906067
1761396912266703600,6.42070361328125,-0.1398334503173828,0.056073665618896484,0.15631228685379028
1761396912286080500,6.44008056640625,0.021986961364746094,0.06688737869262695,0.17016065120697021
1761396912305457400,6.45945751953125,0.004596710205078125,0.12008476257324219,0.254962682723999
1761396912324834300,6.478834228515625,-0.0699758529663086,0.1424102783203125,0.29261308908462524
1761396912344211200,6.498211181640625,0.04058647155761719,0.0968170166015625,0.18940776586532593
1761396912363588000,6.517588134765625,0.0781097412109375,0.0511631965637207,0.028578579425811768
1761396912382965000,6.536965087890625,-0.06417655944824219,0.06714296340942383,-0.010800480842590332
1761396912402342000,6.556341796875,-0.07245254516601562,0.10148763656616211,0.18042176961898804
1761396912421718800,6.57571875,-0.06708908081054688,0.1590414047241211,0.3461301922798157
1761396912441095400,6.595095458984375,-0.04645252227783203,0.1274094581604004,0.26627421379089355
1761396912460472600,6.61447265625,0.04454517364501953,0.093536376953125,0.087321937084198
1761396912479849500,6.633849365234375,0.10129642486572266,0.043610572814941406,0.0514448881149292
1761396912499226000,6.65322607421875,0.043219566345214844,0.04341697692871094,0.042758285999298096
1761396912518603300,6.672603271484375,0.04697704315185547,0.06154966354370117,0.07959127426147461
1761396912537980000,6.69197998046875,-0.0073032379150390625,0.08821916580200195,0.15897303819656372
1761396912557356800,6.711356689453125,-0.10104656219482422,0.13334178924560547,0.21654731035232544
1761396912576734000,6.73073388671875,-0.10500144958496094,0.0872187614440918,0.243632972240448
1761396912596110600,6.750110595703125,-0.13548564910888672,0.11426305770874023,0.1543889045715332
1761396912615487500,6.769487548828125,-0.12975597381591797,0.11801576614379883,0.2203947901725769
1761396912634864400,6.788864501953125,0.059477806091308594,0.09084415435791016,0.16247451305389404
1761396912654241300,6.8082412109375,0.11279678344726562,0.05079936981201172,0.1279781460762024
1761396912673618200,6.8276181640625,-0.007342338562011719,0.09416055679321289,0.21277225017547607
1761396912692995000,6.8469951171875,-0.07641029357910156,0.09992408752441406,0.21533674001693726
1761396912712372000,6.8663720703125,-0.08224201202392578,0.05862236022949219,0.0637284517288208
1761396912731748900,6.885748779296875,-0.009024620056152344,0.05637979507446289,-0.010924577713012695
1761396912751125800,6.905125732421875,0.052588462829589844,0.09047126770019531,0.16749191284179688
1761396912770502700,6.924502685546875,-0.04156494140625,0.14176130294799805,0.31387680768966675
1761396912789879600,6.943879638671875,-0.030765533447265625,0.11970186233520508,0.22135674953460693
1761396912809256400,6.96325634765625,0.017807960510253906,0.05864286422729492,0.075958251953125
1761396912828633300,6.98263330078125,0.04756736755371094,0.028835296630859375,0.11743146181106567
1761396912848010200,7.00201025390625,-0.010405540466308594,0.07232999801635742,0.20699501037597656
1761396912867387100,7.02138720703125,-0.04162406921386719,0.10112333297729492,0.13728463649749756
1761396912886764000,7.040763916015625,-0.1261730194091797,0.1329817771911621,0.10886120796203613
1761396912906141000,7.060140869140625,-0.11928844451904297,0.09554004669189453,0.16770362854003906
1761396912925517800,7.079517822265625,0.022634506225585938,0.06118488311767578,0.1661289930343628
1761396912944894700,7.098894775390625,0.14012813568115234,0.05886650085449219,0.11987030506134033
1761396912964271600,7.118271728515625,0.08691024780273438,0.08965682983398438,0.13481581211090088
1761396912983648500,7.1376484375,-0.018326759338378906,0.08960628509521484,0.1774231195449829
1761396913003025400,7.157025390625,-0.1562480926513672,0.1228475570678711,0.3227770924568176
1761396913022402300,7.17640234375,-0.2530517578125,0.1802654266357422,0.4210701584815979
1761396913041779200,7.195779296875,-0.25843334197998047,0.2074885368347168,0.4402470588684082
1761396913061156000,7.215156005859375,-0.036736488342285156,0.057318687438964844,0.09840536117553711
1761396913080533000,7.234532958984375,0.29931163787841797,-0.015828609466552734,-0.2545948028564453
1761396913099910000,7.253909912109375,0.5129156112670898,-0.15337848663330078,-0.4401545524597168
1761396913119286800,7.273286865234375,0.4004049301147461,-0.09019088745117188,-0.24325942993164062
1761396913138663700,7.29266357421875,0.1522226333618164,0.028771400451660156,0.1889832615852356
1761396913158040600,7.31204052734375,-0.30359363555908203,0.1476597785949707,0.42692136764526367
1761396913177417500,7.33141748046875,-0.6796875,0.22347116470336914,0.44704413414001465
1761396913196794400,7.35079443359375,-0.4554710388183594,0.2017822265625,0.4492913484573364
1761396913216171300,7.370171142578125,0.1950855255126953,0.07746553421020508,0.3299943208694458
1761396913235548200,7.389548095703125,0.3589897155761719,0.05183124542236328,0.11882984638214111
1761396913254925000,7.408925048828125,0.0749502182006836,0.05660104751586914,0.010860323905944824
1761396913274302000,7.428302001953125,-0.023214340209960938,0.030695438385009766,0.00241243839263916
1761396913293678800,7.447678955078125,-0.06208610534667969,0.048842430114746094,-0.05945789813995361
1761396913313055700,7.4670556640625,-0.172821044921875,0.1186671257019043,0.07136797904968262
1761396913332432600,7.4864326171875,-0.0650796890258789,0.14453601837158203,0.18078315258026123
1761396913351809500,7.5058095703125,-0.032820701599121094,0.13791608810424805,0.11220008134841919
1761396913371186400,7.5251865234375,-0.06909942626953125,0.08749532699584961,0.11794352531433105
1761396913390563300,7.544563232421875,-0.006432533264160156,0.06403541564941406,0.24973618984222412
1761396913409940200,7.563940185546875,0.01522064208984375,0.036777496337890625,0.29325634241104126
1761396913429317000,7.583317138671875,-0.03727436065673828,0.06258106231689453,0.19907253980636597
1761396913448694000,7.602694091796875,0.04148292541503906,0.04517316818237305,0.06138187646865845
1761396913468071000,7.62207080078125,0.05488777160644531,0.08615303039550781,0.10667765140533447
1761396913487447800,7.64144775390625,0.07753562927246094,0.08243274688720703,0.19876796007156372
1761396913506824700,7.66082470703125,-0.012303352355957031,0.10139179229736328,0.17160803079605103
1761396913526201600,7.68020166015625,-0.08881092071533203,0.1042928695678711,0.1309272050857544
1761396913545578500,7.69957861328125,-0.12175941467285156,0.0688180923461914,0.15580129623413086
1761396913564955400,7.718955322265625,-0.08244991302490234,0.06824159622192383,0.15528106689453125
1761396913584332300,7.738332275390625,0.018036842346191406,0.07293081283569336,0.20379215478897095
1761396913603709200,7.757709228515625,-0.01870250701904297,0.06490468978881836,0.14290499687194824
1761396913623086000,7.777086181640625,-0.05353832244873047,0.10214519500732422,0.12100708484649658
1761396913642463000,7.796462890625,0.022268295288085938,0.08672094345092773,0.14829802513122559
1761396913661840000,7.81583984375,0.08613014221191406,0.06574106216430664,0.0655066967010498
1761396913681216800,7.835216796875,-0.0719461441040039,0.11456537246704102,0.22277283668518066
1761396913700593700,7.85459375,-0.14502620697021484,0.11262845993041992,0.3318917751312256
1761396913719970600,7.873970458984375,-0.1371622085571289,0.06590604782104492,0.16510522365570068
1761396913739347500,7.893347412109375,-0.12226200103759766,0.09200239181518555,0.06025606393814087
1761396913758724400,7.912724365234375,-0.12392616271972656,0.14723968505859375,0.19425219297409058
1761396913778101200,7.932101318359375,0.08424854278564453,0.09826946258544922,0.21574532985687256
1761396913797478100,7.95147802734375,0.1743030548095703,0.0325927734375,0.08713579177856445
1761396913816855000,7.97085498046875,0.2445363998413086,0.009784221649169922,-0.0027713775634765625
1761396913836232000,7.99023193359375,0.22359275817871094,-0.0008668899536132812,0.03387868404388428
1761396913855608800,8.00960888671875,0.006508827209472656,0.04883241653442383,0.0384366512298584
1761396913874985700,8.02898583984375,-0.18085098266601562,0.09901142120361328,0.155845046043396
1761396913894362600,8.048362548828125,-0.149261474609375,0.11703109741210938,0.2667232155799866
1761396913913739500,8.067739501953126,-0.07164955139160156,0.14148283004760742,0.1960136890411377
1761396913933116400,8.087116455078124,-0.04240703582763672,0.11094951629638672,0.13374954462051392
1761396913952493300,8.106493408203125,0.05742168426513672,0.047438621520996094,0.14233046770095825
1761396913971870200,8.1258701171875,0.15856170654296875,0.01328897476196289,0.12406134605407715
1761396913991247000,8.1452470703125,-0.05188274383544922,0.05517864227294922,0.16452395915985107
1761396914010624000,8.1646240234375,-0.11178874969482422,0.027113914489746094,0.1871080994606018
1761396914030001000,8.1840009765625,-0.06534004211425781,0.03308582305908203,0.12300312519073486
1761396914049377800,8.203377685546876,-0.08217525482177734,0.10359573364257812,0.15564948320388794
1761396914068754700,8.222754638671875,0.018209457397460938,0.09519338607788086,0.21514952182769775
1761396914088131600,8.242131591796875,0.11057853698730469,0.025403976440429688,0.071236252784729
1761396914107508500,8.261508544921876,0.017091751098632812,0.002551555633544922,-0.06448829174041748
1761396914126885400,8.280885498046874,-0.05316448211669922,0.05816173553466797,0.02850210666656494
1761396914146262300,8.30026220703125,0.021688461303710938,0.10083389282226562,0.3304724097251892
1761396914165639200,8.31963916015625,0.04915142059326172,0.14165687561035156,0.20311832427978516
1761396914185016000,8.33901611328125,-0.07187747955322266,0.10139894485473633,0.1379249095916748
1761396914204393000,8.35839306640625,-0.019087791442871094,0.11040878295898438,0.17674016952514648
1761396914223769900,8.377769775390625,-0.02248859405517578,0.12356042861938477,0.1870659589767456
1761396914243146800,8.397146728515626,-0.1159963607788086,0.08788347244262695,0.04650425910949707
1761396914262523600,8.416523681640625,0.11697101593017578,0.004904747009277344,-0.028053998947143555
1761396914281900500,8.435900634765625,0.11998653411865234,0.04696464538574219,0.059836506843566895
1761396914301277400,8.45527734375,-0.150634765625,0.07222318649291992,0.17867732048034668
1761396914320654300,8.474654296875,-0.10505199432373047,0.02839517593383789,0.04383730888366699
1761396914340031200,8.49403125,-0.0499420166015625,0.051543235778808594,0.14838337898254395
1761396914359408000,8.513408203125,-0.035533905029296875,0.09051990509033203,0.28311967849731445
1761396914378785000,8.532784912109374,-0.021658897399902344,0.10455036163330078,0.28523218631744385
1761396914398162000,8.552161865234375,0.056835174560546875,0.07858133316040039,0.16818463802337646
1761396914417538800,8.571538818359375,0.015997886657714844,0.06503534317016602,0.08391690254211426
1761396914436915700,8.590915771484376,-0.02977466583251953,0.04240226745605469,0.036740660667419434
1761396914456292600,8.610292724609375,-0.0003757476806640625,0.05585050582885742,0.0814928412437439
1761396914475669500,8.62966943359375,-0.014272689819335938,0.07928800582885742,0.11761558055877686
1761396914495046400,8.64904638671875,-0.02095508575439453,0.0632023811340332,0.04930257797241211
1761396914514423300,8.66842333984375,0.0035486221313476562,0.09368515014648438,0.1383841633796692
1761396914533800200,8.68780029296875,0.022294998168945312,0.10703802108764648,0.2478541135787964
1761396914553177000,8.707177001953125,-0.044564247131347656,0.10755109786987305,0.18690276145935059
1761396914572554000,8.726553955078124,-0.052733421325683594,0.050301551818847656,0.04471397399902344
1761396914591931000,8.745930908203125,0.050864219665527344,0.02180337905883789,-0.037578701972961426
1761396914611307800,8.765307861328125,0.06999492645263672,0.04791069030761719,0.1256948709487915
1761396914630684700,8.7846845703125,-0.054144859313964844,0.07943439483642578,0.16597414016723633
1761396914650061600,8.8040615234375,-0.11339187622070312,0.06679773330688477,0.12733161449432373
1761396914669438500,8.8234384765625,-0.022301673889160156,0.09107017517089844,0.2135523557662964
1761396914688815400,8.8428154296875,0.07651996612548828,0.05161762237548828,0.22915196418762207
1761396914708192300,8.862192138671874,0.06176567077636719,0.039557456970214844,0.11607354879379272
1761396914727569200,8.881569091796875,-0.03191566467285156,0.06261920928955078,0.06680530309677124
1761396914746946000,8.900946044921875,-0.08888721466064453,0.07629251480102539,0.11432605981826782
1761396914766323000,8.920322998046874,-0.06577205657958984,0.08246803283691406,0.14088207483291626
1761396914785699800,8.939699951171875,-0.007076263427734375,0.10023164749145508,0.16989660263061523
1761396914805076700,8.95907666015625,0.05476665496826172,0.09221649169921875,0.16059362888336182
1761396914824453600,8.97845361328125,0.05543994903564453,0.059748172760009766,0.07975846529006958
1761396914843830500,8.99783056640625,0.04663372039794922,0.045961856842041016,0.03224945068359375
1761396914863207400,9.01720751953125,-0.02211475372314453,0.07284832000732422,0.13464045524597168
1761396914882584600,9.03658447265625,0.009957313537597656,0.0835733413696289,0.10640358924865723
1761396914901961200,9.055961181640624,-0.02764606475830078,0.047611236572265625,0.08865982294082642
1761396914921338400,9.07533837890625,-0.07198810577392578,0.042563438415527344,0.1287442445755005
1761396914940715000,9.094715087890625,-0.021691322326660156,0.057675838470458984,0.127022385597229
1761396914960092200,9.114092041015626,-0.11008739471435547,0.08540534973144531,0.21845942735671997
1761396914979469000,9.133468994140625,-0.0906229019165039,0.0647573471069336,0.25191813707351685
1761396914998846000,9.152845947265625,0.034793853759765625,0.0699925422668457,0.2518094778060913
1761396915018222800,9.172222900390626,0.06598758697509766,0.09078502655029297,0.47084885835647583
1761396915037599700,9.191599853515624,0.20464134216308594,0.09302759170532227,0.37768685817718506
1761396915056976600,9.2109765625,0.09510135650634766,0.03467988967895508,-0.055960655212402344
1761396915076353500,9.230353515625,-0.08734703063964844,0.01501607894897461,-0.25759923458099365
1761396915095730400,9.24973046875,-0.0014190673828125,-0.016990184783935547,-0.0901651382446289
1761396915115107300,9.269107421875,-0.0896902084350586,0.039156436920166016,0.004915714263916016
1761396915134484200,9.288484130859375,-0.18268680572509766,0.10300302505493164,0.014428138732910156
1761396915153861000,9.307861083984376,0.026805877685546875,0.09630775451660156,0.07873678207397461
1761396915173238000,9.327238037109375,0.021775245666503906,0.08721065521240234,0.07380610704421997
1761396915192615000,9.346614990234375,-0.07497119903564453,0.09545135498046875,0.10814356803894043
1761396915211991800,9.36599169921875,0.0036172866821289062,0.08461666107177734,0.13698863983154297
1761396915231368700,9.38536865234375,-0.02960968017578125,0.057210445404052734,0.1707524061203003
1761396915250745600,9.40474560546875,-0.033324241638183594,0.03890371322631836,0.06594574451446533
1761396915270122500,9.42412255859375,0.010573387145996094,0.008927345275878906,0.07594388723373413
1761396915289499400,9.44349951171875,-0.006058692932128906,0.06920289993286133,0.2153591513633728
1761396915308876300,9.462876220703125,0.013753890991210938,0.07429933547973633,0.2529856562614441
1761396915328253200,9.482253173828125,-0.0014257431030273438,0.06327342987060547,0.1429978609085083
1761396915347630000,9.501630126953126,-0.09276771545410156,0.07811450958251953,0.18040037155151367
1761396915367007000,9.521007080078125,-0.020856857299804688,0.06282520294189453,0.11377108097076416
1761396915386384000,9.5403837890625,0.05101490020751953,0.0459284782409668,0.035002708435058594
1761396915405760800,9.5597607421875,0.0694427490234375,0.06297683715820312,0.051927387714385986
1761396915425137700,9.5791376953125,0.06068134307861328,0.06450700759887695,0.14356273412704468
1761396915444514600,9.5985146484375,0.02803325653076172,0.041548728942871094,0.0641106367111206
1761396915463891500,9.617891357421875,-0.05175590515136719,0.06338691711425781,0.11541092395782471
1761396915483268400,9.637268310546874,-0.10826683044433594,0.10004663467407227,0.2301134467124939
1761396915502645200,9.656645263671875,-0.13504695892333984,0.12691450119018555,0.22995412349700928
1761396915522022100,9.676022216796875,-0.09321212768554688,0.05959939956665039,0.11639237403869629
1761396915541399000,9.69539892578125,0.0345001220703125,-0.020740985870361328,-0.08206403255462646
1761396915560776000,9.71477587890625,0.2541313171386719,-0.009899139404296875,-0.02747035026550293
1761396915580152800,9.73415283203125,0.2184762954711914,0.06950044631958008,0.13435566425323486
1761396915599529700,9.75352978515625,-0.05304908752441406,0.12578248977661133,0.1915925145149231
1761396915618906600,9.77290673828125,-0.19736194610595703,0.06225442886352539,0.11188691854476929
1761396915638283500,9.792283447265625,-0.17494773864746094,0.03654003143310547,0.0665442943572998
1761396915657660400,9.811660400390625,-0.050665855407714844,0.07972097396850586,0.2546459436416626
1761396915677037300,9.831037353515624,0.11896896362304688,0.0783529281616211,0.16793763637542725
1761396915696414200,9.850414306640625,0.08322620391845703,0.04590177536010742,-0.0004482269287109375
1761396915715791000,9.869791015625,0.007822990417480469,0.0458521842956543,0.08836960792541504
1761396915735168000,9.88916796875,-0.016882896423339844,0.049417972564697266,0.1746915578842163
1761396915754545200,9.908545166015625,-0.15173912048339844,0.06665897369384766,0.08353590965270996
1761396915773921800,9.927921875,-0.120269775390625,0.06608057022094727,0.07080554962158203
1761396915793299000,9.947298828125,0.041454315185546875,0.0760040283203125,0.23831021785736084
1761396915812675600,9.966675537109374,0.13467979431152344,0.0711069107055664,0.18964087963104248
1761396915832052700,9.986052734375,0.11152267456054688,0.02864217758178711,0.03831624984741211
1761396915851429600,10.0054296875,0.03110218048095703,0.03585481643676758,0.07393532991409302
1761396915870806500,10.024806640625,-0.06716537475585938,0.08704948425292969,0.17951029539108276
1761396915890183400,10.044183349609375,-0.1401538848876953,0.03892087936401367,0.1260778307914734
1761396915909560300,10.063560302734375,-0.0176849365234375,0.011995792388916016,-0.05829453468322754
1761396915928937200,10.082937255859376,-0.0018596649169921875,0.06839179992675781,0.04975372552871704
1761396915948314000,10.102314208984374,0.034285545349121094,0.11435127258300781,0.20010507106781006
1761396915967691000,10.12169091796875,0.043158531188964844,0.0947427749633789,0.19400161504745483
1761396915987068000,10.14106787109375,-0.059760093688964844,0.09813785552978516,0.19912832975387573
1761396916006444800,10.16044482421875,-0.09260845184326172,0.06242847442626953,0.11819273233413696
1761396916025821700,10.17982177734375,0.08990001678466797,-0.006394386291503906,-0.09732770919799805
1761396916045198600,10.199198486328125,0.26752662658691406,0.0049571990966796875,-0.029309868812561035
1761396916064575500,10.218575439453126,0.032631874084472656,0.07790946960449219,0.206412672996521
1761396916083952400,10.237952392578125,-0.13274574279785156,0.052791595458984375,0.05638080835342407
1761396916103329300,10.257329345703125,-0.13551998138427734,0.03454113006591797,0.050217509269714355
1761396916122706200,10.2767060546875,-0.0953226089477539,0.04585123062133789,0.2075585126876831
1761396916142083000,10.2960830078125,-0.17229843139648438,0.0990915298461914,0.2906002998352051
1761396916161460000,10.3154599609375,-0.08126640319824219,0.023515701293945312,0.07525956630706787
1761396916180836900,10.3348369140625,0.18229293823242188,-0.03792715072631836,0.11777245998382568
1761396916200213800,10.3542138671875,0.33603572845458984,-0.1296710968017578,0.36355507373809814
1761396916219590700,10.373590576171875,0.27302074432373047,-0.4153914451599121,0.5419315695762634
1761396916238967600,10.392967529296875,0.7401819229125977,-0.11211299896240234,0.43757712841033936
1761396916258344400,10.412344482421876,0.370361328125,0.4330458641052246,0.1371936798095703
1761396916277708000,10.4317080078125,-0.504368782043457,0.6629762649536133,-1.2609139680862427
1761396916316475100,10.47047509765625,-0.5845060348510742,-0.001659393310546875,-0.2258601188659668
1761396916335838700,10.489838623046875,-0.3387460708618164,-0.05181741714477539,0.5482044816017151
1761396916355229200,10.509229248046875,0.018744468688964844,0.030020713806152344,0.3581700325012207
1761396916374606000,10.528606201171876,0.015371322631835938,0.39501142501831055,0.36797159910202026
1761396916393983000,10.54798291015625,-0.2585582733154297,0.10564804077148438,0.6283221244812012
1761396916413359900,10.56735986328125,-0.3300304412841797,0.13535404205322266,0.3253949284553528
1761396916432736800,10.58673681640625,-0.09019660949707031,-0.005988121032714844,0.03934609889984131
1761396916452113700,10.60611376953125,0.35827159881591797,-0.0546879768371582,-0.1857450008392334
1761396916471490600,10.625490478515625,0.5560703277587891,-0.04466867446899414,0.07180297374725342
1761396916490867500,10.644867431640625,0.5636434555053711,0.4053530693054199,-0.5942223072052002
1761396916510230800,10.664230712890625,0.35774898529052734,-0.12831783294677734,-0.056069374084472656
1761396916529621200,10.683621337890624,0.5569429397583008,-0.9838950634002686,1.0589510202407837
1761396916548998100,10.702998046875,-0.39513683319091797,0.675868034362793,-0.4295084476470947
1761396916568375000,10.722375,-0.2860107421875,0.1265120506286621,-0.0071904659271240234
1761396916587752000,10.741751953125,-0.22638320922851562,0.2726898193359375,-0.023999333381652832
1761396916607128800,10.76112890625,-0.7004117965698242,-0.07155752182006836,1.0889801979064941
1761396916626505700,10.780505615234375,-0.29905223846435547,0.4122147560119629,0.4060174226760864
