time,seconds_elapsed,z,y,x
1761396905968097800,0.122097900390625,0.03817795217037201,-0.23441264033317566,0.023059483617544174
1761396905987474700,0.141474609375,0.06887302547693253,-0.18019993603229523,0.0719272643327713
1761396906006851600,0.1608515625,0.0841442123055458,-0.24647687375545502,0.11804623156785965
1761396906026228500,0.180228515625,0.07971556484699249,-0.328330397605896,0.09941539168357849
1761396906045605400,0.19960546875,0.07406523078680038,-0.2742704153060913,0.1623326539993286
1761396906064982300,0.218982177734375,0.0713164210319519,-0.26907822489738464,0.22219568490982056
1761396906084359200,0.238359130859375,0.06169557198882103,-0.24785128235816956,0.19409671425819397
1761396906103736000,0.257736083984375,0.08490777015686035,-0.12736165523529053,0.19684553146362305
1761396906123113000,0.277113037109375,0.09544488787651062,-0.056961506605148315,0.21914145350456238
1761396906142489600,0.296489501953125,0.07696675509214401,-0.09009996801614761,0.23563432693481445
1761396906161866500,0.315866455078125,0.06887302547693253,-0.10995250940322876,0.19470755755901337
1761396906181243400,0.335243408203125,0.051463883370161057,-0.1459924876689911,0.03924693539738655
1761396906200620300,0.354620361328125,0.023212196305394173,-0.1560714691877365,-0.072843536734581
1761396906219997200,0.3739970703125,0.04046862944960594,-0.10781454294919968,-0.04367557913064957
1761396906239374000,0.3933740234375,0.046577103435993195,-0.05008947476744652,0.049173206090927124
1761396906258751000,0.4127509765625,0.06261184066534042,0.024128466844558716,0.12125317752361298
1761396906278127900,0.4321279296875,0.0844496339559555,0.0006108472589403391,0.19821994006633759
1761396906297504800,0.4515048828125,0.0662769302725792,-0.07498150318861008,0.24876753985881805
1761396906316881700,0.470881591796875,0.04932591691613197,-0.1650814712047577,0.20051060616970062
1761396906336258300,0.49025830078125,0.054518118500709534,-0.22341738641262054,0.07513421028852463
1761396906355635200,0.50963525390625,0.08674030750989914,-0.16553960740566254,0.009009997360408306
1761396906375012000,0.52901220703125,0.08338065445423126,-0.08887827396392822,0.049173206090927124
1761396906394389000,0.548388916015625,0.04734066128730774,-0.06200099736452103,0.06184828653931618
1761396906413766000,0.567765869140625,-0.005497625097632408,-0.029167955741286278,0.06459710001945496
1761396906433142800,0.587142822265625,-0.03649812191724777,-0.015271181240677834,-0.025808297097682953
1761396906452519700,0.606519775390625,-0.01695101149380207,0.02626643143594265,-0.1635543555021286
1761396906471896600,0.625896484375,-0.03130592033267021,0.05238015204668045,-0.208298921585083
1761396906491273500,0.6452734375,-0.07085828483104706,0.05008947476744652,-0.18646112084388733
1761396906510650000,0.664650146484375,-0.09009996801614761,0.0659715011715889,-0.12201674282550812
1761396906530027000,0.684027099609375,-0.03787253051996231,0.09651386737823486,-0.037414394319057465
1761396906549404000,0.70340380859375,0.0018325417768210173,0.1241547018289566,-0.007330167107284069
1761396906568780800,0.72278076171875,0.01511846948415041,0.060932014137506485,-0.031916771084070206
1761396906588157700,0.74215771484375,0.007482878863811493,0.030542362481355667,-0.047951508313417435
1761396906607534600,0.76153466796875,-0.024281177669763565,0.038483377546072006,-0.042759306728839874
1761396906626911500,0.780911376953125,-0.02473931387066841,0.009620844386518002,-0.031000498682260513
1761396906646288400,0.800288330078125,0.020005248486995697,-0.02076880633831024,-0.011606098152697086
1761396906665665300,0.819665283203125,0.04581354558467865,-0.014507622458040714,0.03436015918850899
1761396906685042200,0.839042236328125,0.04871506989002228,-0.01710372418165207,0.05604523420333862
1761396906704418800,0.858418701171875,0.02886253222823143,-0.014813045971095562,0.04214845970273018
1761396906723795700,0.877795654296875,0.006261184345930815,-0.013591351918876171,0.039857782423496246
1761396906743172600,0.897172607421875,-0.0035123717971146107,0.0009162708884105086,0.047646086663007736
1761396906762549500,0.916549560546875,-0.013896775431931019,0.007177455350756645,0.06795676052570343
1761396906781926400,0.935926513671875,-0.010231691412627697,0.013591351918876171,0.06337540596723557
1761396906801303300,0.95530322265625,0.012675080448389053,0.07070557028055191,0.04184303805232048
1761396906820680200,0.97468017578125,0.023823043331503868,0.14706148207187653,0.013896775431931019
1761396906840057000,0.99405712890625,0.03436015918850899,0.16645587980747223,-0.01695101149380207
1761396906859434000,1.01343408203125,0.021990500390529633,0.15744587779045105,-0.06169557198882103
1761396906878811000,1.032810791015625,0.0018325417768210173,0.1250709742307663,-0.06688777357339859
1761396906898187500,1.0521875,-0.051922015845775604,-0.00916270911693573,-0.0656660795211792
1761396906917564400,1.071564453125,-0.03588727489113808,-0.0390942245721817,0.027182703837752342
1761396906936941300,1.09094140625,-0.001374406274408102,0.020005248486995697,0.13209572434425354
1761396906956318200,1.110318115234375,0.014813045971095562,-0.009773556143045425,0.1882936656475067
1761396906975695000,1.129695068359375,0.016340164467692375,-0.01725643500685692,0.17684027552604675
1761396906995072000,1.149072021484375,0.032222192734479904,-0.020005248486995697,0.07238540053367615
1761396907014449000,1.168448974609375,0.0397050715982914,-0.011300674639642239,-0.0325276181101799
1761396907033825800,1.18782568359375,-0.0012216945178806782,-0.0009162708884105086,-0.09666658192873001
1761396907053202700,1.20720263671875,-0.03512371703982353,-0.023364907130599022,-0.10384403169155121
1761396907072579600,1.22657958984375,-0.0261137206107378,-0.0036650835536420345,-0.01435491070151329
1761396907091956200,1.245956298828125,-0.007177455350756645,0.05390727147459984,0.07330167293548584
1761396907111333000,1.2653330078125,0.0030542362947016954,0.004123218823224306,0.10995250940322876
1761396907130710000,1.2847099609375,-0.020157959312200546,-0.07986827939748764,0.09865183383226395
1761396907150087000,1.3040869140625,-0.014660334214568138,-0.0978882759809494,0.07803573459386826
1761396907169463800,1.3234638671875,0.017714571207761765,-0.14049486815929413,0.020310672000050545
1761396907188840700,1.3428408203125,0.05665608495473862,-0.12675081193447113,-0.04963133856654167
1761396907208217600,1.362217529296875,0.053143709897994995,-0.028557108715176582,-0.0988045409321785
1761396907227594500,1.381594482421875,0.004123218823224306,0.01710372418165207,-0.16111096739768982
1761396907246971400,1.400971435546875,-0.04062134400010109,0.09773556143045425,-0.17332790791988373
1761396907266348000,1.42034814453125,-0.0065666078589856625,0.24372805655002594,-0.09452861547470093
1761396907285725000,1.439724853515625,0.008857285603880882,0.2967190444469452,-0.10185877978801727
1761396907305101800,1.459101806640625,-0.05375456064939499,0.16935740411281586,-0.12308572232723236
1761396907324478700,1.478478759765625,-0.10918894410133362,-0.07085828483104706,-0.04230117425322533
1761396907343855600,1.497855712890625,-0.08429691940546036,-0.12843063473701477,0.07757759839296341
1761396907363232500,1.517232421875,0.032069481909275055,-0.11117420345544815,0.09498675167560577
1761396907382609400,1.536609375,0.10934165865182877,-0.11774080991744995,0.11056335270404816
1761396907401986300,1.555986328125,0.08918370306491852,-0.09681928902864456,0.1638597846031189
1761396907421363200,1.57536328125,0.046729814261198044,-0.08674030750989914,0.17241163551807404
1761396907440740000,1.594739990234375,0.024281177669763565,-0.05894676223397255,0.1435490995645523
1761396907460117000,1.614116943359375,-0.023059483617544174,-0.03817795217037201,0.08338065445423126
1761396907479494000,1.633493896484375,-0.041384901851415634,-0.058183200657367706,0.06978929787874222
1761396907498870500,1.65287060546875,0.00030542362947016954,-0.039857782423496246,0.0065666078589856625
1761396907518247400,1.672247314453125,-0.0016798300202935934,0.016645587980747223,-0.06429167091846466
1761396907537624300,1.691624267578125,-0.0650552362203598,0.02473931387066841,-0.0784938707947731
1761396907557001200,1.711001220703125,-0.0781884491443634,-0.023212196305394173,-0.047798797488212585
1761396907576378000,1.730378173828125,-0.03680354729294777,0.015271181240677834,0.013744063675403595
1761396907595755000,1.749755126953125,-0.02076880633831024,0.08002099394798279,0.025808297097682953
1761396907615132000,1.7691318359375,-0.028251685202121735,0.033291175961494446,0.01252236869186163
1761396907634508800,1.7885087890625,-0.04963133856654167,-0.08108997344970703,-0.005955760832875967
1761396907653885700,1.8078857421875,-0.0584886260330677,-0.144465371966362,-0.02076880633831024
1761396907673262600,1.8272626953125,-0.03771981969475746,-0.11178504675626755,-0.02870982140302658
1761396907692639200,1.84663916015625,-0.010842538438737392,-0.016187451779842377,-0.028557108715176582
1761396907712016100,1.86601611328125,0.008551862090826035,0.02626643143594265,-0.02076880633831024
1761396907731393000,1.88539306640625,0.030695075169205666,0.031153209507465363,0.010689826682209969
1761396907750770000,1.90477001953125,0.04428642615675926,0.01511846948415041,0.04153761267662048
1761396907770146800,1.924146728515625,0.06291726976633072,-0.005803049076348543,0.021226942539215088
1761396907789523700,1.943523681640625,0.0853659063577652,-0.03451287001371384,-0.013744063675403595
1761396907808900600,1.962900634765625,0.09284878522157669,-0.08704573661088943,-0.07696675509214401
1761396907828277500,1.982277587890625,0.09239064902067184,-0.07803573459386826,-0.11025793105363846
1761396907847654400,2.001654296875,0.10964708030223846,0.009620844386518002,-0.07406523078680038
1761396907867031300,2.02103125,0.08674030750989914,0.06917845457792282,-0.04688252881169319
1761396907886408200,2.040408203125,0.02993151545524597,0.09330692142248154,-0.07925742864608765
1761396907905785000,2.05978515625,-0.005497625097632408,0.12781979143619537,-0.08674030750989914
1761396907925161700,2.07916162109375,-0.0036650835536420345,0.13530266284942627,-0.08353336155414581
1761396907944538600,2.09853857421875,0.007941014133393764,0.12781979143619537,-0.0844496339559555
1761396907963915500,2.11791552734375,0.014507622458040714,0.1507265567779541,-0.08933641016483307
1761396907983292400,2.13729248046875,0.0024433890357613564,0.16553960740566254,-0.10323318839073181
1761396908002669300,2.15666943359375,-0.03817795217037201,0.13499724864959717,-0.09651386737823486
1761396908022046200,2.176046142578125,-0.0916270911693573,0.12888877093791962,-0.08276980370283127
1761396908041423000,2.195423095703125,-0.12705622613430023,0.20066332817077637,-0.11178504675626755
1761396908060800000,2.214800048828125,-0.11667182296514511,0.34543412923812866,-0.15714046359062195
1761396908080177000,2.234177001953125,-0.09239064902067184,0.3900259733200073,-0.19776180386543274
1761396908099553800,2.2535537109375,-0.08628217875957489,0.25747212767601013,-0.17470231652259827
1761396908118930700,2.2729306640625,-0.10582929104566574,0.08307522535324097,-0.09025268256664276
1761396908138307600,2.2923076171875,-0.06673506647348404,-0.034665580838918686,-0.015423892997205257
1761396908157684200,2.311684326171875,0.04993676394224167,-0.07666133344173431,0.018019994720816612
1761396908177061000,2.33106103515625,0.1525591015815735,-0.0856713280081749,0.03512371703982353
1761396908196438000,2.35043798828125,0.1844758689403534,-0.08307522535324097,0.07421794533729553
1761396908215815000,2.36981494140625,0.15271180868148804,-0.11010521650314331,0.08750387281179428
1761396908235191800,2.38919189453125,0.08322793990373611,-0.10384403169155121,0.07101099193096161
1761396908254568700,2.408568603515625,0.042453885078430176,-0.1119377613067627,0.08460234850645065
1761396908273945600,2.427945556640625,0.029778804630041122,-0.040010496973991394,0.06245913356542587
1761396908293322500,2.447322509765625,0.025350160896778107,0.032222192734479904,-0.009773556143045425
1761396908312699400,2.466699462890625,0.016492875292897224,0.031153209507465363,-0.06795676052570343
1761396908332076300,2.486076171875,-0.0032069480512291193,0.02092151902616024,-0.06276455521583557
1761396908351453200,2.505453125,-0.037414394319057465,-0.0029015245381742716,-0.010078979656100273
1761396908370830000,2.524830078125,-0.026724567636847496,0.033596597611904144,0.004734066314995289
1761396908390207000,2.54420703125,0.015576604753732681,0.05787777900695801,0.011911521665751934
1761396908409583600,2.56358349609375,0.043981000781059265,0.02473931387066841,0.0018325417768210173
1761396908428960500,2.58296044921875,0.03497100621461868,0.019241688773036003,-0.036192700266838074
1761396908448337400,2.60233740234375,0.02748812735080719,-0.009315420873463154,-0.04947862774133682
1761396908467714300,2.62171435546875,0.023364907130599022,-0.020463382825255394,-0.06245913356542587
1761396908487091200,2.64109130859375,0.004734066314995289,0.003970507066696882,-0.06673506647348404
1761396908506468000,2.660468017578125,-0.007941014133393764,0.02993151545524597,-0.008551862090826035
1761396908525845000,2.679844970703125,-0.005803049076348543,0.03680354729294777,0.045202698558568954
1761396908545222000,2.699221923828125,-0.014660334214568138,0.02504473738372326,0.045202698558568954
1761396908564598800,2.718598876953125,-0.026571854948997498,0.012064233422279358,0.01832541823387146
1761396908583975700,2.7379755859375,-0.0015271181473508477,0.02641914412379265,-0.005955760832875967
1761396908603352600,2.7573525390625,0.007330167107284069,0.032069481909275055,-0.020463382825255394
1761396908622729500,2.7767294921875,-0.016492875292897224,0.014507622458040714,-0.031916771084070206
1761396908642106400,2.7961064453125,-0.02901524491608143,0.0038177953101694584,-0.03695625811815262
1761396908661483300,2.815483154296875,-0.014507622458040714,0.00259610079228878,-0.014965757727622986
1761396908680860000,2.83485986328125,0.010537114925682545,0.04428642615675926,0.011911521665751934
1761396908700236800,2.85423681640625,0.01252236869186163,0.04413371533155441,0.012827792204916477
1761396908719613700,2.87361376953125,-0.015423892997205257,0.013133215717971325,0.016492875292897224
1761396908738990600,2.892990478515625,-0.030847785994410515,-0.018019994720816612,0.0050394898280501366
1761396908758367500,2.912367431640625,-0.002748812548816204,-0.0325276181101799,0.001985253533348441
1761396908777744400,2.931744384765625,0.027946261689066887,0.01511846948415041,0.007635590620338917
1761396908797121300,2.951121337890625,0.033596597611904144,0.06276455521583557,0.006413896102458239
1761396908816498200,2.970498291015625,0.016340164467692375,0.042759306728839874,-0.02351761981844902
1761396908835875000,2.989875,-0.024128466844558716,0.010231691412627697,-0.040010496973991394
1761396908855252000,3.009251953125,-0.047646086663007736,-0.013133215717971325,-0.04749337583780289
1761396908874628900,3.02862890625,-0.005650337319821119,-0.017409147694706917,-0.014202198944985867
1761396908894005800,3.048005859375,0.04825693368911743,0.00519220158457756,0.02733541466295719
1761396908913382700,3.067382568359375,0.04337015375494957,0.004275931045413017,0.045202698558568954
1761396908932759300,3.08675927734375,0.013285927474498749,-0.021226942539215088,0.03497100621461868
1761396908952136200,3.10613623046875,0.016492875292897224,-0.02092151902616024,0.026724567636847496
1761396908971513000,3.12551318359375,0.012980503961443901,0.0012216945178806782,0.01435491070151329
1761396908990890000,3.144889892578125,0.003970507066696882,0.03130592033267021,-0.016187451779842377
1761396909010267000,3.164266845703125,-0.0029015245381742716,0.0198525357991457,-0.04581354558467865
1761396909029643800,3.183643798828125,-0.012980503961443901,0.0022906772792339325,-0.0584886260330677
1761396909049020700,3.203020751953125,-0.023212196305394173,0.011606098152697086,-0.02244863659143448
1761396909068397600,3.2223974609375,-0.013896775431931019,0.028251685202121735,0.011911521665751934
1761396909087774500,3.2417744140625,-0.005344913341104984,0.04352286830544472,0.021837789565324783
1761396909107151400,3.2611513671875,-0.02489202655851841,0.013438640162348747,-0.008857285603880882
1761396909126528300,3.2805283203125,-0.03023693896830082,0.006719320081174374,-0.038788799196481705
1761396909145905200,3.2999052734375,0.00030542362947016954,0.016798298805952072,-0.024586603045463562
1761396909165282000,3.319281982421875,0.016645587980747223,0.0004581354442052543,-0.010078979656100273
1761396909184659000,3.338658935546875,0.005650337319821119,-0.009315420873463154,-0.012827792204916477
1761396909204035800,3.358035888671875,0.008551862090826035,0.0007635590736754239,-0.022906772792339325
1761396909223412500,3.37741259765625,0.016492875292897224,0.014202198944985867,-0.012216945178806782
1761396909242789600,3.39678955078125,0.0038177953101694584,0.012369656935334206,0.008246437646448612
1761396909262166300,3.416166259765625,-0.0050394898280501366,-0.0035123717971146107,0.0022906772792339325
1761396909281543200,3.435543212890625,-0.0065666078589856625,-0.014660334214568138,-0.015576604753732681
1761396909300920000,3.454920166015625,0.006413896102458239,-0.0007635590736754239,-0.019394399598240852
1761396909320297000,3.474296875,0.011147962883114815,0.006719320081174374,-0.0029015245381742716
1761396909339673900,3.493673828125,0.007177455350756645,-0.01817270554602146,-0.01435491070151329
1761396909359050800,3.51305078125,0.0029015245381742716,-0.026571854948997498,-0.02489202655851841
1761396909378427600,3.532427734375,-0.0009162708884105086,-0.00030542362947016954,-0.019088976085186005
1761396909397804500,3.551804443359375,-0.0029015245381742716,0.022754060104489326,0.0010689827613532543
1761396909417181400,3.571181396484375,-0.007941014133393764,0.03176405653357506,-0.008551862090826035
1761396909436558300,3.590558349609375,-0.012827792204916477,0.0397050715982914,-0.013744063675403595
1761396909455935200,3.609935302734375,-0.01038440316915512,0.04062134400010109,-0.007788302376866341
1761396909475312000,3.62931201171875,-0.016034740954637527,0.03008422814309597,-0.03924693539738655
1761396909494689000,3.64868896484375,-0.01252236869186163,0.003970507066696882,-0.04703523963689804
1761396909514066000,3.66806591796875,0.007635590620338917,-0.0016798300202935934,-0.027946261689066887
1761396909533442600,3.687442626953125,0.020616095513105392,-0.01832541823387146,-0.004275931045413017
1761396909552819500,3.7068193359375,0.021685076877474785,-0.027182703837752342,0.028251685202121735
1761396909572196400,3.7261962890625,0.010231691412627697,-0.04230117425322533,0.024433890357613564
1761396909591573200,3.7455732421875,0.008093725889921188,-0.029626091942191124,-0.015271181240677834
1761396909610950100,3.7649501953125,0.006413896102458239,0.00992626789957285,-0.03008422814309597
1761396909630327000,3.7843271484375,0.007330167107284069,0.010537114925682545,-0.022601349279284477
1761396909649704000,3.803703857421875,-0.0018325417768210173,0.004581354558467865,-0.016492875292897224
1761396909669080800,3.823080810546875,-0.009620844386518002,0.013591351918876171,-0.0065666078589856625
1761396909688457700,3.842457763671875,-0.0010689827613532543,0.001374406274408102,0.009773556143045425
1761396909707834600,3.861834716796875,0.016798298805952072,-0.0030542362947016954,0.018630841746926308
1761396909727211500,3.88121142578125,0.02092151902616024,-0.017409147694706917,0.0050394898280501366
1761396909746588400,3.90058837890625,-0.0009162708884105086,0.00015271181473508477,-0.0261137206107378
1761396909765965300,3.91996533203125,-0.004886778071522713,0.00916270911693573,-0.04214845970273018
1761396909785342200,3.93934228515625,-0.0009162708884105086,0.002748812548816204,-0.02764083817601204
1761396909804719000,3.958718994140625,0.005344913341104984,-0.003359660040587187,-0.007024743594229221
1761396909824096000,3.978095947265625,0,-0.0035123717971146107,0.025502873584628105
1761396909843473000,3.997472900390625,0.021532366052269936,-0.04184303805232048,0.04184303805232048
1761396909862849800,4.016849853515625,0.038788799196481705,-0.04031591862440109,0.016187451779842377
1761396909882226400,4.036226318359375,0.030389651656150818,0.004275931045413017,0.006719320081174374
1761396909901603300,4.055603271484375,-0.006108472589403391,-0.016187451779842377,0.012827792204916477
1761396909920982000,4.07498193359375,-0.018936265259981155,-0.03512371703982353,-0.003359660040587187
1761396909940357000,4.094357177734375,-0.0035123717971146107,-0.01435491070151329,-0.014965757727622986
1761396909959734000,4.113734130859375,0.008704573847353458,-0.005650337319821119,-0.006413896102458239
1761396909979111000,4.13311083984375,0.0018325417768210173,-0.021685076877474785,0.012216945178806782
1761396909998584300,4.152584228515625,-0.008399149402976036,-0.06337540596723557,0.02748812735080719
1761396910037241600,4.19124169921875,0.014965757727622986,-0.010689826682209969,0.041232191026210785
1761396910056618500,4.210618408203125,0.004734066314995289,-0.0261137206107378,0.00015271181473508477
1761396910075995400,4.229995361328125,-0.014965757727622986,-0.06261184066534042,-0.025502873584628105
1761396910095372300,4.249372314453125,-0.01511846948415041,-0.06276455521583557,0.00992626789957285
1761396910114749200,4.268749267578125,0.0038177953101694584,-0.02748812735080719,0.034665580838918686
1761396910134126000,4.2881259765625,0.019241688773036003,0.02886253222823143,0.03573456406593323
1761396910153503000,4.3075029296875,0.007024743594229221,0.010537114925682545,0.041232191026210785
1761396910172880000,4.3268798828125,-0.020310672000050545,-0.030695075169205666,0.025961007922887802
1761396910192256800,4.3462568359375,-0.023975754156708717,-0.018936265259981155,0.032222192734479904
1761396910211633700,4.365633544921875,-0.0032069480512291193,-0.01695101149380207,0.04703523963689804
1761396910231010600,4.385010498046875,0.0198525357991457,-0.016034740954637527,0.03161134570837021
1761396910250387200,4.40438720703125,0.006413896102458239,-0.02733541466295719,0.011147962883114815
1761396910269764000,4.42376416015625,-0.012980503961443901,-0.0590994730591774,0.017867282032966614
1761396910289141000,4.44314111328125,-0.001374406274408102,-0.06749862432479858,0.029626091942191124
1761396910308518000,4.462517822265625,0.002748812548816204,-0.04886778071522713,0.016034740954637527
1761396910327894800,4.481894775390625,0.003359660040587187,-0.013744063675403595,0.018019994720816612
1761396910347271700,4.501271728515625,0.0018325417768210173,0.008704573847353458,0.025808297097682953
1761396910366648600,4.520648681640625,-0.007788302376866341,-0.001985253533348441,0.005955760832875967
1761396910386025500,4.540025390625,-0.02244863659143448,-0.005650337319821119,-0.020310672000050545
1761396910405402400,4.55940234375,-0.021532366052269936,-0.020310672000050545,-0.01252236869186163
1761396910424779300,4.578779296875,-0.014660334214568138,-0.04153761267662048,-0.005497625097632408
1761396910444156200,4.59815625,-0.0030542362947016954,-0.04611896723508835,-0.008857285603880882
1761396910463533000,4.617532958984375,-0.00519220158457756,-0.03451287001371384,0.010842538438737392
1761396910482910000,4.636909912109375,-0.015423892997205257,-0.04734066128730774,0.016798298805952072
1761396910502286800,4.656286865234375,-0.01511846948415041,-0.01572931744158268,-0.007941014133393764
1761396910521663700,4.675663818359375,-0.008551862090826035,0.016034740954637527,-0.009468132629990578
1761396910541040600,4.69504052734375,-0.0038177953101694584,-0.0030542362947016954,-0.001985253533348441
1761396910560417500,4.71441748046875,-0.02870982140302658,0.0397050715982914,-0.08124268800020218
1761396910579794400,4.73379443359375,-0.0030542362947016954,0.07803573459386826,-0.09910997003316879
1761396910599171300,4.75317138671875,0.01954711228609085,-0.1298050433397293,0.07895200699567795
1761396910618548200,4.77254833984375,0.017561858519911766,-0.03573456406593323,0.10063708573579788
1761396910637924900,4.7919248046875,0.05131116881966591,0.14935214817523956,-0.012216945178806782
1761396910657302000,4.811302001953125,0.04489727318286896,0.14034216105937958,0.010537114925682545
1761396910676678700,4.8306787109375,-0.029320668429136276,0.08200624585151672,0.058183200657367706
1761396910696055600,4.8500556640625,-0.07101099193096161,0.053143709897994995,0.023364907130599022
1761396910715432400,4.869432373046875,-0.038788799196481705,0.04810422286391258,-0.0007635590736754239
1761396910734809300,4.888809326171875,-0.01175880990922451,0.012369656935334206,0.0007635590736754239
1761396910754186200,4.908186279296875,-0.004734066314995289,-0.012216945178806782,-0.0010689827613532543
1761396910773563100,4.927563232421875,-0.005955760832875967,0.013591351918876171,-0.0004581354442052543
1761396910792940000,4.94693994140625,-0.03573456406593323,-0.027793550863862038,0.0050394898280501366
1761396910812317000,4.96631689453125,-0.06276455521583557,-0.0653606578707695,0.009009997360408306
1761396910831693800,4.98569384765625,-0.034665580838918686,-0.03008422814309597,-0.017867282032966614
1761396910851070700,5.00507080078125,0.004886778071522713,-0.009009997360408306,-0.037567105144262314
1761396910870447600,5.024447509765625,0.013896775431931019,-0.047798797488212585,-0.031000498682260513
1761396910889824500,5.043824462890625,0.008704573847353458,-0.02367033064365387,0.004734066314995289
1761396910909201400,5.063201416015625,0.005955760832875967,-0.010231691412627697,0.05344913527369499
1761396910928578300,5.082578369140625,0.004581354558467865,-0.01038440316915512,0.03374931216239929
1761396910947955200,5.101955078125,0.002748812548816204,0.009773556143045425,-0.014965757727622986
1761396910967332000,5.12133203125,0.0024433890357613564,0.008857285603880882,-0.010995250195264816
1761396910986709000,5.140708984375,-0.0035123717971146107,0.00030542362947016954,-0.0016798300202935934
1761396911006086000,5.1600859375,-0.006108472589403391,0.02764083817601204,-0.016187451779842377
1761396911025462800,5.179462890625,0.0010689827613532543,0.024586603045463562,0.003970507066696882
1761396911044839700,5.198839599609375,0.0016798300202935934,0.01511846948415041,0.008246437646448612
1761396911064216600,5.218216552734375,0.0036650835536420345,0.008857285603880882,-0.014049487188458443
1761396911083593500,5.237593505859375,0.014049487188458443,0.009315420873463154,-0.012827792204916477
1761396911102970000,5.25697021484375,0.025197450071573257,0.021837789565324783,0.004886778071522713
1761396911122347000,5.276346923828125,0.023059483617544174,0.02993151545524597,0.006108472589403391
1761396911141724200,5.29572412109375,0.016340164467692375,0.02229592576622963,0.0024433890357613564
1761396911161100800,5.315100830078125,0.01710372418165207,0.029626091942191124,-0.010842538438737392
1761396911180477700,5.334477783203125,0.004886778071522713,0.04214845970273018,0.006108472589403391
1761396911199854600,5.3538544921875,-0.021532366052269936,0.04367557913064957,0.02214321307837963
1761396911219231500,5.3732314453125,-0.024586603045463562,0.036039989441633224,0.005650337319821119
1761396911238608400,5.3926083984375,-0.021685076877474785,0.050547610968351364,-0.014049487188458443
1761396911257985300,5.4119853515625,-0.020463382825255394,0.033596597611904144,-0.017409147694706917
1761396911277362200,5.431362060546875,-0.01588202826678753,0.013591351918876171,-0.01252236869186163
1761396911296739000,5.450739013671875,0.001374406274408102,0.023364907130599022,0.014049487188458443
1761396911316116000,5.470115966796875,0.01954711228609085,0.01695101149380207,0.04428642615675926
1761396911335492900,5.489492919921875,0.004886778071522713,0.009009997360408306,0.03130592033267021
1761396911354869800,5.508869873046875,-0.017714571207761765,-0.021226942539215088,0.025655584409832954
1761396911374246700,5.52824658203125,-0.004734066314995289,-0.05115845799446106,0.02626643143594265
1761396911393623600,5.54762353515625,0.030695075169205666,-0.016798298805952072,0.0065666078589856625
1761396911413000400,5.56700048828125,0.042606595903635025,0.014049487188458443,0.014049487188458443
1761396911432377300,5.58637744140625,0.032069481909275055,0.0032069480512291193,0.037261683493852615
1761396911451754200,5.605754150390625,-0.009315420873463154,0.008551862090826035,0.049173206090927124
1761396911471131100,5.625131103515625,-0.04077405482530594,0.014813045971095562,0.04184303805232048
1761396911490508000,5.644508056640625,-0.020157959312200546,0.0659715011715889,-0.0032069480512291193
1761396911509885000,5.663885009765625,-0.017561858519911766,0.11835165321826935,-0.05803048983216286
1761396911529261800,5.68326171875,-0.06749862432479858,0.1316375881433487,-0.08307522535324097
1761396911548638700,5.702638671875,-0.10705098509788513,0.13316470384597778,-0.06612421572208405
1761396911568015600,5.722015625,-0.10124793648719788,0.11468657106161118,-0.055739812552928925
1761396911587392500,5.741392578125,-0.07085828483104706,0.11865708231925964,-0.037108972668647766
1761396911606769400,5.760769287109375,-0.028557108715176582,0.07925742864608765,-0.023823043331503868
1761396911626146300,5.780146240234375,0.038483377546072006,0.03649812191724777,0.011606098152697086
1761396911645523200,5.799523193359375,0.0659715011715889,-0.006108472589403391,0.027946261689066887
1761396911664900000,5.818900146484375,0.04367557913064957,-0.04337015375494957,0.018019994720816612
1761396911684276700,5.83827685546875,0.031153209507465363,-0.025197450071573257,0.006261184345930815
1761396911703654000,5.85765380859375,0.03497100621461868,-0.01511846948415041,-0.0022906772792339325
1761396911723030500,5.877030517578125,0.018783552572131157,-0.0016798300202935934,0.013438640162348747
1761396911742407400,5.896407470703125,0.009315420873463154,0.023059483617544174,0.007635590620338917
1761396911761784300,5.915784423828125,0.012827792204916477,0.02351761981844902,-0.008093725889921188
1761396911781161200,5.9351611328125,0.009009997360408306,0.0198525357991457,0.005497625097632408
1761396911800538000,5.9545380859375,-0.0010689827613532543,0.00015271181473508477,0.011606098152697086
1761396911819915000,5.9739150390625,0.010231691412627697,-0.012369656935334206,-0.008551862090826035
1761396911839292000,5.9932919921875,0.014507622458040714,0.0016798300202935934,-0.010689826682209969
1761396911858668800,6.012668701171875,-0.0021379655227065086,-0.0010689827613532543,0.017409147694706917
1761396911878045700,6.032045654296875,-0.007330167107284069,-0.011453386396169662,0.032222192734479904
1761396911897422600,6.051422607421875,-0.00030542362947016954,-0.0032069480512291193,0.015271181240677834
1761396911916799500,6.070799560546875,-0.005650337319821119,-0.005803049076348543,-0.006413896102458239
1761396911936176400,6.09017626953125,-0.0004581354442052543,-0.009468132629990578,0.0029015245381742716
1761396911955553300,6.10955322265625,0.008857285603880882,-0.0018325417768210173,0.016492875292897224
1761396911974930200,6.12893017578125,0.007330167107284069,-0.012980503961443901,0.007788302376866341
1761396911994307000,6.14830712890625,0.009773556143045425,-0.004581354558467865,0.01832541823387146
1761396912013684000,6.16768408203125,0.016492875292897224,0.00519220158457756,0.025197450071573257
1761396912033060900,6.187060791015625,0.011147962883114815,0.006719320081174374,0.01252236869186163
1761396912052437800,6.206437744140625,0.0016798300202935934,-0.025502873584628105,-0.010689826682209969
1761396912071814700,6.225814697265625,0.0050394898280501366,-0.03894151374697685,-0.033291175961494446
1761396912091191600,6.245191650390625,0.01954711228609085,0.003359660040587187,-0.03558185324072838
1761396912110568400,6.264568359375,0.015271181240677834,0.02626643143594265,-0.021379653364419937
1761396912129945300,6.2839453125,-0.005955760832875967,0.005497625097632408,-0.014049487188458443
1761396912149322200,6.303322265625,-0.021685076877474785,0.0029015245381742716,-0.02733541466295719
1761396912168699100,6.32269921875,0.0009162708884105086,0.03405473381280899,-0.00259610079228878
1761396912188076000,6.342075927734375,0.018019994720816612,0.06322269141674042,0.01511846948415041
1761396912207453000,6.361452880859375,-0.0007635590736754239,0.05268557742238045,0.014965757727622986
1761396912226829800,6.380829833984375,-0.02351761981844902,0.0035123717971146107,0.024433890357613564
1761396912246206700,6.400206787109375,-0.023823043331503868,-0.016798298805952072,0.0198525357991457
1761396912265583600,6.41958349609375,-0.01511846948415041,-0.001374406274408102,-0.013438640162348747
1761396912284960500,6.43896044921875,0.006719320081174374,0.004734066314995289,-0.01954711228609085
1761396912304337400,6.45833740234375,0.012064233422279358,0.015576604753732681,-0.005955760832875967
1761396912323714300,6.47771435546875,-0.0015271181473508477,0.02764083817601204,-0.012827792204916477
1761396912343091200,6.49709130859375,-0.020005248486995697,0.011606098152697086,-0.013438640162348747
1761396912362468000,6.516468017578125,-0.01954711228609085,-0.006108472589403391,0.009773556143045425
1761396912381845000,6.535844970703125,0.006261184345930815,0.004275931045413017,0.010689826682209969
1761396912401222000,6.555221923828125,0.023059483617544174,0.01511846948415041,-0.0029015245381742716
1761396912420598800,6.574598876953125,-0.0016798300202935934,0.0024433890357613564,-0.005344913341104984
1761396912439975400,6.593975341796875,-0.0331384651362896,0.011147962883114815,-0.01038440316915512
1761396912459352600,6.6133525390625,-0.03420744836330414,0.027029991149902344,-0.016492875292897224
1761396912478729500,6.6327294921875,-0.01511846948415041,0.031153209507465363,-0.0007635590736754239
1761396912498106000,6.652106201171875,-0.007482878863811493,0.01588202826678753,0.015576604753732681
1761396912517483300,6.671483154296875,0.0035123717971146107,0.021226942539215088,0.021837789565324783
1761396912536860000,6.69085986328125,0.010689826682209969,0.0261137206107378,0.031000498682260513
1761396912556236800,6.71023681640625,0.004581354558467865,-0.0010689827613532543,0.0261137206107378
1761396912575614000,6.729614013671875,-0.01038440316915512,-0.006261184345930815,0.013744063675403595
1761396912594990600,6.748990478515625,-0.00992626789957285,0.02351761981844902,-0.00259610079228878
1761396912614367500,6.768367431640625,-0.0036650835536420345,0.030695075169205666,-0.028557108715176582
1761396912633744400,6.787744384765625,-0.013133215717971325,0.013591351918876171,-0.03008422814309597
1761396912653121300,6.807121337890625,-0.00519220158457756,0.02489202655851841,-0.006261184345930815
1761396912672498200,6.826498291015625,-0.00015271181473508477,0.031153209507465363,0.0032069480512291193
1761396912691875000,6.845875,-0.014507622458040714,0.010078979656100273,-0.004123218823224306
1761396912711252000,6.865251953125,-0.018783552572131157,0.001374406274408102,-0.011606098152697086
1761396912730628900,6.88462890625,0.01038440316915512,0.010231691412627697,-0.0198525357991457
1761396912750005800,6.904005859375,0.02901524491608143,0.020310672000050545,-0.014049487188458443
1761396912769382700,6.923382568359375,0.009620844386518002,-0.00030542362947016954,-0.004734066314995289
1761396912788759600,6.942759521484375,-0.02092151902616024,-0.021837789565324783,-0.006108472589403391
1761396912808136400,6.962136474609375,-0.016340164467692375,-0.004734066314995289,-0.00519220158457756
1761396912827513300,6.981513427734375,0.005955760832875967,0.01588202826678753,0.0016798300202935934
1761396912846890200,7.00089013671875,0.0004581354442052543,0.0029015245381742716,0.008857285603880882
1761396912866267100,7.02026708984375,-0.010842538438737392,-0.0022906772792339325,0.009009997360408306
1761396912885644000,7.03964404296875,-0.0032069480512291193,0.00030542362947016954,0.0016798300202935934
1761396912905021000,7.05902099609375,-0.00259610079228878,-0.012675080448389053,-0.024586603045463562
1761396912924397800,7.078397705078125,-0.006413896102458239,-0.008246437646448612,-0.030695075169205666
1761396912943774700,7.097774658203125,-0.003359660040587187,0.010078979656100273,-0.018936265259981155
1761396912963151600,7.117151611328125,-0.00015271181473508477,0.004886778071522713,0.0029015245381742716
1761396912982528500,7.136528564453125,-0.0032069480512291193,0.005344913341104984,0.013438640162348747
1761396913001905400,7.155905517578125,-0.021532366052269936,0.016187451779842377,0.005955760832875967
1761396913021282300,7.1752822265625,-0.04947862774133682,0.032069481909275055,-0.020005248486995697
1761396913040659200,7.1946591796875,-0.1119377613067627,0.025808297097682953,-0.05925218388438225
1761396913060036000,7.2140361328125,-0.11972606182098389,0.01175880990922451,-0.08658760040998459
1761396913079413000,7.2334130859375,-0.07757759839296341,0.04550812020897865,-0.06658235192298889
1761396913098790000,7.252789794921875,0.01435491070151329,0.04718795046210289,0.0015271181473508477
1761396913118166800,7.272166748046875,0.09559759497642517,0.046729814261198044,0.08108997344970703
1761396913137543700,7.291543701171875,0.10308047384023666,0.008857285603880882,0.12766708433628082
1761396913156920600,7.310920654296875,0.05803048983216286,-0.030389651656150818,0.13896775245666504
1761396913176297500,7.33029736328125,0.02107422985136509,-0.04352286830544472,0.06673506647348404
1761396913195674400,7.34967431640625,-0.004275931045413017,-0.017561858519911766,-0.04734066128730774
1761396913215051300,7.36905126953125,-0.014049487188458443,0.037567105144262314,-0.0725381150841713
1761396913234428200,7.38842822265625,-0.013744063675403595,0.04321744292974472,-0.007941014133393764
1761396913253805000,7.40780517578125,-0.009468132629990578,0.021226942539215088,0.029167955741286278
1761396913273182000,7.427181884765625,-0.002748812548816204,0.006719320081174374,0.03436015918850899
1761396913292558800,7.446558837890625,0.005955760832875967,-0.0198525357991457,0.03527642786502838
1761396913311935700,7.465935791015625,0.027182703837752342,-0.02901524491608143,0.016798298805952072
1761396913331312600,7.485312744140625,0.023059483617544174,-0.018936265259981155,-0.0004581354442052543
1761396913350689500,7.504689453125,0.014507622458040714,-0.020157959312200546,-0.00259610079228878
1761396913370066400,7.52406640625,0.021532366052269936,-0.018630841746926308,-0.013133215717971325
1761396913389443300,7.543443359375,0.01832541823387146,-0.014660334214568138,-0.02489202655851841
1761396913408820200,7.5628203125,0.0004581354442052543,-0.01511846948415041,-0.014049487188458443
1761396913428197000,7.582197021484375,-0.01511846948415041,-0.0068720318377017975,-0.01588202826678753
1761396913447574000,7.601573974609375,-0.0006108472589403391,0.01252236869186163,-0.018019994720816612
1761396913466951000,7.620950927734375,0.012827792204916477,0.0065666078589856625,-0.011300674639642239
1761396913486327800,7.640327880859375,0.00259610079228878,-0.003970507066696882,0.008551862090826035
1761396913505704700,7.65970458984375,-0.009773556143045425,-0.0009162708884105086,0.02473931387066841
1761396913525081600,7.67908154296875,-0.00916270911693573,-0.004123218823224306,0.011300674639642239
1761396913544458500,7.69845849609375,-0.0007635590736754239,0.012980503961443901,-0.007941014133393764
1761396913563835400,7.71783544921875,0.004581354558467865,0.006261184345930815,-0.02367033064365387
1761396913583212300,7.73721240234375,-0.0022906772792339325,-0.004886778071522713,-0.018936265259981155
1761396913602589200,7.756589111328125,-0.009315420873463154,-0.006719320081174374,-0.013744063675403595
1761396913621966000,7.775966064453125,-0.0030542362947016954,-0.003359660040587187,-0.02092151902616024
1761396913641343000,7.795343017578125,-0.0068720318377017975,-0.012216945178806782,-0.0261137206107378
1761396913660719900,7.814719970703125,-0.00015271181473508477,0.00030542362947016954,-0.005803049076348543
1761396913680096800,7.8340966796875,0.014202198944985867,0.01252236869186163,0.0004581354442052543
1761396913699473700,7.8534736328125,-0.011453386396169662,-0.00519220158457756,-0.01817270554602146
1761396913718850600,7.8728505859375,-0.02626643143594265,0.00015271181473508477,-0.033291175961494446
1761396913738227500,7.8922275390625,-0.0004581354442052543,0.019088976085186005,-0.046729814261198044
1761396913757604400,7.911604248046875,0.013133215717971325,0.03771981969475746,-0.07009471952915192
1761396913776981200,7.930981201171875,-0.00916270911693573,0.027793550863862038,-0.0778830274939537
1761396913796358100,7.950358154296875,-0.02351761981844902,0.00030542362947016954,-0.05390727147459984
1761396913815735000,7.969735107421875,-0.016340164467692375,-0.015271181240677834,-0.0261137206107378
1761396913835112000,7.98911181640625,-0.0012216945178806782,0.004123218823224306,0.016187451779842377
1761396913854488800,8.00848876953125,0.01832541823387146,0.0036650835536420345,0.041232191026210785
1761396913873865700,8.02786572265625,0.02870982140302658,-0.013438640162348747,0.025808297097682953
1761396913893242600,8.04724267578125,0.00992626789957285,-0.007024743594229221,0.0038177953101694584
1761396913912619500,8.06661962890625,-0.011453386396169662,-0.0022906772792339325,-0.006719320081174374
1761396913931996400,8.085996337890625,-0.011300674639642239,0.005344913341104984,-0.02092151902616024
1761396913951373300,8.105373291015624,-0.008551862090826035,0.02244863659143448,-0.02764083817601204
1761396913970750200,8.124750244140625,-0.010842538438737392,0.033291175961494446,0.0035123717971146107
1761396913990127000,8.144127197265625,-0.015271181240677834,0.0024433890357613564,0.019241688773036003
1761396914009504000,8.16350390625,-0.029626091942191124,-0.03436015918850899,0
1761396914028881000,8.182880859375,-0.021532366052269936,-0.004734066314995289,-0.007330167107284069
1761396914048257800,8.2022578125,-0.0021379655227065086,0.03008422814309597,-0.023212196305394173
1761396914067634700,8.221634765625,-0.0032069480512291193,0.04688252881169319,-0.0328330397605896
1761396914087011600,8.241011474609374,-0.01038440316915512,0.042759306728839874,-0.023364907130599022
1761396914106388500,8.260388427734375,0.0050394898280501366,0.016492875292897224,-0.001985253533348441
1761396914125765400,8.279765380859375,0.03542914241552353,0.01832541823387146,-0.011606098152697086
1761396914145142300,8.299142333984374,0.024128466844558716,0.03161134570837021,-0.010842538438737392
1761396914164519200,8.318519287109375,-0.0015271181473508477,-0.0010689827613532543,0.007482878863811493
1761396914183896000,8.33789599609375,-0.005955760832875967,0.0004581354442052543,0.005955760832875967
1761396914203273000,8.35727294921875,-0.007024743594229221,0.042453885078430176,-0.0010689827613532543
1761396914222649900,8.37664990234375,-0.028098974376916885,-0.0022906772792339325,0.010537114925682545
1761396914242026800,8.39602685546875,-0.04153761267662048,-0.04871506989002228,0
1761396914261403600,8.415403564453126,-0.013896775431931019,-0.011453386396169662,-0.007330167107284069
1761396914280780500,8.434780517578124,0.01435491070151329,-0.0015271181473508477,0.025502873584628105
1761396914300157400,8.454157470703125,0.008246437646448612,-0.020310672000050545,0.020157959312200546
1761396914319534300,8.473534423828125,0.0068720318377017975,-0.029473381116986275,-0.004886778071522713
1761396914338911200,8.4929111328125,0.023975754156708717,-0.02641914412379265,-0.012827792204916477
1761396914358288100,8.5122880859375,0.010231691412627697,-0.02107422985136509,-0.021226942539215088
1761396914377665000,8.5316650390625,-0.007941014133393764,-0.003970507066696882,-0.024586603045463562
1761396914397042000,8.5510419921875,-0.019088976085186005,0.0010689827613532543,-0.016798298805952072
1761396914416418800,8.570418701171874,-0.01969982497394085,-0.008399149402976036,-0.007024743594229221
1761396914435795700,8.589795654296875,-0.010537114925682545,0.011453386396169662,-0.011911521665751934
1761396914455172600,8.609172607421876,0.0012216945178806782,0.01038440316915512,-0.01435491070151329
1761396914474549500,8.628549560546874,-0.011147962883114815,-0.024433890357613564,-0.008551862090826035
1761396914493926400,8.647926513671875,-0.008704573847353458,-0.023212196305394173,-0.008551862090826035
1761396914513303300,8.66730322265625,0.007941014133393764,0.008551862090826035,-0.011911521665751934
1761396914532680200,8.68668017578125,-0.0004581354442052543,0.007941014133393764,-0.008857285603880882
1761396914552057000,8.70605712890625,-0.02473931387066841,-0.020310672000050545,0.0007635590736754239
1761396914571434000,8.72543408203125,-0.02641914412379265,-0.002748812548816204,-0.013438640162348747
1761396914590811000,8.744810791015626,0.005803049076348543,0.012827792204916477,-0.01832541823387146
1761396914610187800,8.764187744140624,0.02244863659143448,0.004123218823224306,-0.0010689827613532543
1761396914629564700,8.783564697265625,0.007330167107284069,-0.01725643500685692,0.007482878863811493
1761396914648941600,8.802941650390625,0.005344913341104984,-0.028251685202121735,-0.010078979656100273
1761396914668318500,8.822318359375,0.004428642801940441,-0.015423892997205257,-0.02367033064365387
1761396914687695400,8.8416953125,-0.008399149402976036,-0.005497625097632408,-0.014965757727622986
1761396914707072300,8.861072265625,-0.010537114925682545,0.009620844386518002,-0.001374406274408102
1761396914726449200,8.88044921875,0.005955760832875967,0.01572931744158268,0.004123218823224306
1761396914745826000,8.899825927734375,0.009009997360408306,0.010689826682209969,-0.0032069480512291193
1761396914765203000,8.919202880859375,0.00030542362947016954,0.0012216945178806782,-0.016187451779842377
1761396914784579800,8.938579833984376,-0.005497625097632408,-0.007941014133393764,-0.02641914412379265
1761396914803956700,8.957956787109374,-0.012675080448389053,-0.01252236869186163,-0.02489202655851841
1761396914823333600,8.977333740234375,-0.014507622458040714,-0.0004581354442052543,-0.014965757727622986
1761396914842710500,8.99671044921875,0.0022906772792339325,0,0.00015271181473508477
1761396914862087400,9.01608740234375,0.0068720318377017975,-0.0018325417768210173,0.007788302376866341
1761396914881464600,9.035464599609375,-0.0021379655227065086,-0.015576604753732681,0.009009997360408306
1761396914900841200,9.05484130859375,-0.007941014133393764,-0.031153209507465363,0.00992626789957285
1761396914920218400,9.07421826171875,-0.00259610079228878,-0.010689826682209969,-0.003970507066696882
1761396914939595000,9.093594970703125,0.0022906772792339325,-0.009468132629990578,-0.0032069480512291193
1761396914958972200,9.11297216796875,-0.0022906772792339325,-0.008246437646448612,-0.010995250195264816
1761396914978349000,9.13234912109375,-0.0198525357991457,-0.01435491070151329,-0.030389651656150818
1761396914997726000,9.151725830078124,-0.03405473381280899,-0.0393996499478817,-0.02901524491608143
1761396915017102800,9.171102783203125,-0.07055285573005676,-0.05329642444849014,-0.012369656935334206
1761396915036479700,9.190479736328125,-0.14339639246463776,-0.06047387793660164,0.016645587980747223
1761396915055856600,9.209856689453124,-0.16111096739768982,-0.08948912471532822,0.054365407675504684
1761396915075233500,9.229233642578125,-0.08689302206039429,-0.013896775431931019,0.031153209507465363
1761396915094610400,9.2486103515625,-0.03130592033267021,0.026877280324697495,0.011606098152697086
1761396915113987300,9.2679873046875,-0.01038440316915512,0.00015271181473508477,0.020157959312200546
1761396915133364200,9.2873642578125,0.004123218823224306,-0.004886778071522713,-0.007330167107284069
1761396915152741000,9.3067412109375,0.012827792204916477,-0.007024743594229221,-0.021685076877474785
1761396915172118000,9.326117919921876,0.01725643500685692,0.007788302376866341,-0.010689826682209969
1761396915191495000,9.345494873046874,0.02229592576622963,0.01817270554602146,-0.01710372418165207
1761396915210871800,9.364871826171875,0.024128466844558716,0.012827792204916477,-0.02076880633831024
1761396915230248700,9.384248779296875,0.01175880990922451,-0.005650337319821119,-0.014965757727622986
1761396915249625600,9.40362548828125,0.010995250195264816,-0.0022906772792339325,-0.024281177669763565
1761396915269002500,9.42300244140625,0.02901524491608143,0.0010689827613532543,-0.02764083817601204
1761396915288379400,9.44237939453125,0.02901524491608143,-0.004123218823224306,-0.024128466844558716
1761396915307756300,9.46175634765625,0.0030542362947016954,-0.008093725889921188,-0.02214321307837963
1761396915327133200,9.48113330078125,-0.005344913341104984,-0.004581354558467865,-0.01588202826678753
1761396915346510000,9.500510009765625,-0.009468132629990578,0.0009162708884105086,-0.02489202655851841
1761396915365887000,9.519886962890626,-0.009468132629990578,0.014049487188458443,-0.03802524134516716
1761396915385263900,9.539263916015624,0.0038177953101694584,0.025655584409832954,-0.030389651656150818
1761396915404640800,9.558640869140625,0.013744063675403595,0.0065666078589856625,-0.015576604753732681
1761396915424017700,9.578017578125,-0.0015271181473508477,-0.02244863659143448,-0.00259610079228878
1761396915443394600,9.59739453125,-0.005803049076348543,-0.014660334214568138,0.0065666078589856625
1761396915462771500,9.616771484375,0.013591351918876171,0.007941014133393764,0.0022906772792339325
1761396915482148400,9.6361484375,0.010078979656100273,0.02351761981844902,-0.009773556143045425
1761396915501525200,9.655525146484376,-0.015271181240677834,-0.0004581354442052543,-0.022754060104489326
1761396915520902100,9.674902099609374,-0.03588727489113808,-0.028251685202121735,-0.0390942245721817
1761396915540279000,9.694279052734375,-0.017409147694706917,-0.004275931045413017,-0.049173206090927124
1761396915559656000,9.713656005859375,0.027029991149902344,0.02626643143594265,-0.033443886786699295
1761396915579032800,9.73303271484375,0.0261137206107378,0.013591351918876171,0.020157959312200546
1761396915598409700,9.75240966796875,0.0035123717971146107,-0.020157959312200546,0.04153761267662048
1761396915617786600,9.77178662109375,-0.01725643500685692,-0.04092676565051079,0.018019994720816612
1761396915637163500,9.79116357421875,0.007941014133393764,0.0016798300202935934,-0.016187451779842377
1761396915656540400,9.81054052734375,0.017867282032966614,0.028251685202121735,-0.03802524134516716
1761396915675917300,9.829917236328125,-0.007941014133393764,0.008551862090826035,-0.02886253222823143
1761396915695294200,9.849294189453126,-0.010537114925682545,-0.0022906772792339325,-0.006413896102458239
1761396915714671000,9.868671142578124,0.0035123717971146107,0.007635590620338917,-0.007177455350756645
1761396915734048000,9.888048095703125,-0.004428642801940441,0.007788302376866341,-0.0004581354442052543
1761396915753425200,9.907425048828125,-0.01175880990922451,-0.008093725889921188,-0.008857285603880882
1761396915772801800,9.9268017578125,0.0036650835536420345,0.0032069480512291193,-0.038788799196481705
1761396915792179000,9.946178955078125,0.00015271181473508477,0.008093725889921188,-0.04306473210453987
1761396915811555600,9.9655556640625,-0.029473381116986275,-0.020310672000050545,-0.019394399598240852
1761396915830932700,9.9849326171875,-0.024586603045463562,-0.014813045971095562,-0.0009162708884105086
1761396915850309600,10.0043095703125,-0.008399149402976036,0.010842538438737392,0.007330167107284069
1761396915869686500,10.0236865234375,-0.01252236869186163,-0.014202198944985867,0.0065666078589856625
1761396915889063400,10.0430634765625,-0.03787253051996231,-0.023823043331503868,-0.005497625097632408
1761396915908440300,10.0624404296875,-0.014049487188458443,-0.0030542362947016954,-0.02367033064365387
1761396915927817200,10.081817138671875,0.023212196305394173,0.007635590620338917,-0.025961007922887802
1761396915947194000,10.101194091796875,0.019241688773036003,0.01817270554602146,-0.02886253222823143
1761396915966571000,10.120571044921874,-0.0015271181473508477,0.02764083817601204,-0.00992626789957285
1761396915985948000,10.139947998046875,-0.018783552572131157,0.0022906772792339325,-0.01710372418165207
1761396916005324800,10.15932470703125,-0.03833066672086716,-0.019394399598240852,-0.029167955741286278
1761396916024701700,10.17870166015625,-0.02076880633831024,-0.00259610079228878,-0.038788799196481705
1761396916044078600,10.19807861328125,0.023823043331503868,0.013591351918876171,-0.0016798300202935934
1761396916063455500,10.21745556640625,0.011300674639642239,0.004275931045413017,0.0331384651362896
1761396916082832400,10.236832275390626,-0.008551862090826035,-0.01695101149380207,0.023823043331503868
1761396916102209300,10.256209228515624,0.008704573847353458,-0.004581354558467865,0.00259610079228878
1761396916121586200,10.275586181640625,0.012827792204916477,0.013896775431931019,-0.013438640162348747
1761396916140963000,10.294963134765625,-0.012216945178806782,0.0021379655227065086,-0.034665580838918686
1761396916160340000,10.314340087890624,-0.022754060104489326,0.016645587980747223,-0.06459710001945496
1761396916179716900,10.333716796875,0.010078979656100273,0.03130592033267021,-0.06062658876180649
1761396916199093800,10.35309375,-0.01038440316915512,0.033291175961494446,-0.008246437646448612
1761396916218470700,10.372470703125,-0.04169032722711563,0.06306997686624527,0.038788799196481705
1761396916237847600,10.39184765625,-0.1378987729549408,0.14751961827278137,0.13179029524326324
1761396916257224400,10.411224365234375,-0.17409147322177887,0.031000498682260513,0.2689255177974701
1761396916276588000,10.430588134765625,-0.14217470586299896,0.01710372418165207,0.24449162185192108
1761396916315355100,10.469355224609375,0.21288026869297028,0.062306419014930725,0.01038440316915512
1761396916334718700,10.48871875,0.1832541823387146,-0.05344913527369499,-0.051769305020570755
1761396916354109200,10.508109130859374,0.058183200657367706,-0.10582929104566574,-0.05268557742238045
1761396916373486000,10.527486083984375,0.05375456064939499,-0.10292776674032211,-0.02993151545524597
1761396916392863000,10.546863037109375,-0.009468132629990578,-0.03695625811815262,-0.07024743407964706
1761396916412240000,10.566239990234376,-0.0390942245721817,0.0522274412214756,-0.11987877637147903
1761396916431616800,10.58561669921875,-0.04321744292974472,0.06810946762561798,-0.15469707548618317
1761396916450993700,10.60499365234375,0.0006108472589403391,0.042759306728839874,-0.13362284004688263
1761396916470370600,10.62437060546875,0.03512371703982353,0.05100574716925621,-0.06765133142471313
1761396916489747500,10.64374755859375,0.038636088371276855,0.11361759155988693,0.013591351918876171
1761396916509110800,10.66311083984375,0.21501824259757996,0.1304158866405487,0.06902574002742767
1761396916528501200,10.682501220703125,0.03145863488316536,0.09284878522157669,0.2163926362991333
1761396916547878100,10.701878173828124,-0.029778804630041122,-0.0988045409321785,0.24754585325717926
1761396916567255000,10.721255126953125,0.03955236077308655,-0.042453885078430176,0.15652960538864136
1761396916586632000,10.7406318359375,0.1566823273897171,0.020463382825255394,0.10613471269607544
1761396916606008800,10.7600087890625,0.05543438717722893,-0.013133215717971325,-0.007788302376866341
1761396916625385700,10.7793857421875,-0.07498150318861008,-0.04871506989002228,-0.10521844029426575
