time,seconds_elapsed,z,y,x
1761396905969217800,0.1232177734375,8.86361312866211,3.9792640209198,-0.9840483069419861
1761396905988594700,0.1425947265625,9.229117393493652,3.9672999382019043,-0.9421738982200623
1761396906007971600,0.1619716796875,9.078369140625,4.099503517150879,-0.8386843204498291
1761396906027348500,0.181348388671875,9.116654396057129,4.133601188659668,-0.6089733839035034
1761396906046725400,0.200725341796875,9.266205787658691,4.0767717361450195,-0.5276173949241638
1761396906066102300,0.220102294921875,8.891729354858398,4.147359848022461,-0.49172505736351013
1761396906085479200,0.239479248046875,8.816354751586914,4.244867324829102,-0.4289134442806244
1761396906104856000,0.25885595703125,9.017352104187012,4.252045631408691,-0.35114672780036926
1761396906124233000,0.27823291015625,8.976076126098633,4.299304008483887,-0.397208571434021
1761396906143609600,0.297609619140625,8.682356834411621,4.3178486824035645,-0.33918261528015137
1761396906162986500,0.316986572265625,8.203792572021484,4.371686935424805,-0.38703906536102295
1761396906182363400,0.33636328125,7.874779224395752,4.439882278442383,-0.09391828626394272
1761396906201740300,0.355740234375,8.433503150939941,4.3896331787109375,-0.2111666053533554
1761396906221117200,0.3751171875,9.192028045654297,4.320241451263428,-0.32542386651039124
1761396906240494000,0.394494140625,9.43609619140625,4.356133460998535,-0.27397820353507996
1761396906259871000,0.41387109375,9.349356651306152,4.392624378204346,-0.3355933725833893
1761396906279248000,0.433247802734375,9.162117958068848,4.30588436126709,-0.36610186100006104
1761396906298624800,0.452624755859375,8.645268440246582,4.314857482910156,-0.25423741340637207
1761396906318001700,0.472001708984375,8.093124389648438,4.412364959716797,-0.2799602448940277
1761396906337378300,0.49137841796875,8.072187423706055,4.474578380584717,-0.2955136001110077
1761396906356755200,0.510755126953125,8.649456024169922,4.490729808807373,-0.07956135272979736
1761396906376132000,0.530132080078125,8.951549530029297,4.607379913330078,0.14416755735874176
1761396906395509000,0.549509033203125,8.776873588562012,4.67078971862793,0.24646073579788208
1761396906414886000,0.568885986328125,8.304290771484375,4.575077056884766,0.268594354391098
1761396906434262800,0.5882626953125,7.856235027313232,4.625326156616211,-0.02751746028661728
1761396906453639700,0.6076396484375,8.21276569366455,4.548755645751953,-0.03170489892363548
1761396906473016600,0.6270166015625,8.73200798034668,4.6199421882629395,0.08315058797597885
1761396906492393500,0.6463935546875,9.029914855957031,4.525425910949707,0.1740778535604477
1761396906511770000,0.66577001953125,9.29731273651123,4.429712772369385,-0.3320041298866272
1761396906531147000,0.68514697265625,9.18006420135498,4.286143779754639,-0.45643091201782227
1761396906550524000,0.70452392578125,8.745766639709473,4.385445594787598,-0.3433700501918793
1761396906569900800,0.72390087890625,8.661419868469238,4.423132419586182,-0.28534409403800964
1761396906589277700,0.743277587890625,8.729615211486816,4.415954113006592,-0.0849452018737793
1761396906608654600,0.762654541015625,8.911469459533691,4.3758745193481445,-0.1333998590707779
1761396906628031500,0.782031494140625,8.8707914352417,4.3280181884765625,-0.4181457459926605
1761396906647408400,0.801408447265625,8.975478172302246,4.2795634269714355,-0.45942193269729614
1761396906666785300,0.820785400390625,9.005986213684082,4.323232173919678,-0.3164508044719696
1761396906686162200,0.840162109375,8.84207820892334,4.405784606933594,-0.10707881301641464
1761396906705538800,0.859538818359375,8.714659690856934,4.420739650726318,-0.026919255033135414
1761396906724915700,0.878915771484375,8.755936622619629,4.396811485290527,-0.07178468257188797
1761396906744292600,0.898292724609375,8.84207820892334,4.397409915924072,-0.13459627330303192
1761396906763669500,0.91766943359375,8.775078773498535,4.408177375793457,-0.1704886108636856
1761396906783046400,0.93704638671875,8.639286041259766,4.467400074005127,-0.28893333673477173
1761396906802423300,0.95642333984375,8.551948547363281,4.453042984008789,-0.23449662327766418
1761396906821800200,0.97580029296875,8.49870777130127,4.512265205383301,-0.22133609652519226
1761396906841177000,0.995177001953125,8.384450912475586,4.5200419425964355,-0.19202402234077454
1761396906860554000,1.014553955078125,8.521439552307129,4.523033142089844,-0.29790642857551575
1761396906879931000,1.033930908203125,8.557332038879395,4.502694129943848,-0.14297115802764893
1761396906899307500,1.0533076171875,9.145368576049805,4.478167533874512,-0.3732803463935852
1761396906918684400,1.072684326171875,9.588638305664062,4.314259052276611,-0.3966103494167328
1761396906938061300,1.092061279296875,9.361320495605469,4.2933220863342285,-0.41874396800994873
1761396906957438200,1.111438232421875,8.901300430297852,4.382454872131348,-0.3200400173664093
1761396906976815000,1.130815185546875,8.234899520874023,4.482953071594238,-0.24406790733337402
1761396906996192000,1.15019189453125,7.992027759552002,4.6169514656066895,-0.30628129839897156
1761396907015569000,1.16956884765625,8.22413158416748,4.657629489898682,-0.07597211748361588
1761396907034945800,1.18894580078125,8.531609535217285,4.691727161407471,-0.02871387079358101
1761396907054322700,1.20832275390625,8.995817184448242,4.545166492462158,-0.2027917206287384
1761396907073699600,1.227699462890625,9.316454887390137,4.440480709075928,-0.4259224236011505
1761396907093076200,1.247076171875,9.138189315795898,4.4273200035095215,-0.38703906536102295
1761396907112453000,1.266453125,8.785846710205078,4.54337215423584,-0.380458801984787
1761396907131830000,1.285830078125,8.609973907470703,4.536791801452637,-0.4618147611618042
1761396907151207000,1.30520703125,8.404191017150879,4.473381996154785,-0.49591249227523804
1761396907170583800,1.324583740234375,8.304888725280762,4.554139614105225,-0.5641079545021057
1761396907189960700,1.343960693359375,8.35992431640625,4.604987144470215,-0.33020952343940735
1761396907209337600,1.363337646484375,8.346165657043457,4.739583492279053,0.050847481936216354
1761396907228714500,1.382714599609375,8.389236450195312,4.77667236328125,0.12921242415905
1761396907248091400,1.40209130859375,9.05982494354248,4.570291042327881,-0.13280165195465088
1761396907267468000,1.421468017578125,9.070592880249023,4.603192329406738,-0.267397940158844
1761396907286845000,1.440844970703125,8.591429710388184,4.579264163970947,0.04905286431312561
1761396907306221800,1.460221923828125,8.830113410949707,4.3794636726379395,-0.08614161610603333
1761396907325598700,1.4795986328125,9.45045280456543,4.116851329803467,-0.607776939868927
1761396907344975600,1.4989755859375,9.29312515258789,4.0767717361450195,-0.9511470198631287
1761396907364352500,1.5183525390625,8.998209953308105,4.205984115600586,-0.9798609018325806
1761396907383729400,1.5377294921875,9.022137641906738,4.284348964691162,-0.40319061279296875
1761396907403106300,1.557106201171875,8.758927345275879,4.4584269523620605,0.09212367236614227
1761396907422483200,1.576483154296875,8.668000221252441,4.527220249176025,0.03768695518374443
1761396907441860000,1.595860107421875,8.431110382080078,4.626522541046143,0.2392822653055191
1761396907461237000,1.615237060546875,8.409575462341309,4.631906509399414,0.26620152592658997
1761396907480614000,1.63461376953125,8.340781211853027,4.601995944976807,-0.10887342691421509
1761396907499990500,1.653990478515625,8.160721778869629,4.682155609130859,-0.129810631275177
1761396907519367400,1.673367431640625,8.376075744628906,4.727021217346191,0.19800607860088348
1761396907538744300,1.692744384765625,8.630910873413086,4.715056896209717,0.11724831163883209
1761396907558121200,1.712121337890625,8.94257640838623,4.54337215423584,-0.2877369225025177
1761396907577498000,1.731498046875,8.95693302154541,4.478765964508057,-0.35114672780036926
1761396907596875000,1.750875,8.691927909851074,4.6199421882629395,-0.27337998151779175
1761396907616252000,1.770251953125,8.46879768371582,4.6408796310424805,-0.2919243574142456
1761396907635628800,1.78962890625,8.469993591308594,4.674378871917725,-0.36311084032058716
1761396907655005700,1.809005615234375,8.662615776062012,4.595416069030762,-0.5018945336341858
1761396907674382600,1.828382568359375,8.758329391479492,4.576273441314697,-0.4695914387702942
1761396907693759200,1.84775927734375,8.755337715148926,4.653441905975342,-0.3978067636489868
1761396907713136000,1.86713623046875,8.778069496154785,4.695316314697266,-0.46002015471458435
1761396907732513000,1.886512939453125,8.883952140808105,4.677968502044678,-0.6119644045829773
1761396907751890000,1.905889892578125,8.688339233398438,4.626522541046143,-0.5258227586746216
1761396907771266800,1.925266845703125,8.48016357421875,4.598406791687012,-0.5545366406440735
1761396907790643700,1.944643798828125,8.443673133850098,4.566103935241699,-0.5084748268127441
1761396907810020600,1.9640205078125,8.448458671569824,4.501497745513916,-0.27397820353507996
1761396907829397500,1.9833974609375,8.753543853759766,4.417150497436523,-0.16091732680797577
1761396907848774400,2.0027744140625,9.012566566467285,4.366302967071533,-0.01375873014330864
1761396907868151300,2.0221513671875,8.769096374511719,4.455435752868652,0.24167509377002716
1761396907887528200,2.041528076171875,8.651249885559082,4.364508628845215,0.33379876613616943
1761396907906905000,2.060905029296875,8.718249320983887,4.276572227478027,0.053240302950143814
1761396907926281700,2.08028173828125,8.707481384277344,4.337589263916016,-0.16510476171970367
1761396907945658600,2.09965869140625,8.71226692199707,4.449453830718994,-0.23988047242164612
1761396907965035500,2.119035400390625,8.673981666564941,4.5684967041015625,-0.14835500717163086
1761396907984412400,2.138412353515625,8.708678245544434,4.604987144470215,-0.10289137065410614
1761396908003789300,2.157789306640625,8.760123252868652,4.588835716247559,-0.1381855010986328
1761396908023166200,2.177166259765625,8.629714965820312,4.563112735748291,-0.08793623000383377
1761396908042543000,2.196543212890625,8.544171333312988,4.531407833099365,-0.22013968229293823
1761396908061920000,2.215919921875,8.536395072937012,4.511068820953369,-0.34636107087135315
1761396908081297000,2.235296875,8.733802795410156,4.515854358673096,-0.46839502453804016
1761396908100673800,2.254673828125,9.059226989746094,4.329812526702881,-0.6041877269744873
1761396908120050700,2.27405078125,9.220144271850586,4.0935211181640625,-1.134796142578125
1761396908139427600,2.293427490234375,9.100502967834473,3.968496322631836,-1.5224334001541138
1761396908158804500,2.312804443359375,9.011369705200195,4.009772777557373,-1.454836130142212
1761396908178181000,2.33218115234375,9.027522087097168,4.141377925872803,-0.9607182741165161
1761396908197558000,2.35155810546875,8.999405860900879,4.277170658111572,-0.4701896607875824
1761396908216935000,2.370934814453125,8.70508861541748,4.439882278442383,-0.07417750358581543
1761396908236311800,2.390311767578125,8.772088050842285,4.425525665283203,-0.08374879509210587
1761396908255688700,2.409688720703125,8.839086532592773,4.347758769989014,-0.2835494875907898
1761396908275065600,2.429065673828125,8.489136695861816,4.344169616699219,-0.2835494875907898
1761396908294442500,2.4484423828125,8.39282512664795,4.382454872131348,-0.29371899366378784
1761396908313819400,2.4678193359375,8.5764741897583,4.411168575286865,-0.3607180118560791
1761396908333196300,2.4871962890625,8.959325790405273,4.418346881866455,-0.35473597049713135
1761396908352573200,2.5065732421875,9.039485931396484,4.391427993774414,-0.576670229434967
1761396908371950000,2.5259501953125,8.868997573852539,4.3310089111328125,-0.7369893789291382
1761396908391327000,2.545326904296875,8.827122688293457,4.321437835693359,-0.8039883971214294
1761396908410703600,2.56470361328125,8.598608016967773,4.380061626434326,-0.5964110493659973
1761396908430080500,2.58408056640625,8.6033935546875,4.359124660491943,-0.4247260093688965
1761396908449457400,2.60345751953125,8.73499870300293,4.353740692138672,-0.5126622319221497
1761396908468834300,2.622834228515625,8.73499870300293,4.328616142272949,-0.32542386651039124
1761396908488211200,2.642211181640625,9.001798629760742,4.253840446472168,-0.26979073882102966
1761396908507588000,2.661588134765625,9.171091079711914,4.220340728759766,-0.3762713670730591
1761396908526965000,2.680965087890625,8.948558807373047,4.288536548614502,-0.4091726839542389
1761396908546342000,2.700341796875,8.684749603271484,4.353740692138672,-0.3852444589138031
1761396908565718800,2.71971875,8.58903694152832,4.369294166564941,-0.5377869009971619
1761396908585095700,2.739095703125,8.666803359985352,4.406383037567139,-0.5653043389320374
1761396908604472600,2.75847265625,8.704490661621094,4.428516387939453,-0.41874396800994873
1761396908623849500,2.777849365234375,8.715258598327637,4.402195453643799,-0.4007977843284607
1761396908643226400,2.797226318359375,8.858229637145996,4.280759811401367,-0.5096712112426758
1761396908662603300,2.816603271484375,9.010173797607422,4.211966037750244,-0.6167500615119934
1761396908681980000,2.83597998046875,8.873783111572266,4.2484564781188965,-0.5748756527900696
1761396908701356800,2.855356689453125,8.785248756408691,4.350151538848877,-0.4953143000602722
1761396908720733700,2.874733642578125,8.748159408569336,4.36809778213501,-0.5084748268127441
1761396908740110600,2.894110595703125,8.790632247924805,4.336990833282471,-0.7304090857505798
1761396908759487500,2.913487548828125,8.8438720703125,4.274179458618164,-0.7860422134399414
1761396908778864400,2.932864501953125,8.808578491210938,4.310669898986816,-0.6089733839035034
1761396908798241300,2.9522412109375,8.690134048461914,4.388436794281006,-0.45284169912338257
1761396908817618200,2.9716181640625,8.653044700622559,4.390231132507324,-0.39601215720176697
1761396908836995000,2.9909951171875,8.702695846557617,4.371686935424805,-0.4043870270252228
1761396908856372000,3.0103720703125,8.863015174865723,4.280759811401367,-0.6622136831283569
1761396908875748900,3.029748779296875,9.090332984924316,4.219144344329834,-0.9254241585731506
1761396908895125800,3.049125732421875,8.967103004455566,4.30588436126709,-0.7034898400306702
1761396908914502700,3.068502685546875,8.776275634765625,4.409972190856934,-0.41934216022491455
1761396908933879300,3.08787939453125,8.661419868469238,4.4273200035095215,-0.47916272282600403
1761396908953256200,3.107256103515625,8.73200798034668,4.330410957336426,-0.5443671345710754
1761396908972633000,3.126633056640625,8.6243314743042,4.390231132507324,-0.42831525206565857
1761396908992010000,3.146010009765625,8.602197647094727,4.359723091125488,-0.43190449476242065
1761396909011387000,3.165386962890625,8.644071578979492,4.334598064422607,-0.4456632137298584
1761396909030763800,3.184763671875,8.874381065368652,4.267001152038574,-0.4145565330982208
1761396909050140700,3.204140625,9.053842544555664,4.240679740905762,-0.5377869009971619
1761396909069517600,3.223517578125,8.950352668762207,4.2592244148254395,-0.6167500615119934
1761396909088894500,3.24289453125,8.708678245544434,4.3417768478393555,-0.47916272282600403
1761396909108271400,3.262271240234375,8.566903114318848,4.398606300354004,-0.4701896607875824
1761396909127648300,3.281648193359375,8.757132530212402,4.337589263916016,-0.6873382925987244
1761396909147025200,3.301025146484375,8.886942863464355,4.3172502517700195,-0.8075776696205139
1761396909166402000,3.320402099609375,8.828917503356934,4.377070903778076,-0.6622136831283569
1761396909185779000,3.339779052734375,8.772686004638672,4.369892120361328,-0.6185446381568909
1761396909205155800,3.35915576171875,8.802596092224121,4.354339122772217,-0.7052844762802124
1761396909224532500,3.378532470703125,8.882756233215332,4.325026988983154,-0.6083751320838928
1761396909243909600,3.39790966796875,8.812167167663574,4.3411784172058105,-0.576670229434967
1761396909263286300,3.417286376953125,8.73320484161377,4.343571186065674,-0.6281159520149231
1761396909282663200,3.4366630859375,8.754739761352539,4.309473514556885,-0.6717849373817444
1761396909302040000,3.4560400390625,8.872586250305176,4.249054908752441,-0.6430711150169373
1761396909321417000,3.4754169921875,8.825926780700684,4.2592244148254395,-0.5359922647476196
1761396909340793900,3.4947939453125,8.726624488830566,4.268197536468506,-0.46360939741134644
1761396909360170800,3.514170654296875,8.764909744262695,4.270590305328369,-0.4588237404823303
1761396909379547600,3.533547607421875,8.846863746643066,4.311268329620361,-0.4372883439064026
1761396909398924500,3.552924560546875,8.847461700439453,4.3788652420043945,-0.503689169883728
1761396909418301400,3.572301513671875,8.73619556427002,4.40757942199707,-0.4911268353462219
1761396909437678300,3.59167822265625,8.807381629943848,4.367499351501465,-0.5970092415809631
1761396909457055200,3.61105517578125,8.640482902526855,4.35254430770874,-0.5988038778305054
1761396909476432100,3.63043212890625,8.632107734680176,4.34955358505249,-0.6364908218383789
1761396909495809000,3.64980908203125,8.885746955871582,4.2693939208984375,-0.747757077217102
1761396909515186000,3.66918603515625,8.989236831665039,4.246063709259033,-0.763310432434082
1761396909534562600,3.6885625,9.007183074951172,4.244269371032715,-0.7154539823532104
1761396909553939500,3.707939453125,8.894720077514648,4.221537113189697,-0.6035895347595215
1761396909573316400,3.72731640625,8.647063255310059,4.267001152038574,-0.5401797294616699
1761396909592693200,3.746693359375,8.625527381896973,4.2933220863342285,-0.527019202709198
1761396909612070100,3.766070068359375,8.809774398803711,4.339982032775879,-0.5407779216766357
1761396909631447000,3.785447021484375,8.858827590942383,4.380660057067871,-0.6227321028709412
1761396909650824000,3.804823974609375,8.851649284362793,4.34955358505249,-0.592223584651947
1761396909670200800,3.824200927734375,8.904889106750488,4.286741733551025,-0.6951149702072144
1761396909689577700,3.84357763671875,8.917451858520508,4.223930358886719,-0.7668996453285217
1761396909708954600,3.86295458984375,8.799007415771484,4.241876125335693,-0.7316055297851562
1761396909728331500,3.88233154296875,8.657232284545898,4.3310089111328125,-0.5150550603866577
1761396909747708400,3.90170849609375,8.664410591125488,4.365106582641602,-0.40319061279296875
1761396909767085300,3.921085205078125,8.827720642089844,4.2933220863342285,-0.5539384484291077
1761396909786462200,3.940462158203125,8.94377326965332,4.235894203186035,-0.6287141442298889
1761396909805839000,3.959839111328125,8.971290588378906,4.23948335647583,-0.5868397355079651
1761396909825216000,3.979216064453125,8.960522651672363,4.267001152038574,-0.6652047038078308
1761396909844593000,3.998593017578125,8.724231719970703,4.300500392913818,-0.6831508874893188
1761396909863969800,4.0179697265625,8.662017822265625,4.36091947555542,-0.542572557926178
1761396909883346400,4.037346435546875,8.784051895141602,4.386641979217529,-0.33020952343940735
1761396909902723300,4.056723388671875,8.772088050842285,4.392025947570801,-0.4289134442806244
1761396909922102000,4.07610205078125,8.703293800354004,4.28734016418457,-0.6005984544754028
1761396909941477000,4.09547705078125,8.814560890197754,4.233501434326172,-0.6777670383453369
1761396909960854000,4.11485400390625,8.910273551940918,4.221537113189697,-0.5940182209014893
1761396909980231000,4.13423095703125,8.94257640838623,4.226323127746582,-0.5341976284980774
1761396909999704300,4.153704345703125,8.937790870666504,4.207180500030518,-0.5892325639724731
1761396910038361600,4.192361572265625,8.61057186126709,4.36809778213501,-0.5509474277496338
1761396910057738500,4.211738525390625,8.57767105102539,4.442873477935791,-0.4666004180908203
1761396910077115400,4.231115478515625,8.842676162719727,4.376472473144531,-0.5000999569892883
1761396910096492300,4.2504921875,9.049057006835938,4.275375843048096,-0.6017948985099792
1761396910115869200,4.269869140625,8.890532493591309,4.253242015838623,-0.600000262260437
1761396910135246000,4.28924609375,8.810373306274414,4.283750534057617,-0.4989035129547119
1761396910154623000,4.308623046875,8.714061737060547,4.436891555786133,-0.46719861030578613
1761396910173999900,4.327999755859375,8.69372272491455,4.476373195648193,-0.49351966381073
1761396910193376800,4.347376708984375,8.872586250305176,4.412963390350342,-0.6107679605484009
1761396910212753700,4.366753662109375,8.787042617797852,4.380660057067871,-0.6765705943107605
1761396910232130600,4.386130615234375,8.625527381896973,4.398606300354004,-0.5389832854270935
1761396910251507200,4.405507080078125,8.703293800354004,4.392624378204346,-0.34217363595962524
1761396910270884000,4.424884033203125,8.837890625,4.353142738342285,-0.47258245944976807
1761396910290261000,4.444260986328125,8.766703605651855,4.322634220123291,-0.4899304509162903
1761396910309638000,4.463637939453125,8.737391471862793,4.344169616699219,-0.4001995921134949
1761396910329014800,4.483014892578125,8.81396198272705,4.369294166564941,-0.3607180118560791
1761396910348391700,4.5023916015625,8.726025581359863,4.446462631225586,-0.3936193287372589
1761396910367768600,4.5217685546875,8.58185863494873,4.473381996154785,-0.3774677813053131
1761396910387145500,4.5411455078125,8.680562019348145,4.444069862365723,-0.42831525206565857
1761396910406522400,4.5605224609375,8.800801277160645,4.397409915924072,-0.5563312768936157
1761396910425899300,4.579899169921875,8.770891189575195,4.408775806427002,-0.5814558863639832
1761396910445276200,4.599276123046875,8.8648099899292,4.359124660491943,-0.5132604837417603
1761396910464653000,4.618653076171875,8.8648099899292,4.3208394050598145,-0.4145565330982208
1761396910484030000,4.638030029296875,8.711071014404297,4.340580463409424,-0.4707878530025482
1761396910503406800,4.65740673828125,8.642875671386719,4.363312244415283,-0.4911268353462219
1761396910522783700,4.67678369140625,8.83071231842041,4.391427993774414,-0.5515456199645996
1761396910542160600,4.69616064453125,8.651848793029785,4.439284324645996,-0.5892325639724731
1761396910561537500,4.71553759765625,8.37846851348877,4.453042984008789,-0.6305087804794312
1761396910580914400,4.73491455078125,9.384650230407715,4.443471431732178,-0.99481600522995
1761396910600291300,4.754291259765625,9.456435203552246,4.238286972045898,-0.6424728631973267
1761396910619668200,4.773668212890625,8.420342445373535,4.286741733551025,-0.47198426723480225
1761396910639044900,4.793044921875,8.662615776062012,4.404588222503662,-0.40677985548973083
1761396910658422000,4.812422119140625,9.007781028747559,4.487739086151123,-0.07357929646968842
1761396910677798700,4.831798583984375,8.611170768737793,4.603192329406738,-0.004785645287483931
1761396910697175600,4.851175537109375,8.435895919799805,4.567300319671631,-0.40259242057800293
1761396910716552400,4.870552490234375,8.565108299255371,4.484747886657715,-0.5772684812545776
1761396910735929300,4.889929443359375,8.675178527832031,4.48115873336792,-0.41515472531318665
1761396910755306200,4.90930615234375,8.722436904907227,4.447659015655518,-0.3314059376716614
1761396910774683100,4.92868310546875,8.707481384277344,4.486542224884033,-0.3002992272377014
1761396910794060000,4.94806005859375,8.797212600708008,4.460221290588379,-0.2560320198535919
1761396910813437000,4.96743701171875,8.711668968200684,4.296911239624023,-0.47796630859375
1761396910832813800,4.986813720703125,8.647063255310059,4.171886444091797,-0.7094719409942627
1761396910852190700,5.006190673828125,8.783453941345215,4.213162422180176,-0.7040880918502808
1761396910871567600,5.025567626953125,8.953344345092773,4.351347923278809,-0.633499801158905
1761396910890944500,5.044944580078125,9.055039405822754,4.405186653137207,-0.5916253924369812
1761396910910321400,5.0643212890625,8.85523796081543,4.517649173736572,-0.6323033571243286
1761396910929698300,5.0836982421875,8.464012145996094,4.549952030181885,-0.5527420043945312
1761396910949075200,5.1030751953125,8.59202766418457,4.538586139678955,-0.5904290080070496
1761396910968452000,5.1224521484375,8.813364028930664,4.506881237030029,-0.5994020700454712
1761396910987829000,5.1418291015625,8.7176513671875,4.5098724365234375,-0.5706881880760193
1761396911007206000,5.161205810546875,8.760123252868652,4.43031120300293,-0.6017948985099792
1761396911026582800,5.180582763671875,8.85523796081543,4.37228536605835,-0.6514459848403931
1761396911045959700,5.199959716796875,8.691927909851074,4.385445594787598,-0.6532405614852905
1761396911065336600,5.219336669921875,8.6907320022583,4.388436794281006,-0.6424728631973267
1761396911084713500,5.23871337890625,8.84925651550293,4.377070903778076,-0.6658028960227966
1761396911104090000,5.258090087890625,8.806783676147461,4.409972190856934,-0.5419743061065674
1761396911123467000,5.277467041015625,8.768498420715332,4.4243292808532715,-0.4660021960735321
1761396911142844200,5.29684423828125,8.679366111755371,4.422534465789795,-0.44446679949760437
1761396911162220800,5.316220703125,8.7445707321167,4.400400638580322,-0.4504488706588745
1761396911181597700,5.33559765625,8.86780071258545,4.408775806427002,-0.3332005441188812
1761396911200974600,5.354974609375,8.73200798034668,4.428516387939453,-0.381655216217041
1761396911220351500,5.3743515625,8.606385231018066,4.422534465789795,-0.4743770956993103
1761396911239728400,5.393728271484375,8.650651931762695,4.431507587432861,-0.542572557926178
1761396911259105300,5.413105224609375,8.712865829467773,4.468596458435059,-0.6161518096923828
1761396911278482200,5.432482177734375,8.813364028930664,4.46979284286499,-0.7004988193511963
1761396911297859000,5.451859130859375,8.94556713104248,4.447659015655518,-0.7286145091056824
1761396911317236000,5.471236083984375,8.789435386657715,4.49252462387085,-0.6586244106292725
1761396911336612900,5.49061279296875,8.597412109375,4.5308098793029785,-0.46061834692955017
1761396911355989800,5.50998974609375,8.697312355041504,4.454239368438721,-0.5946164131164551
1761396911375366700,5.52936669921875,8.658429145812988,4.404588222503662,-0.7597211599349976
1761396911394743600,5.54874365234375,8.6967134475708,4.400400638580322,-0.6687939167022705
1761396911414120400,5.568120361328125,8.854042053222656,4.475774765014648,-0.5407779216766357
1761396911433497300,5.587497314453125,8.83071231842041,4.514657974243164,-0.4253242313861847
1761396911452874200,5.606874267578125,8.700303077697754,4.518845558166504,-0.28175488114356995
1761396911472251100,5.626251220703125,8.529216766357422,4.499104976654053,-0.5288137793540955
1761396911491628000,5.6456279296875,8.427521705627441,4.506881237030029,-0.6329016089439392
1761396911511005000,5.6650048828125,8.49033260345459,4.521836757659912,-0.36670008301734924
1761396911530381800,5.6843818359375,8.708678245544434,4.493721008300781,-0.26440688967704773
1761396911549758700,5.7037587890625,8.801998138427734,4.463810443878174,-0.6323033571243286
1761396911569135600,5.723135498046875,8.805587768554688,4.447659015655518,-0.9667003750801086
1761396911588512500,5.742512451171875,8.816953659057617,4.4410786628723145,-1.124626636505127
1761396911607889400,5.761889404296875,8.885149002075195,4.4273200035095215,-1.2705888748168945
1761396911627266300,5.781266357421875,8.903693199157715,4.380061626434326,-1.197009563446045
1761396911646643200,5.800643310546875,8.714659690856934,4.421338081359863,-0.8015955686569214
1761396911666020000,5.82002001953125,8.646464347839355,4.405186653137207,-0.6011967062950134
1761396911685396700,5.839396728515625,8.654839515686035,4.3896331787109375,-0.625723123550415
1761396911704774000,5.85877392578125,8.749954223632812,4.445864677429199,-0.5742774605751038
1761396911724150500,5.878150634765625,8.73918628692627,4.500899314880371,-0.5910272002220154
1761396911743527400,5.89752734375,8.623732566833496,4.55055046081543,-0.7070791125297546
1761396911762904300,5.916904296875,8.695517539978027,4.521238327026367,-0.7579265832901001
1761396911782281200,5.93628125,8.769096374511719,4.497310161590576,-0.719641387462616
1761396911801658000,5.955658203125,8.654241561889648,4.470989227294922,-0.7770691514015198
1761396911821035000,5.975034912109375,8.658429145812988,4.41057014465332,-0.771087110042572
1761396911840412000,5.994411865234375,8.827720642089844,4.380660057067871,-0.6514459848403931
1761396911859788800,6.013788818359375,8.876175880432129,4.404588222503662,-0.646660327911377
1761396911879165700,6.033165771484375,8.751749038696289,4.432105541229248,-0.7782655358314514
1761396911898542600,6.05254248046875,8.574081420898438,4.47278356552124,-0.7310073375701904
1761396911917919500,6.07191943359375,8.641080856323242,4.47697114944458,-0.735194742679596
1761396911937296400,6.09129638671875,8.799605369567871,4.48115873336792,-0.8434699773788452
1761396911956673300,6.11067333984375,8.699705123901367,4.511667251586914,-0.7992027401924133
1761396911976050200,6.13005029296875,8.704490661621094,4.508078098297119,-0.7830511927604675
1761396911995427000,6.149427001953125,8.73918628692627,4.49252462387085,-0.7567301392555237
1761396912014804000,6.168803955078125,8.662017822265625,4.549354076385498,-0.7567301392555237
1761396912034180900,6.188180908203125,8.557929992675781,4.549952030181885,-0.6574280261993408
1761396912053557800,6.207557861328125,8.586644172668457,4.503890514373779,-0.7130611538887024
1761396912072934700,6.2269345703125,8.666205406188965,4.43031120300293,-0.7459624409675598
1761396912092311600,6.2463115234375,8.769695281982422,4.442275047302246,-0.7100701332092285
1761396912111688400,6.2656884765625,8.799007415771484,4.504488468170166,-0.6358926296234131
1761396912131065300,6.2850654296875,8.648857116699219,4.536193370819092,-0.6245267391204834
1761396912150442200,6.304442138671875,8.749356269836426,4.438685894012451,-0.722034215927124
1761396912169819100,6.323819091796875,8.903095245361328,4.400400638580322,-0.8632107973098755
1761396912189196000,6.343196044921875,8.742775917053223,4.466203689575195,-0.6981059908866882
1761396912208573000,6.362572998046875,8.696115493774414,4.514657974243164,-0.6508477330207825
1761396912227949800,6.38194970703125,8.711668968200684,4.479363918304443,-0.7627122402191162
1761396912247326700,6.40132666015625,8.556135177612305,4.456632137298584,-0.7674978375434875
1761396912266703600,6.42070361328125,8.580063819885254,4.454239368438721,-0.7663014531135559
1761396912286080500,6.44008056640625,8.74337387084961,4.462614059448242,-0.753140926361084
1761396912305457400,6.45945751953125,8.725427627563477,4.516452789306641,-0.6693921089172363
1761396912324834300,6.478834228515625,8.651249885559082,4.537389755249023,-0.6364908218383789
1761396912344211200,6.498211181640625,8.761918067932129,4.490131855010986,-0.7435696125030518
1761396912363588000,6.517588134765625,8.798408508300781,4.446462631225586,-0.9050851464271545
1761396912382965000,6.536965087890625,8.654839515686035,4.46560525894165,-0.9451649188995361
1761396912402342000,6.556341796875,8.645866394042969,4.500899314880371,-0.7543373107910156
1761396912421718800,6.57571875,8.651249885559082,4.5583271980285645,-0.5892325639724731
1761396912441095400,6.595095458984375,8.671588897705078,4.525425910949707,-0.6735795736312866
1761396912460472600,6.61447265625,8.763114929199219,4.488935470581055,-0.8602197170257568
1761396912479849500,6.633849365234375,8.81934642791748,4.439882278442383,-0.9026923179626465
1761396912499226000,6.65322607421875,8.758927345275879,4.442873477935791,-0.9146564602851868
1761396912518603300,6.672603271484375,8.760123252868652,4.46560525894165,-0.8817551732063293
1761396912537980000,6.69197998046875,8.70209789276123,4.498506546020508,-0.8057830333709717
1761396912557356800,6.711356689453125,8.605786323547363,4.549354076385498,-0.7471588850021362
1761396912576734000,6.73073388671875,8.599804878234863,4.506283283233643,-0.7202396392822266
1761396912596110600,6.750110595703125,8.568697929382324,4.5338006019592285,-0.8141579031944275
1761396912615487500,6.769487548828125,8.575876235961914,4.5338006019592285,-0.7537391185760498
1761396912634864400,6.788864501953125,8.766703605651855,4.502694129943848,-0.8147560954093933
1761396912654241300,6.8082412109375,8.819944381713867,4.4620161056518555,-0.8542376756668091
1761396912673618200,6.8276181640625,8.698508262634277,4.506881237030029,-0.7746763229370117
1761396912692995000,6.8469951171875,8.629117012023926,4.512863636016846,-0.7746763229370117
1761396912712372000,6.8663720703125,8.623732566833496,4.46979284286499,-0.9284151792526245
1761396912731748900,6.885748779296875,8.69791030883789,4.46560525894165,-1.0043872594833374
1761396912751125800,6.905125732421875,8.759525299072266,4.499104976654053,-0.8267202377319336
1761396912770502700,6.924502685546875,8.665607452392578,4.55055046081543,-0.6795616149902344
1761396912789879600,6.943879638671875,8.676374435424805,4.528416633605957,-0.7698906660079956
1761396912809256400,6.96325634765625,8.725427627563477,4.466801643371582,-0.9158528447151184
1761396912828633300,6.98263330078125,8.754141807556152,4.4380879402160645,-0.8769695162773132
1761396912848010200,7.00201025390625,8.69491958618164,4.48414945602417,-0.7878368496894836
1761396912867387100,7.02138720703125,8.662615776062012,4.515256404876709,-0.8578268885612488
1761396912886764000,7.040763916015625,8.577073097229004,4.548755645751953,-0.8871390223503113
1761396912906141000,7.060140869140625,8.58604621887207,4.508078098297119,-0.8261220455169678
1761396912925517800,7.079517822265625,8.730213165283203,4.469194412231445,-0.8267202377319336
1761396912944894700,7.098894775390625,8.848658561706543,4.464408874511719,-0.875174880027771
1761396912964271600,7.118271728515625,8.794819831848145,4.496711730957031,-0.8614161610603333
1761396912983648500,7.1376484375,8.68774127960205,4.4997029304504395,-0.8195417523384094
1761396913003025400,7.157025390625,8.548358917236328,4.53499698638916,-0.6783652305603027
1761396913022402300,7.17640234375,8.452047348022461,4.589433670043945,-0.5892325639724731
1761396913041779200,7.195779296875,8.4502534866333,4.60558557510376,-0.5838487148284912
1761396913061156000,7.215156005859375,8.678768157958984,4.439284324645996,-0.9379864931106567
1761396913080533000,7.234532958984375,9.019146919250488,4.353740692138672,-1.3058829307556152
1761396913099910000,7.253909912109375,9.231510162353516,4.217350006103516,-1.4991034269332886
1761396913119286800,7.273286865234375,9.110671997070312,4.296313285827637,-1.3028919696807861
1761396913138663700,7.29266357421875,8.851051330566406,4.439284324645996,-0.8632107973098755
1761396913158040600,7.31204052734375,8.383254051208496,4.584648132324219,-0.6149554252624512
1761396913177417500,7.33141748046875,8.001599311828613,4.673780918121338,-0.5850451588630676
1761396913196794400,7.35079443359375,8.229515075683594,4.645665168762207,-0.5796613097190857
1761396913216171300,7.370171142578125,8.885149002075195,4.5098724365234375,-0.7058826684951782
1761396913235548200,7.389548095703125,9.04845905303955,4.482953071594238,-0.9260223507881165
1761396913254925000,7.408925048828125,8.761320114135742,4.493122577667236,-1.038485050201416
1761396913274302000,7.428302001953125,8.659625053405762,4.473979949951172,-1.048654556274414
1761396913293678800,7.447678955078125,8.617152214050293,4.499104976654053,-1.1072787046432495
1761396913313055700,7.4670556640625,8.505288124084473,4.573282241821289,-0.9690931439399719
1761396913332432600,7.4864326171875,8.612964630126953,4.600799560546875,-0.8548358678817749
1761396913351809500,7.5058095703125,8.645268440246582,4.595416069030762,-0.9188438653945923
1761396913371186400,7.5251865234375,8.609973907470703,4.543970108032227,-0.9080761671066284
1761396913390563300,7.544563232421875,8.674580574035645,4.517649173736572,-0.7722834944725037
1761396913409940200,7.563940185546875,8.697312355041504,4.488935470581055,-0.7256234884262085
1761396913429317000,7.583317138671875,8.645866394042969,4.512863636016846,-0.8201399445533752
1761396913448694000,7.602694091796875,8.725427627563477,4.493122577667236,-0.9601200819015503
1761396913468071000,7.62207080078125,8.73918628692627,4.533202648162842,-0.9146564602851868
1761396913487447800,7.64144775390625,8.760722160339355,4.53200626373291,-0.8219345808029175
1761396913506824700,7.66082470703125,8.668000221252441,4.555934429168701,-0.849452018737793
1761396913526201600,7.68020166015625,8.590232849121094,4.561916351318359,-0.890728235244751
1761396913545578500,7.69957861328125,8.557332038879395,4.526023864746094,-0.8679963946342468
1761396913564955400,7.718955322265625,8.598010063171387,4.522434711456299,-0.8691928386688232
1761396913584332300,7.738332275390625,8.699705123901367,4.524827480316162,-0.8195417523384094
1761396913603709200,7.757709228515625,8.663812637329102,4.515256404876709,-0.8805587291717529
1761396913623086000,7.777086181640625,8.6303129196167,4.549952030181885,-0.9020941257476807
1761396913642463000,7.796462890625,8.70807933807373,4.5308098793029785,-0.8733802437782288
1761396913661840000,7.81583984375,8.772088050842285,4.5098724365234375,-0.9565308690071106
1761396913681216800,7.835216796875,8.612964630126953,4.560121536254883,-0.7998009920120239
1761396913700593700,7.85459375,8.541180610656738,4.555934429168701,-0.6903293132781982
1761396913719970600,7.873970458984375,8.551349639892578,4.504488468170166,-0.859621524810791
1761396913739347500,7.893347412109375,8.569295883178711,4.5236310958862305,-0.9678967595100403
1761396913758724400,7.912724365234375,8.572287559509277,4.5684967041015625,-0.8392825126647949
1761396913778101200,7.932101318359375,8.785846710205078,4.507479667663574,-0.8231309652328491
1761396913797478100,7.95147802734375,8.880363464355469,4.432703971862793,-0.9535398483276367
1761396913816855000,7.97085498046875,8.952746391296387,4.405784606933594,-1.0426725149154663
1761396913836232000,7.99023193359375,8.930013656616211,4.398606300354004,-1.007378339767456
1761396913855608800,8.00960888671875,8.708678245544434,4.456034183502197,-1.0019944906234741
1761396913874985700,8.02898583984375,8.519046783447266,4.512863636016846,-0.8799605369567871
1761396913894362600,8.048362548828125,8.549555778503418,4.532604217529297,-0.7668996453285217
1761396913913739500,8.067739501953126,8.62732219696045,4.557130813598633,-0.8380861282348633
1761396913933116400,8.087116455078124,8.657830238342285,4.5236310958862305,-0.9020941257476807
1761396913952493300,8.106493408203125,8.758927345275879,4.456034183502197,-0.8979067206382751
1761396913971870200,8.1258701171875,8.858827590942383,4.423132419586182,-0.9230313301086426
1761396913991247000,8.1452470703125,8.645866394042969,4.468596458435059,-0.8841479420661926
1761396914010624000,8.1646240234375,8.586644172668457,4.4410786628723145,-0.8584251403808594
1761396914030001000,8.1840009765625,8.63330364227295,4.446462631225586,-0.9236295223236084
1761396914049377800,8.203377685546876,8.617152214050293,4.514060020446777,-0.8961120843887329
1761396914068754700,8.222754638671875,8.718847274780273,4.500899314880371,-0.8446664214134216
1761396914088131600,8.242131591796875,8.812167167663574,4.427918434143066,-0.9966106414794922
1761396914107508500,8.261508544921876,8.7176513671875,4.405784606933594,-1.1353943347930908
1761396914126885400,8.280885498046874,8.647661209106445,4.460819721221924,-1.0426725149154663
1761396914146262300,8.30026220703125,8.722436904907227,4.503292083740234,-0.7435696125030518
1761396914165639200,8.31963916015625,8.748757362365723,4.54636287689209,-0.8709874153137207
1761396914185016000,8.33901611328125,8.626724243164062,4.508078098297119,-0.9367900490760803
1761396914204393000,8.35839306640625,8.678169250488281,4.517649173736572,-0.9056833982467651
1761396914223769900,8.377769775390625,8.673383712768555,4.533202648162842,-0.8973084688186646
1761396914243146800,8.397146728515626,8.580063819885254,4.497908592224121,-1.033101201057434
1761396914262523600,8.416523681640625,8.813364028930664,4.414159774780273,-1.1072787046432495
1761396914281900500,8.435900634765625,8.81396198272705,4.4614176750183105,-1.01814603805542
1761396914301277400,8.45527734375,8.541778564453125,4.491328239440918,-0.8955138921737671
1761396914320654300,8.474654296875,8.58784008026123,4.447659015655518,-1.0247262716293335
1761396914340031200,8.49403125,8.644071578979492,4.470390796661377,-0.914058268070221
1761396914359408000,8.513408203125,8.660223007202148,4.506881237030029,-0.7746763229370117
1761396914378785000,8.532784912109374,8.675776481628418,4.517649173736572,-0.7722834944725037
1761396914398162000,8.552161865234375,8.755337715148926,4.489533424377441,-0.890728235244751
1761396914417538800,8.571538818359375,8.714659690856934,4.4751763343811035,-0.9756734371185303
1761396914436915700,8.590915771484376,8.669196128845215,4.4512481689453125,-1.0259226560592651
1761396914456292600,8.610292724609375,8.69910717010498,4.463212490081787,-0.9828519225120544
1761396914475669500,8.62966943359375,8.685946464538574,4.4859442710876465,-0.9439685344696045
1761396914495046400,8.64904638671875,8.679964065551758,4.469194412231445,-1.0091729164123535
1761396914514423300,8.66842333984375,8.704490661621094,4.499104976654053,-0.9206385016441345
1761396914533800200,8.68780029296875,8.7236328125,4.511667251586914,-0.8123632669448853
1761396914553177000,8.707177001953125,8.656634330749512,4.512863636016846,-0.8721838593482971
1761396914572554000,8.726553955078124,8.648857116699219,4.453640937805176,-1.0163514614105225
1761396914591931000,8.745930908203125,8.753543853759766,4.423132419586182,-1.100698471069336
1761396914611307800,8.765307861328125,8.772088050842285,4.450051784515381,-0.9361918568611145
1761396914630684700,8.7846845703125,8.647063255310059,4.48414945602417,-0.8925228714942932
1761396914650061600,8.8040615234375,8.58903694152832,4.470989227294922,-0.9260223507881165
1761396914669438500,8.8234384765625,8.681758880615234,4.49252462387085,-0.836291491985321
1761396914688815400,8.8428154296875,8.781659126281738,4.4512481689453125,-0.8207381963729858
1761396914708192300,8.862192138671874,8.766105651855469,4.439284324645996,-0.9361918568611145
1761396914727569200,8.881569091796875,8.671588897705078,4.464408874511719,-0.9876375198364258
1761396914746946000,8.900946044921875,8.614161491394043,4.478765964508057,-0.9415757060050964
1761396914766323000,8.920322998046874,8.638090133666992,4.482953071594238,-0.9152546525001526
1761396914785699800,8.939699951171875,8.698508262634277,4.497310161590576,-0.885344386100769
1761396914805076700,8.95907666015625,8.762516975402832,4.4859442710876465,-0.8937192559242249
1761396914824453600,8.97845361328125,8.763712882995605,4.4512481689453125,-0.9756734371185303
1761396914843830500,8.99783056640625,8.754739761352539,4.438685894012451,-1.022931694984436
1761396914863207400,9.01720751953125,8.684749603271484,4.467998027801514,-0.9200403094291687
1761396914882584600,9.03658447265625,8.715856552124023,4.48115873336792,-0.9457631707191467
1761396914901961200,9.055961181640624,8.677571296691895,4.447659015655518,-0.9589236974716187
1761396914921338400,9.07533837890625,8.63330364227295,4.442873477935791,-0.9176474809646606
1761396914940715000,9.094715087890625,8.683553695678711,4.4584269523620605,-0.9176474809646606
1761396914960092200,9.114092041015626,8.595617294311523,4.485345840454102,-0.8249256014823914
1761396914979469000,9.133468994140625,8.617152214050293,4.460221290588379,-0.7902296781539917
1761396914998846000,9.152845947265625,8.745766639709473,4.460819721221924,-0.786640465259552
1761396915018222800,9.172222900390626,8.778668403625488,4.478765964508057,-0.5635097622871399
1761396915037599700,9.191599853515624,8.916853904724121,4.481756687164307,-0.6580262184143066
1761396915056976600,9.2109765625,8.803792953491211,4.43031120300293,-1.0911271572113037
1761396915076353500,9.230353515625,8.618349075317383,4.415356159210205,-1.2987045049667358
1761396915095730400,9.24973046875,8.702695846557617,4.385445594787598,-1.1389836072921753
1761396915115107300,9.269107421875,8.61176872253418,4.445266246795654,-1.0450652837753296
1761396915134484200,9.288484130859375,8.519046783447266,4.509274482727051,-1.0348957777023315
1761396915153861000,9.307861083984376,8.730213165283203,4.500301361083984,-0.9684949517250061
1761396915173238000,9.327238037109375,8.725427627563477,4.490729808807373,-0.9732806086540222
1761396915192615000,9.346614990234375,8.629117012023926,4.497908592224121,-0.9403793215751648
1761396915211991800,9.36599169921875,8.708678245544434,4.484747886657715,-0.9116654396057129
1761396915231368700,9.38536865234375,8.676374435424805,4.456034183502197,-0.8757730722427368
1761396915250745600,9.40474560546875,8.673981666564941,4.4344987869262695,-0.97926265001297
1761396915270122500,9.42412255859375,8.720044136047363,4.401597023010254,-0.9672985672950745
1761396915289499400,9.44349951171875,8.70508861541748,4.459024906158447,-0.8243274092674255
1761396915308876300,9.462876220703125,8.726624488830566,4.4614176750183105,-0.7848458290100098
1761396915328253200,9.482253173828125,8.71226692199707,4.448855400085449,-0.8949156403541565
1761396915347630000,9.501630126953126,8.622536659240723,4.460221290588379,-0.8584251403808594
1761396915367007000,9.521007080078125,8.6967134475708,4.439284324645996,-0.9284151792526245
1761396915386384000,9.5403837890625,8.770293235778809,4.418346881866455,-1.0109676122665405
1761396915405760800,9.5597607421875,8.789435386657715,4.433900356292725,-0.9942178130149841
1761396915425137700,9.5791376953125,8.781061172485352,4.435695171356201,-0.8991031050682068
1761396915444514600,9.5985146484375,8.74756145477295,4.41475772857666,-0.9768698215484619
1761396915463891500,9.617891357421875,8.666803359985352,4.4380879402160645,-0.9260223507881165
1761396915483268400,9.637268310546874,8.609973907470703,4.474578380584717,-0.8141579031944275
1761396915502645200,9.656645263671875,8.58484935760498,4.498506546020508,-0.8153542876243591
1761396915522022100,9.676022216796875,8.629714965820312,4.424927234649658,-0.9272187948226929
1761396915541399000,9.69539892578125,8.761320114135742,4.336392879486084,-1.1270195245742798
1761396915560776000,9.71477587890625,8.983254432678223,4.342973232269287,-1.074975609779358
1761396915580152800,9.73415283203125,8.944969177246094,4.426722049713135,-0.9128618240356445
1761396915599529700,9.75352978515625,8.669795036315918,4.491328239440918,-0.851844847202301
1761396915618906600,9.77290673828125,8.524430274963379,4.431507587432861,-0.9266205430030823
1761396915638283500,9.792283447265625,8.547162055969238,4.404588222503662,-0.97148597240448
1761396915657660400,9.811660400390625,8.673981666564941,4.442873477935791,-0.786640465259552
1761396915677037300,9.831037353515624,8.84506893157959,4.436891555786133,-0.875174880027771
1761396915696414200,9.850414306640625,8.809774398803711,4.403990268707275,-1.0444670915603638
1761396915715791000,9.869791015625,8.734400749206543,4.403990268707275,-0.9565308690071106
1761396915735168000,9.88916796875,8.70927619934082,4.408177375793457,-0.8721838593482971
1761396915754545200,9.908545166015625,8.57468032836914,4.424927234649658,-0.9631111025810242
1761396915773921800,9.927921875,8.60877799987793,4.4189453125,-0.9762716293334961
1761396915793299000,9.947298828125,8.773283958435059,4.422534465789795,-0.8099704384803772
1761396915812675600,9.966675537109374,8.868398666381836,4.41475772857666,-0.857228696346283
1761396915832052700,9.986052734375,8.84506893157959,4.37228536605835,-1.0085747241973877
1761396915851429600,10.0054296875,8.763114929199219,4.381258487701416,-0.9756734371185303
1761396915870806500,10.024806640625,8.664410591125488,4.4344987869262695,-0.8685946464538574
1761396915890183400,10.044183349609375,8.591429710388184,4.385445594787598,-0.9212366938591003
1761396915909560300,10.063560302734375,8.715856552124023,4.355535507202148,-1.1066805124282837
1761396915928937200,10.082937255859376,8.73320484161377,4.408775806427002,-0.9984052777290344
1761396915948314000,10.102314208984374,8.770891189575195,4.4512481689453125,-0.849452018737793
1761396915967691000,10.12169091796875,8.779266357421875,4.430909156799316,-0.8602197170257568
1761396915987068000,10.14106787109375,8.677571296691895,4.432105541229248,-0.8566305041313171
1761396916006444800,10.16044482421875,8.647063255310059,4.391427993774414,-0.9379864931106567
1761396916025821700,10.17982177734375,8.83250617980957,4.316651821136475,-1.155135154724121
1761396916045198600,10.199198486328125,9.009575843811035,4.328616142272949,-1.0875378847122192
1761396916064575500,10.218575439453126,8.771489143371582,4.408177375793457,-0.851844847202301
1761396916083952400,10.237952392578125,8.6033935546875,4.388436794281006,-0.9996016621589661
1761396916103329300,10.257329345703125,8.60040283203125,4.371686935424805,-1.0049854516983032
1761396916122706200,10.2767060546875,8.640482902526855,4.381856441497803,-0.8488538265228271
1761396916142083000,10.2960830078125,8.566305160522461,4.43031120300293,-0.7663014531135559
1761396916161460000,10.3154599609375,8.661419868469238,4.344169616699219,-0.98703932762146
1761396916180836900,10.3348369140625,8.929415702819824,4.273581027984619,-0.9487541913986206
1761396916200213800,10.3542138671875,9.083154678344727,4.180261135101318,-0.7088736891746521
1761396916219590700,10.373590576171875,9.015557289123535,3.899702787399292,-0.5437689423561096
1761396916238967600,10.392967529296875,9.46899700164795,4.222733974456787,-0.6837490797042847
1761396916258344400,10.412344482421876,9.074779510498047,4.810770034790039,-1.0037890672683716
1761396916277708000,10.4317080078125,8.177471160888672,5.0811591148376465,-2.420340061187744
1761396916316475100,10.47047509765625,8.083553314208984,4.447061061859131,-1.3668999671936035
1761396916335838700,10.489838623046875,8.334799766540527,4.393820762634277,-0.5676971673965454
1761396916355229200,10.509229248046875,8.698508262634277,4.468596458435059,-0.7339983582496643
1761396916374606000,10.528606201171876,8.69910717010498,4.831707000732422,-0.7016952633857727
1761396916393983000,10.54798291015625,8.431708335876465,4.531407833099365,-0.43489551544189453
1761396916413359900,10.56735986328125,8.368298530578613,4.541577339172363,-0.7495517134666443
1761396916432736800,10.58673681640625,8.619544982910156,4.374079704284668,-1.0510473251342773
1761396916452113700,10.60611376953125,9.078369140625,4.303491592407227,-1.2837493419647217
1761396916471490600,10.625490478515625,9.280562400817871,4.302893161773682,-1.0319048166275024
1761396916490867500,10.644867431640625,9.284152030944824,4.756931304931641,-1.7156537771224976
1761396916510230800,10.664230712890625,9.069396018981934,4.240081787109375,-1.1820544004440308
1761396916529621200,10.683621337890624,9.248857498168945,3.4199416637420654,-0.07776673883199692
1761396916548998100,10.702998046875,8.276175498962402,5.123033046722412,-1.5535401105880737
1761396916568375000,10.722375,8.371888160705566,4.601995944976807,-1.1210373640060425
1761396916587752000,10.741751953125,8.421539306640625,4.7712883949279785,-1.1282159090042114
1761396916607128800,10.76112890625,7.947760581970215,4.428516387939453,-0.005383851006627083
1761396916626505700,10.780505615234375,8.358129501342773,4.895116806030273,-0.6861419081687927
