time,seconds_elapsed,z,y,x
1761299309739543600,0.06354345703125,0.09377389401197433,0.31156376004219055,0.1361149549484253
1761299309759667700,0.083667724609375,0.12316960096359253,0.16194576025009155,0.11770372837781906
1761299309779790300,0.103790283203125,0.05931685119867325,0.024329042062163353,0.08216730505228043
1761299309799913500,0.12391357421875,-0.012655607424676418,-0.013990916311740875,-0.032165925949811935
1761299309820037600,0.14403759765625,-0.030011428520083427,-0.039498139172792435,-0.21012207865715027
1761299309840160500,0.164160400390625,0.013245231471955776,-0.09270703047513962,-0.2944529354572296
1761299309860283600,0.18428369140625,0.05567604675889015,-0.09028355777263641,-0.2143823355436325
1761299309880407600,0.204407470703125,0.061539262533187866,-0.06432972103357315,-0.11196994036436081
1761299309900530700,0.22453076171875,0.05350237339735031,-0.03277738764882088,-0.06271451711654663
1761299309920653600,0.244653564453125,0.05853148549795151,-0.050821635872125626,0.005123921670019627
1761299309940777500,0.264777587890625,0.11379873752593994,-0.023739418014883995,0.1757688969373703
1761299309960900600,0.284900634765625,0.18705376982688904,0.10842368006706238,0.3555322587490082
1761299309981023500,0.3050234375,0.22716444730758667,0.36016616225242615,0.3639955222606659
1761299310001147400,0.3251474609375,0.2653648257255554,0.5255418419837952,0.22331351041793823
1761299310021270500,0.3452705078125,0.2714677155017853,0.4302632212638855,0.0455927848815918
1761299310041393400,0.365393310546875,0.24577593803405762,0.19448453187942505,-0.03314463794231415
1761299310061517600,0.385517578125,0.1952027827501297,0.042211901396512985,-0.07142704725265503
1761299310081640400,0.405640380859375,0.17347830533981323,-0.004680505488067865,-0.09943124651908875
1761299310101764400,0.425764404296875,0.13527552783489227,0.031307321041822433,-0.12207983434200287
1761299310121887500,0.445887451171875,0.14846137166023254,0.05543822422623634,-0.15692196786403656
1761299310142010400,0.46601025390625,0.1905244141817093,-0.030483340844511986,-0.19358624517917633
1761299310162134500,0.486134521484375,0.1811133325099945,-0.12974947690963745,-0.1869238168001175
1761299310182257400,0.50625732421875,0.15564125776290894,-0.16433541476726532,-0.1251501888036728
1761299310202380500,0.526380615234375,0.1339964121580124,-0.06214885786175728,-0.03634682297706604
1761299310222505000,0.5465048828125,0.11119336634874344,0.11249352246522903,0.05337214469909668
1761299310242627800,0.5666279296875,0.0971667617559433,0.2571934461593628,0.11087964475154877
1761299310262751000,0.5867509765625,0.043176498264074326,0.3149283826351166,0.1011820137500763
1761299310282875000,0.606875,-0.008116249926388264,0.22646749019622803,0.054966580122709274
1761299310302997800,0.626997802734375,-0.01780376397073269,0.2131974995136261,0.017828265205025673
1761299310323121000,0.647120849609375,-0.03459792584180832,0.21559007465839386,-0.046191196888685226
1761299310343245000,0.6672451171875,-0.010846256278455257,0.15638534724712372,-0.15851640701293945
1761299310363368000,0.687367919921875,0.018130533397197723,-0.019689548760652542,-0.2669326364994049
1761299310383491000,0.707490966796875,0.0220312662422657,-0.18147258460521698,-0.31472066044807434
1761299310403615000,0.727614990234375,0.013010873459279537,-0.2652615010738373,-0.29801279306411743
1761299310423738000,0.747738037109375,0.013404488563537598,-0.15076634287834167,-0.21443507075309753
1761299310443862000,0.767862060546875,0.03271373733878136,-0.024261662736535072,-0.13105842471122742
1761299310463985000,0.78798486328125,0.07962292432785034,0.01769936829805374,-0.04223427176475525
1761299310484108000,0.80810791015625,0.11840467154979706,0.08435402810573578,0.049381665885448456
1761299310504232000,0.82823193359375,0.09944775700569153,0.13190290331840515,0.16515913605690002
1761299310524354800,0.848354736328125,0.071363665163517,0.17684774100780487,0.26528093218803406
1761299310544478000,0.86847802734375,0.03050464577972889,0.22375479340553284,0.261176735162735
1761299310564601900,0.888601806640625,-0.0034642398823052645,0.18653206527233124,0.14902037382125854
1761299310584725000,0.90872509765625,-0.007638745009899139,0.05365390703082085,0.03299123793840408
1761299310604847900,0.928847900390625,0.024927720427513123,-0.07715150713920593,0.0026911243330687284
1761299310624971800,0.9489716796875,0.02954750508069992,-0.10487768054008484,0.02731178142130375
1761299310645095000,0.969094970703125,-0.017469005659222603,-0.03720302879810333,0.018004566431045532
1761299310665217800,0.9892177734375,-0.03339257836341858,-0.024446487426757812,-0.03605999797582626
1761299310685342000,1.009342041015625,-0.054618239402770996,-0.02869902178645134,-0.07074394077062607
1761299310705464800,1.02946484375,-0.08315054327249527,0.011807125061750412,-0.07525267452001572
1761299310725588000,1.049587890625,-0.1285923272371292,0.04572727531194687,-0.05680495873093605
1761299310745712000,1.069712158203125,-0.15417784452438354,0.02672082744538784,-0.020417390391230583
1761299310765835000,1.0898349609375,-0.1308344453573227,0.04821333661675453,0.0157731045037508
1761299310785958100,1.109958251953125,-0.10828093439340591,0.09131952375173569,0.032285500317811966
1761299310806082000,1.13008203125,-0.12854892015457153,0.11858363449573517,0.01595366559922695
1761299310826205000,1.150204833984375,-0.13922126591205597,0.12173788249492645,-0.009465406648814678
1761299310846329000,1.1703291015625,-0.13614265620708466,0.17490443587303162,0.017225325107574463
1761299310866452000,1.190451904296875,-0.13108398020267487,0.1786821335554123,0.05992218852043152
1761299310886575000,1.2105751953125,-0.10255726426839828,0.1796552538871765,0.057614028453826904
1761299310906699000,1.230698974609375,-0.05811789631843567,0.07280949503183365,0.0014658038271591067
1761299310926822000,1.25082177734375,-0.017964087426662445,-0.11924010515213013,-0.03761608526110649
1761299310946945000,1.270945068359375,-0.0426127091050148,-0.20051632821559906,-0.015210644342005253
1761299310967069000,1.29106884765625,-0.10660713911056519,-0.16158117353916168,0.0329587496817112
1761299310987191800,1.31119189453125,-0.13197028636932373,-0.08273322880268097,0.061698250472545624
1761299311007315000,1.33131494140625,-0.13119183480739594,-0.08389303833246231,0.0875849723815918
1761299311027438800,1.35143896484375,-0.13100914657115936,-0.0192506592720747,0.09164176881313324
1761299311047562000,1.37156201171875,-0.14223170280456543,0.03744670748710632,0.06149372085928917
1761299311067684900,1.391684814453125,-0.116287462413311,0.02593945525586605,0.04366891831159592
1761299311087808800,1.411808837890625,-0.11964543908834457,-0.031381625682115555,0.07179376482963562
1761299311107932000,1.431931884765625,-0.18579542636871338,0.0006356965750455856,0.0851210206747055
1761299311128054800,1.4520546875,-0.2333320528268814,0.04651583731174469,0.03358778730034828
1761299311148179000,1.472178955078125,-0.24555703997612,0.0506216324865818,-0.036387037485837936
1761299311168301800,1.4923017578125,-0.20507219433784485,0.014584269374608994,-0.0668429434299469
1761299311188426000,1.512426025390625,-0.1335892230272293,-0.04158872365951538,-0.059539224952459335
1761299311208548900,1.532548828125,-0.07957924902439117,-0.09195069223642349,-0.02263101004064083
1761299311228671700,1.552671630859375,-0.08720014989376068,-0.0757400318980217,0.008955411612987518
1761299311248796000,1.5727958984375,-0.08955704420804977,-0.052504751831293106,0.012879579328000546
1761299311268919000,1.5929189453125,-0.05952458083629608,-0.08133640140295029,0.006984672509133816
1761299311289042000,1.6130419921875,-0.03123142197728157,-0.02009381726384163,0.004699147772043943
1761299311309166000,1.633166015625,-0.036798760294914246,0.06459710001945496,0.033067405223846436
1761299311329289000,1.6532890625,-0.055270712822675705,0.07751183211803436,0.06600431352853775
1761299311349411800,1.673411865234375,-0.05608883500099182,0.016988039016723633,0.03662911802530289
1761299311369536000,1.693535888671875,-0.06394409388303757,-0.02586275525391102,-0.04433790221810341
1761299311389659000,1.713658935546875,-0.11096753180027008,-0.06760993599891663,-0.11382536590099335
1761299311409782000,1.733781982421875,-0.10843992233276367,-0.09108863025903702,-0.13987401127815247
1761299311429906000,1.753906005859375,-0.07252639532089233,-0.029017535969614983,-0.1485109180212021
1761299311450028800,1.77402880859375,-0.053344447165727615,0.02895202301442623,-0.16079473495483398
1761299311470152000,1.79415185546875,-0.02497512474656105,-0.04964878037571907,-0.15954464673995972
1761299311490275800,1.81427587890625,-0.00210682675242424,-0.13115961849689484,-0.11626775562763214
1761299311510399000,1.83439892578125,-0.0005004079430364072,-0.07802475988864899,-0.06803817301988602
1761299311530521900,1.85452197265625,-0.001329982653260231,0.022046713158488274,-0.04753289744257927
1761299311550645800,1.874645751953125,0.0016117451013997197,0.03413453325629234,-0.04041719809174538
1761299311570769000,1.894768798828125,-0.014727546833455563,0.006685866042971611,-0.017617875710129738
1761299311590892800,1.914892822265625,-0.02371598221361637,0.005392901133745909,0.022183066233992577
1761299311611015700,1.935015625,-0.012574913911521435,0.015107314102351665,0.06119251623749733
1761299311631138800,1.955138916015625,-0.014577344991266727,0.07928044348955154,0.058632154017686844
1761299311651263000,1.975262939453125,-0.04211416468024254,0.12142922729253769,0.04356265813112259
1761299311671386000,1.99538623046875,-0.06966989487409592,0.1458813101053238,0.041433461010456085
1761299311691509000,2.015509033203125,-0.06353982537984848,0.0859532579779625,0.02774135023355484
1761299311711633000,2.0356328125,-0.03500805050134659,0.0185284111648798,-0.021585986018180847
1761299311731756000,2.055756103515625,0.002895122393965721,-0.08701638877391815,-0.08256198465824127
1761299311751879000,2.07587890625,0.036554813385009766,-0.14045964181423187,-0.1016659066081047
1761299311772002800,2.0960029296875,0.05199555680155754,-0.112730011343956,-0.0629856213927269
1761299311792126000,2.1161259765625,0.05300143361091614,-0.028543494641780853,-0.05226932838559151
1761299311812248800,2.136248779296875,0.05633730813860893,-0.010461429134011269,-0.08436521142721176
1761299311832373000,2.156373046875,0.05315669625997543,-0.03881104663014412,-0.08391247689723969
1761299311852496000,2.176495849609375,0.053099703043699265,-0.02641988918185234,-0.011775166727602482
1761299311872619000,2.196618896484375,0.05198836699128151,0.026627881452441216,0.05512796714901924
1761299311892743000,2.216742919921875,0.06745147705078125,0.06174512207508087,0.06944219022989273
1761299311912865800,2.23686572265625,0.07550088316202164,0.11622408032417297,0.05185973644256592
1761299311932989000,2.256989013671875,0.07239031046628952,0.13364781439304352,0.031504929065704346
1761299311953112800,2.27711279296875,0.06264180690050125,0.08603262156248093,0.017976604402065277
1761299311973236000,2.297236083984375,0.058026283979415894,0.0014689996605738997,-0.018024008721113205
1761299311993360000,2.31735986328125,0.04473045468330383,-0.0602383054792881,-0.07547292113304138
1761299312013482800,2.337482666015625,0.044441498816013336,-0.06889331340789795,-0.11004287749528885
1761299312033606000,2.35760595703125,0.05778580158948898,-0.026547187939286232,-0.0860254317522049
1761299312053730000,2.37772998046875,0.07842210680246353,-0.006511961575597525,-0.03429032862186432
1761299312073852700,2.397852783203125,0.1090623065829277,-0.05417322367429733,-0.013964551500976086
1761299312093975800,2.417975830078125,0.10333731025457382,-0.08334895223379135,-0.037285853177309036
1761299312114100000,2.438099853515625,0.12671028077602386,-0.11246982216835022,-0.03226526081562042
1761299312134223000,2.45822314453125,0.11161947250366211,-0.16163629293441772,0.02883218042552471
1761299312154346000,2.478345947265625,0.07046910375356674,-0.037879470735788345,0.11074169725179672
1761299312174470000,2.498469970703125,0.008694421499967575,0.1858052909374237,0.1392284631729126
1761299312194593000,2.518593017578125,-0.008192149922251701,0.23246333003044128,0.12431236356496811
1761299312214716000,2.5387158203125,0.003709516953676939,0.11289379745721817,0.09098263829946518
1761299312234839800,2.55883984375,0.01817314513027668,0.000716922979336232,0.05819353088736534
1761299312254963000,2.578962890625,0.0006061354652047157,-0.008224906399846077,0.0028330706991255283
1761299312275085800,2.5990859375,-0.004384362138807774,0.02303767390549183,-0.047749679535627365
1761299312295210200,2.619210205078125,0.04098285362124443,-0.005656553898006678,-0.07690437138080597
1761299312315333000,2.6393330078125,0.06908213347196579,-0.054795339703559875,-0.08240272849798203
1761299312335457000,2.65945703125,0.056407615542411804,-0.0981297641992569,-0.07750491052865982
1761299312355580200,2.679580078125,0.036002740263938904,-0.1137864887714386,-0.05675249546766281
1761299312375703000,2.699703125,0.00863290298730135,-0.01979714073240757,-0.03882009908556938
1761299312395827000,2.719826904296875,-0.0013725932221859694,0.07628758251667023,-0.016532104462385178
1761299312415950000,2.7399501953125,0.005019259639084339,0.1036883145570755,0.01239195466041565
1761299312436073000,2.760072998046875,0.0006474144756793976,0.06343862414360046,0.016116652637720108
1761299312456197000,2.780197021484375,0.014319551177322865,0.021498633548617363,-0.01372087188065052
1761299312476320000,2.800320068359375,0.02431332878768444,-0.052556417882442474,-0.03253770247101784
1761299312496443100,2.820443115234375,0.025538649410009384,-0.03292359411716461,-0.018429873511195183
1761299312516567000,2.840567138671875,0.023325029760599136,-0.014737666584551334,-0.006419283337891102
1761299312536690000,2.86068994140625,0.017946243286132812,0.013393037021160126,-0.03542590141296387
1761299312556813000,2.88081298828125,0.014764831401407719,-0.007193464320152998,-0.07268192619085312
1761299312576937000,2.90093701171875,0.014463361352682114,-0.049908969551324844,-0.05596206709742546
1761299312597059800,2.921059814453125,0.02954723872244358,-0.06156402826309204,-0.0028823392931371927
1761299312617183000,2.941182861328125,0.030295055359601974,-0.03623097389936447,0.03536438196897507
1761299312637307000,2.961306884765625,0.00580835435539484,0.0035241609439253807,0.024119718000292778
1761299312657430000,2.981429931640625,-0.00037230990710668266,0.012970659881830215,-0.00034594463068060577
1761299312677554200,3.00155419921875,0.008141815662384033,0.008609999902546406,0.03328045830130577
1761299312697677000,3.021677001953125,-0.005167597904801369,0.006872287020087242,0.09434141218662262
1761299312717800000,3.041800048828125,-0.020265057682991028,0.040588438510894775,0.10313517600297928
1761299312737924000,3.061924072265625,-0.02563692070543766,0.09292248636484146,0.045638058334589005
1761299312758047000,3.082046875,-0.025655029341578484,0.11438143998384476,-0.007902664132416248
1761299312778170000,3.102170166015625,-0.025667546316981316,0.04592940956354141,-0.03219309076666832
1761299312798294000,3.1222939453125,-0.013190103694796562,-0.06312836706638336,-0.05146745219826698
1761299312818417200,3.142417236328125,0.004470914602279663,-0.12844586372375488,-0.10396821051836014
1761299312838540000,3.1625400390625,0.013469736091792583,-0.11910615116357803,-0.1264229118824005
1761299312858664000,3.182663818359375,0.000520647969096899,-0.04691184684634209,-0.10033885389566422
1761299312878787000,3.202787109375,0.005377987399697304,0.008567655459046364,-0.04604472219944
1761299312898910000,3.222909912109375,0.014707573689520359,0.013981861993670464,-0.003154514357447624
1761299312919034000,3.2430341796875,0.012339490465819836,-0.001588575541973114,0.03055870719254017
1761299312939157000,3.263156982421875,-0.0008724515791982412,0.004245345015078783,0.043835364282131195
1761299312959280000,3.283280029296875,-0.004246144089847803,0.04147713631391525,0.06276245415210724
1761299312979404000,3.303404052734375,-0.024350613355636597,0.08867660909891129,0.07964342832565308
1761299312999527000,3.32352685546875,-0.04187474399805069,0.11169297248125076,0.08343097567558289
1761299313019650800,3.34365087890625,-0.053536463528871536,0.09248439222574234,0.06719235330820084
1761299313039774000,3.36377392578125,-0.017063405364751816,0.03328205645084381,0.048111069947481155
1761299313059896800,3.383896728515625,-0.010329336859285831,0.011406052857637405,0.02840767242014408
1761299313080021000,3.40402099609375,-0.0462987907230854,0.0020514330826699734,-0.025054486468434334
1761299313100143900,3.424143798828125,-0.055980976670980453,-0.06294700503349304,-0.08244214206933975
1761299313120267000,3.44426708984375,-0.03141092136502266,-0.05668644979596138,-0.12187077850103378
1761299313140391200,3.46439111328125,-0.002685797866433859,-0.03874686360359192,-0.12108328193426132
1761299313160514000,3.48451416015625,0.010595918633043766,-0.10637730360031128,-0.05549788102507591
1761299313180637200,3.50463720703125,0.005231513641774654,-0.10843220353126526,0.020746557042002678
1761299313200761000,3.524760986328125,-0.026802586391568184,0.006825681775808334,0.027651600539684296
1761299313220884000,3.544884033203125,-0.04540662840008736,0.07806337624788284,0.01221458800137043
1761299313241007000,3.565007080078125,-0.06952368468046188,0.06975750625133514,0.0258686151355505
1761299313261131000,3.585131103515625,-0.09200102835893631,0.06792605668306351,0.07207126170396805
1761299313281254100,3.605254150390625,-0.11755059659481049,0.11748215556144714,0.12833240628242493
1761299313301377000,3.625376953125,-0.1318509727716446,0.18378448486328125,0.15005367994308472
1761299313321501000,3.6455009765625,-0.1458546668291092,0.1798347383737564,0.1512390524148941
1761299313341624000,3.6656240234375,-0.14338485896587372,0.1193636804819107,0.13040967285633087
1761299313361747000,3.685746826171875,-0.16509148478507996,0.06589166820049286,0.05414845794439316
1761299313381871000,3.70587109375,-0.16748486459255219,-0.023449134081602097,-0.04531821236014366
1761299313401994000,3.725993896484375,-0.14827574789524078,-0.0821571871638298,-0.11237501353025436
1761299313422118000,3.746117919921875,-0.11462138593196869,-0.10314076393842697,-0.08404776453971863
1761299313442241000,3.766240966796875,-0.06749328970909119,-0.03452308848500252,-0.0222640261054039
1761299313462364000,3.786364013671875,-0.07112797349691391,0.010806840844452381,-0.028856948018074036
1761299313482488000,3.806488037109375,-0.08674288541078568,-0.026144253090023994,-0.07646441459655762
1761299313502611200,3.826611083984375,-0.08202829211950302,-0.045641519129276276,-0.06692364066839218
1761299313522734000,3.846734130859375,-0.08366240561008453,0.010160758160054684,0.0017512947088107467
1761299313542858200,3.866858154296875,-0.10017533600330353,0.06527381390333176,0.06843897700309753
1761299313562981000,3.886981201171875,-0.1314230114221573,0.057679805904626846,0.0696784108877182
1761299313583104300,3.907104248046875,-0.15032878518104553,0.033601902425289154,0.007938084192574024
1761299313603228200,3.927228271484375,-0.1532558649778366,0.03530286252498627,-0.03796815499663353
1761299313623351000,3.94735107421875,-0.1527796983718872,0.041367679834365845,-0.07135727256536484
1761299313643474200,3.96747412109375,-0.13315565884113312,-0.006643521599471569,-0.08805608749389648
1761299313663598000,3.98759814453125,-0.10203102976083755,-0.08407919108867645,-0.060560815036296844
1761299313683719200,4.00771923828125,-0.08000215888023376,-0.1080324575304985,-0.022359900176525116
1761299313703842000,4.027842041015625,-0.053584665060043335,-0.04809455946087837,-0.014898521825671196
1761299313723966200,4.04796630859375,-0.020009128376841545,0.011285411193966866,0.004743888974189758
1761299313744089000,4.068089111328125,-0.0057220677845180035,0.06852766126394272,0.07916432619094849
1761299313764212200,4.088212158203125,-0.02184617705643177,0.08357984572649002,0.12756115198135376
1761299313784336100,4.108336181640625,-0.04158765822649002,0.029268672689795494,0.11087538301944733
1761299313804459000,4.128458984375,-0.03723525255918503,0.003793140407651663,0.06949785351753235
1761299313824583200,4.148583251953125,-0.006192914675921202,0.036919932812452316,0.0698816105723381
1761299313844706000,4.1687060546875,-0.01655128039419651,0.07440818846225739,0.07111785560846329
1761299313864829200,4.1888291015625,-0.04755633324384689,0.06300852447748184,0.017787786200642586
1761299313884953000,4.208953125,-0.05963483452796936,-0.006626743823289871,-0.049066346138715744
1761299313905076000,4.229075927734375,-0.03002128191292286,-0.0738593116402626,-0.07529901713132858
1761299313925199000,4.24919921875,0.021570805460214615,-0.07440392673015594,-0.06599899381399155
1761299313945323000,4.269322998046875,0.02749580703675747,-0.0368722639977932,-0.06346152722835541
1761299313965446000,4.28944580078125,0.011681423522531986,-0.02028662897646427,-0.07385744899511337
1761299313985569000,4.309569091796875,0.016747821122407913,-0.017186976969242096,-0.06177628040313721
1761299314005693000,4.32969287109375,0.026999659836292267,-0.01164413895457983,0.0032890038564801216
1761299314025816000,4.349816162109375,0.018257834017276764,0.030885478481650352,0.055515188723802567
1761299314045939000,4.36993896484375,0.009408681653439999,0.08775488287210464,0.061410896480083466
1761299314066063000,4.39006298828125,0.009351423941552639,0.0912012830376625,0.08174892514944077
1761299314086186200,4.410186279296875,0.009385778568685055,0.08646591752767563,0.11001837998628616
1761299314106309000,4.43030908203125,-0.002132925670593977,0.06755773723125458,0.08816128224134445
1761299314126433000,4.45043310546875,0.0019835224375128746,0.006419549696147442,0.013095562346279621
1761299314146556200,4.47055615234375,0.010244115255773067,-0.04655924439430237,-0.06018877029418945
1761299314166680000,4.49068017578125,0.023242738097906113,-0.041181523352861404,-0.09500081092119217
1761299314186803200,4.51080322265625,0.027093136683106422,-0.0466519258916378,-0.0779094472527504
1761299314206926000,4.530926025390625,0.04785274341702461,-0.0795169323682785,-0.03313771262764931
1761299314227049500,4.551049560546875,0.06277656555175781,-0.039624109864234924,0.003938548732548952
1761299314247172400,4.57117236328125,0.04146967828273773,0.064555823802948,-0.0075729647651314735
1761299314267295500,4.59129541015625,0.033660490065813065,0.07684045284986496,-0.003913781605660915
1761299314287419400,4.61141943359375,0.044985584914684296,0.046842072159051895,0.05940420553088188
1761299314307542300,4.631542236328125,0.06341199576854706,0.016592558473348618,0.11437717825174332
1761299314327665400,4.65166552734375,0.04789935052394867,-0.007430219557136297,0.09040020406246185
1761299314347789600,4.67178955078125,0.031569644808769226,-0.0016141419764608145,-0.0046719834208488464
1761299314367912400,4.691912353515625,0.035541750490665436,0.004487426485866308,-0.04387131705880165
1761299314388035600,4.71203564453125,0.02034601755440235,0.04789748415350914,-0.03627944365143776
1761299314408159500,4.732159423828125,0.011446266435086727,0.06385088711977005,-0.021559620276093483
1761299314428282600,4.75228271484375,0.03834206238389015,-0.024165790528059006,-0.024213461205363274
1761299314448406500,4.772406494140625,0.07077430188655853,-0.07146938890218735,-0.04189392179250717
1761299314468529400,4.792529296875,0.07006217539310455,-0.04950869828462601,-0.08350075036287308
1761299314488652500,4.812652587890625,0.05915892869234085,-0.019355854019522667,-0.10335434973239899
1761299314508776400,4.8327763671875,0.059548549354076385,0.03337952867150307,-0.0671505406498909
1761299314528899300,4.8528994140625,0.059237491339445114,0.08455616235733032,-0.0030597057193517685
1761299314549022500,4.8730224609375,0.0499475859105587,0.07782529294490814,0.030405309051275253
1761299314569146400,4.893146484375,0.02370905689895153,0.050748664885759354,-0.003481017891317606
1761299314589269500,4.91326953125,0.0007126618875190616,0.1308557540178299,-0.10683377087116241
1761299314609392400,4.933392333984375,0.006297843065112829,0.13204725086688995,-0.20517365634441376
1761299314629516300,4.953516357421875,0.02111620455980301,0.05218277871608734,-0.18668146431446075
1761299314649639400,4.973639404296875,0.004058923572301865,-0.02195829525589943,-0.08277077972888947
1761299314669762300,4.99376220703125,-0.014700649306178093,-0.00686030276119709,-0.04158712550997734
1761299314689886200,5.01388623046875,-0.029806630685925484,-0.02544836886227131,-0.1111382395029068
1761299314710009300,5.03400927734375,-0.0006122607155703008,-0.04916834458708763,-0.13856959342956543
1761299314730132200,5.05413232421875,0.025312812998890877,-0.052315935492515564,-0.04800347983837128
1761299314750256600,5.074256591796875,0.053952980786561966,0.007769505959004164,0.04181402549147606
1761299314770379500,5.094379638671875,0.05999382957816124,0.029350431635975838,0.07138043642044067
1761299314790503400,5.11450341796875,0.04771532490849495,-0.022721823304891586,0.08791440725326538
1761299314810626600,5.13462646484375,0.030972296372056007,-0.03056696429848671,0.0956982970237732
1761299314830749400,5.15474951171875,0.028509672731161118,0.030123813077807426,0.0560600720345974
1761299314850873300,5.174873291015625,0.02604997716844082,0.06101115420460701,-0.011943478137254715
1761299314870996500,5.19499658203125,0.024380706250667572,-0.005403287708759308,-0.040043022483587265
1761299314891119400,5.215119384765625,0.021754564717411995,-0.07609769701957703,0.015602661296725273
1761299314911243500,5.235243408203125,0.0034618431236594915,-0.06376273185014725,0.07307873666286469
1761299314931366400,5.255366455078125,-0.007355650886893272,-0.013888917863368988,0.018332401290535927
1761299314951489500,5.275489501953125,0.022493857890367508,-0.017554225400090218,-0.08075156807899475
1761299314971613400,5.295613525390625,0.025556491687893867,-0.03224635496735573,-0.09109955281019211
1761299314991736300,5.315736328125,0.013100622221827507,-0.008049404248595238,-0.02196522057056427
1761299315011859500,5.335859375,0.021879998967051506,-0.05281634256243706,0.036489833146333694
1761299315031983400,5.3559833984375,0.0279109925031662,-0.06018637493252754,0.0247905682772398
1761299315052106500,5.3761064453125,0.008333563804626465,0.009898969903588295,-0.02009088732302189
1761299315072229400,5.3962294921875,-0.010609234683215618,0.06127294525504112,-0.026456374675035477
1761299315092353300,5.416353271484375,-0.006055229343473911,0.07107523828744888,0.02558019384741783
1761299315112476400,5.436476318359375,0.005960953421890736,0.020243486389517784,0.08362032473087311
1761299315132600600,5.4566005859375,0.016092950478196144,-0.0015030881622806191,0.0868520736694336
1761299315152723500,5.476723388671875,0.007752728182822466,0.0412270650267601,0.03829119727015495
1761299315172846300,5.496846435546875,-0.00014141385327093303,0.08892374485731125,-0.013628460466861725
1761299315192970500,5.516970458984375,0.0038517299108207226,0.10371973365545273,-0.009167399257421494
1761299315213094000,5.537093994140625,0.02052258513867855,0.04854916036128998,0.03623417019844055
1761299315233217000,5.557217041015625,0.036680251359939575,-0.03875911235809326,0.024274712428450584
1761299315253341000,5.5773408203125,0.0464058481156826,-0.0740467980504036,-0.05577671155333519
1761299315273464000,5.597464111328125,0.050085537135601044,-0.055398277938365936,-0.09669618308544159
1761299315293587000,5.6175869140625,0.0439235158264637,0.005666940473020077,-0.031247934326529503
1761299315313711000,5.637711181640625,0.04011546075344086,0.04548359662294388,0.04635045304894447
1761299315333834200,5.657834228515625,0.04253840446472168,0.06312410533428192,0.05121178925037384
1761299315353957000,5.67795703125,0.013177054934203625,0.05302939563989639,0.02040913514792919
1761299315374081000,5.6980810546875,-0.009395365603268147,0.03633137419819832,0.01327159721404314
1761299315394204200,5.7182041015625,0.0003259709046687931,0.011871573515236378,0.042870502918958664
1761299315414328000,5.738328125,-0.002817358123138547,-0.0120662497356534,0.05120859295129776
1761299315434451200,5.758451171875,-0.026095250621438026,-0.018002435564994812,-0.003605653764680028
1761299315454574000,5.778573974609375,-0.030826356261968613,0.029763488098978996,-0.07629556953907013
1761299315474698000,5.798697998046875,-0.032283902168273926,0.00686190091073513,-0.052920207381248474
1761299315494821000,5.818821044921875,-0.028121383860707283,0.005363872740417719,0.02376445196568966
1761299315514944000,5.838944091796875,-0.0032887374982237816,0.033731065690517426,0.04422019049525261
1761299315535068200,5.859068115234375,0.007802529260516167,-0.030195185914635658,-0.0020876519847661257
1761299315555191000,5.87919091796875,0.013771472498774529,-0.05146132782101631,-0.018310563638806343
1761299315575314000,5.89931396484375,-0.005161206237971783,0.008667523972690105,-0.00824035331606865
1761299315595438000,5.91943798828125,-0.008236091583967209,0.05409199744462967,0.02670884318649769
1761299315615561000,5.93956103515625,-0.008407332934439182,0.05535460263490677,0.04381006583571434
1761299315635684000,5.95968408203125,0.0065407236106693745,0.028259867802262306,0.021946577355265617
1761299315655808000,5.97980810546875,-0.003236539661884308,-0.03255661204457283,-0.015985624864697456
1761299315675931000,5.999930908203125,-0.019236279651522636,-0.01847674511373043,-0.026912307366728783
1761299315696055300,6.02005517578125,-0.0462881363928318,0.04536561667919159,-0.023613451048731804
1761299315716178200,6.04017822265625,-0.04248860478401184,0.011756524443626404,-0.029918750748038292
1761299315736301000,6.060301025390625,-0.01082788035273552,-0.014867362566292286,-0.02479536086320877
1761299315756425200,6.08042529296875,-0.012315255589783192,0.03747653588652611,0.006888798903673887
1761299315776548000,6.100548095703125,-0.03660301864147186,0.08059870451688766,0.02106214128434658
1761299315796671200,6.120671142578125,-0.027663851156830788,0.02178492397069931,-0.016747022047638893
1761299315816795100,6.140795166015625,-0.0018572885310277343,-0.005786249879747629,-0.058994609862565994
1761299315836918000,6.16091796875,-0.0014375743921846151,0.037515416741371155,-0.047500673681497574
1761299315857041200,6.181041259765625,-0.019344668835401535,0.02062937803566456,0.0008426241693086922
1761299315877165000,6.2011650390625,-0.012830844148993492,0.015076421201229095,-0.0002641855680849403
1761299315897288200,6.2212880859375,-0.02153192274272442,0.07100466638803482,-0.03828134387731552
1761299315917411000,6.2414111328125,-0.04972228407859802,0.06302104145288467,-0.06124578043818474
1761299315937535000,6.261534912109375,-0.043657466769218445,-0.040407344698905945,0.002817091764882207
1761299315957658000,6.281658203125,-0.032099079340696335,0.002951315138489008,0.05649043992161751
1761299315977782000,6.301781982421875,-0.046171754598617554,0.08781587332487106,0.02719034254550934
1761299315997905000,6.32190478515625,-0.027478495612740517,0.05655861645936966,-0.044800493866205215
1761299316018028000,6.342028076171875,-0.02605636790394783,-0.010043845511972904,-0.08314042538404465
1761299316038152000,6.36215185546875,-0.015303588472306728,-0.035348668694496155,-0.025229189544916153
1761299316058275000,6.382275146484375,-0.005018993280827999,-0.01878167688846588,0.05477376654744148
1761299316078398000,6.40239794921875,-0.01293284259736538,0.027053721249103546,0.02593865618109703
1761299316098521900,6.42252197265625,-0.004204332362860441,0.019779562950134277,-0.05342967063188553
1761299316118645000,6.44264501953125,-0.003929493948817253,0.02215084247291088,-0.05319584161043167
1761299316138768000,6.462767822265625,-0.002222674200311303,-0.00301709515042603,0.018331602215766907
1761299316158892000,6.48289208984375,0.0008591357618570328,0.031605064868927,0.03771169111132622
1761299316179015200,6.50301513671875,-0.017013071104884148,0.035361453890800476,-0.042989812791347504
1761299316199138000,6.523137939453125,-0.011145861819386482,-0.023368971422314644,-0.08710161596536636
1761299316219261400,6.543261474609375,-0.008371646516025066,-0.054013967514038086,-0.03684696555137634
1761299316239384300,6.56338427734375,0.010933874174952507,0.043466515839099884,0.01619841158390045
1761299316259508500,6.583508544921875,-0.0002663161139935255,0.07012555748224258,-0.005667206831276417
1761299316279631400,6.60363134765625,-0.021861089393496513,0.0029768813401460648,-0.06737211346626282
1761299316299754500,6.62375439453125,-0.01938701421022415,-0.03712872788310051,-0.0797765851020813
1761299316319878400,6.64387841796875,0.010661698877811432,-0.002886333968490362,-0.055258460342884064
1761299316340001300,6.664001220703125,0.01661173440515995,0.0401490181684494,-0.06166229769587517
1761299316360124400,6.68412451171875,-0.0059841228649020195,-0.010273942723870277,-0.11750265955924988
1761299316380248300,6.704248291015625,-0.020200876519083977,-0.08338197320699692,-0.14001037180423737
1761299316400371200,6.72437109375,-0.0017688715597614646,-0.14088521897792816,-0.085952989757061
1761299316420494300,6.744494384765625,0.04957527667284012,-0.07788121700286865,0.007951666601002216
1761299316440618200,6.7646181640625,0.05206000432372093,0.04778216779232025,0.08487387746572495
1761299316460741400,6.784741455078125,0.0126420259475708,0.09717901051044464,0.09693267196416855
1761299316480865500,6.804865478515625,-0.007870705798268318,0.07449447363615036,0.00376011710613966
1761299316500988400,6.824988525390625,-0.006343649700284004,0.03606612607836723,-0.04953799024224281
1761299316521111600,6.845111572265625,-0.008198541589081287,-0.007965248078107834,-0.012487828731536865
1761299316541235500,6.8652353515625,-0.0059958407655358315,-0.025498701259493828,0.030954720452427864
1761299316561358300,6.8853583984375,-0.01950472593307495,-0.01537815760821104,0.02207281067967415
1761299316581481500,6.9054814453125,-0.03640434518456459,0.01047421246767044,-0.04186968505382538
1761299316601605400,6.92560546875,-0.018857311457395554,-0.021205153316259384,-0.07572325319051743
1761299316621728500,6.945728515625,0.012433500029146671,-0.062188271433115005,-0.06898625940084457
1761299316641851400,6.965851318359375,0.008278968743979931,-0.0005422196118161082,-0.05501318350434303
1761299316661975300,6.985975341796875,-0.006690393202006817,0.048174984753131866,-0.02586914785206318
1761299316682098400,7.006098388671875,0.0030778152868151665,0.029269471764564514,-0.036969203501939774
1761299316702221300,7.02622119140625,0.03876790031790733,-0.03212970495223999,-0.11642594635486603
1761299316722345500,7.046345458984375,0.04994545504450798,-0.07596853375434875,-0.19335508346557617
1761299316742468400,7.06646826171875,0.03525279462337494,-0.10431122779846191,-0.19126716256141663
1761299316762592300,7.08659228515625,0.034331608563661575,-0.05841483920812607,-0.12202151119709015
1761299316782715400,7.10671533203125,-0.018152905628085136,0.004622448701411486,-0.036619797348976135
1761299316802838300,7.12683837890625,0.04084436967968941,0.057306963950395584,0.06436754018068314
1761299316822962200,7.146962158203125,0.011316037736833096,0.08801694214344025,0.12101856619119644
1761299316843085300,7.167085205078125,-0.04211469739675522,0.09733027964830399,0.07846204936504364
1761299316863208200,7.187208251953125,-0.033843450248241425,0.014574681408703327,-0.010012686252593994
1761299316883332600,7.20733251953125,-0.012586365453898907,-0.020664265379309654,-0.021197963505983353
1761299316903455500,7.22745556640625,-0.01798113062977791,0.015132347121834755,0.04333788529038429
1761299316923578600,7.24757861328125,-0.013937386684119701,0.007240868639200926,0.08354762196540833
1761299316943702500,7.26770263671875,-0.013383183628320694,-0.007754858583211899,0.07274024933576584
1761299316963825400,7.287825439453125,-0.015906527638435364,0.016278039664030075,0.03874925896525383
1761299316983949300,7.30794921875,0.0027561055030673742,0.035295139998197556,-0.010971158742904663
1761299317004072400,7.328072509765625,0.028128573670983315,0.008791627362370491,-0.013863351196050644
1761299317024195300,7.3481953125,0.042460374534130096,-0.05842442810535431,0.04683088883757591
1761299317044319500,7.368319580078125,0.02273540571331978,-0.012170113623142242,0.10800662636756897
1761299317064442400,7.3884423828125,-0.022900521755218506,0.07269151508808136,0.08639640361070633
1761299317084565500,7.4085654296875,-0.022916235029697418,0.07201320677995682,0.0017981663113459945
1761299317104689400,7.428689453125,0.00045619948650710285,-0.005088235717266798,-0.0432441420853138
1761299317124812300,7.448812255859375,-0.004643221385776997,-0.04734035208821297,-0.019401926547288895
1761299317144935400,7.468935302734375,-0.022352177649736404,-0.009066465310752392,0.015718242153525352
1761299317165059300,7.489059326171875,-0.024281105026602745,0.016813067719340324,-0.009294964373111725
1761299317185182200,7.50918212890625,-0.029162412509322166,-0.011112306267023087,-0.06611483544111252
1761299317205305300,7.529305419921875,-0.014877483248710632,-0.008682171814143658,-0.07531099766492844
1761299317225429200,7.54942919921875,0.0248427651822567,-0.0034179009962826967,-0.016533169895410538
1761299317245552400,7.569552490234375,0.04892599582672119,0.001321194227784872,0.004798483569175005
1761299317265676500,7.589676513671875,-0.092340849339962,0.23032455146312714,0.223221093416214
1761299317285799400,7.60979931640625,-0.03135472536087036,0.02412744052708149,-0.10415516048669815
1761299317305922600,7.629922607421875,0.06211397051811218,0.04832066223025322,-0.32684576511383057
1761299317326046500,7.65004638671875,0.038663506507873535,0.04367664083838463,-0.20153258740901947
1761299317346169300,7.67016943359375,0.06356406211853027,0.20576994121074677,0.15021400153636932
