time,seconds_elapsed,z,y,x
1761299703891008300,0.07100830078125,0.0858888104557991,-0.07844313979148865,-0.05774505436420441
1761299703911129600,0.091129638671875,0.09530468285083771,-0.15262123942375183,-0.224282905459404
1761299703931251500,0.11125146484375,0.05547923594713211,-0.20546208322048187,-0.29106032848358154
1761299703951372300,0.131372314453125,-0.06507913768291473,-0.20110248029232025,-0.2319173812866211
1761299703971494400,0.151494384765625,-0.18605110049247742,-0.07941173762083054,-0.16341955959796906
1761299703991615500,0.171615478515625,-0.20632041990756989,0.06302636861801147,-0.16111351549625397
1761299704011736300,0.191736328125,-0.1564473956823349,0.05127809941768646,-0.09507139027118683
1761299704031858400,0.2118583984375,-0.0795092061161995,-0.005076251458376646,0.002834135899320245
1761299704051979500,0.2319794921875,-0.03593296557664871,-0.19384802877902985,-0.04321910813450813
1761299704072101400,0.252101318359375,-0.07245609164237976,-0.3908599019050598,-0.172224223613739
1761299704092222500,0.272222412109375,-0.17789196968078613,-0.41501662135124207,-0.3070041537284851
1761299704112343600,0.292343505859375,-0.28169214725494385,-0.2665611207485199,-0.49230316281318665
1761299704132465400,0.31246533203125,-0.34667858481407166,-0.2408810555934906,-0.7345951795578003
1761299704152586500,0.33258642578125,-0.38163071870803833,-0.19258223474025726,-0.8541476726531982
1761299704172708600,0.35270849609375,-0.43264517188072205,-0.11671409755945206,-0.721845805644989
1761299704192829400,0.372829345703125,-0.48052453994750977,-0.17194326221942902,-0.46137747168540955
1761299704212951300,0.392951416015625,-0.4697733521461487,-0.3115980923175812,-0.2806268632411957
1761299704233072600,0.41307275390625,-0.3950924575328827,-0.39493587613105774,-0.16191034018993378
1761299704253193500,0.433193359375,-0.3463638126850128,-0.2430398166179657,-0.12552782893180847
1761299704273315300,0.4533154296875,-0.45096051692962646,-0.010388991795480251,-0.27951472997665405
1761299704293436400,0.4734365234375,-0.5914438366889954,0.06121835112571716,-0.4294741451740265
1761299704313558500,0.49355859375,-0.6254604458808899,-0.14585280418395996,-0.34249556064605713
1761299704333679400,0.513679443359375,-0.5227409601211548,-0.2818010449409485,-0.11387170851230621
1761299704353801500,0.533801513671875,-0.41880232095718384,-0.10380815714597702,-0.03568316251039505
1761299704373922300,0.55392236328125,-0.38509708642959595,-0.0267767533659935,-0.1442197561264038
1761299704394043400,0.57404345703125,-0.3260343074798584,-0.18760532140731812,-0.23801283538341522
1761299704414165500,0.59416552734375,-0.2478843629360199,-0.3384861648082733,-0.013819409534335136
1761299704434286300,0.614286376953125,-0.17676278948783875,-0.33417317271232605,0.3455049395561218
1761299704454408400,0.634408447265625,-0.08631118386983871,-0.07476132363080978,0.4900256395339966
1761299704474529500,0.654529541015625,-0.03955193608999252,0.22150975465774536,0.4644409120082855
1761299704494650400,0.674650390625,0.026140790432691574,0.07442975789308548,0.49140727519989014
1761299704514772500,0.6947724609375,0.13635385036468506,-0.2864575982093811,0.657217800617218
1761299704534893600,0.7148935546875,0.1958499252796173,-0.4407512843608856,0.6912753582000732
1761299704555015700,0.735015625,0.12870843708515167,-0.2406778484582901,0.4294626712799072
1761299704575136500,0.755136474609375,-0.07947564870119095,0.148221954703331,-0.023258185014128685
1761299704595257900,0.7752578125,-0.2705167233943939,0.44358277320861816,-0.40174129605293274
1761299704615379000,0.79537890625,-0.23467668890953064,0.21322892606258392,-0.39085936546325684
1761299704635499800,0.815499755859375,0.03617051988840103,-0.16678179800510406,0.3233868479728699
1761299704655622000,0.835621826171875,0.3034517467021942,-0.02429974637925625,1.2122312784194946
1761299704675743000,0.855742919921875,0.5520011186599731,0.3741443157196045,1.5601471662521362
1761299704695864600,0.875864501953125,0.6607968211174011,0.6087541580200195,1.3421133756637573
1761299704715985700,0.895985595703125,0.6847442388534546,0.5330756306648254,0.8087857961654663
1761299704736107800,0.916107666015625,0.6920738220214844,0.15694834291934967,0.3064645826816559
1761299704756228600,0.936228515625,0.6891637444496155,-0.22678068280220032,0.048115864396095276
1761299704776349700,0.956349609375,0.7253957986831665,-0.4563116133213043,-0.10006748139858246
1761299704796471800,0.976471923828125,0.7502865195274353,-0.35081154108047485,-0.2732491195201874
1761299704816592600,0.996592529296875,0.6138942837715149,0.1373749077320099,-0.4028497040271759
1761299704836714800,1.01671484375,0.44553858041763306,0.5260677933692932,-0.32395756244659424
1761299704856835800,1.0368359375,0.4274887442588806,0.6140133738517761,-0.08664807677268982
1761299704876957700,1.056957763671875,0.5234760046005249,0.5351422429084778,0.13698607683181763
1761299704897078800,1.077078857421875,0.629192590713501,0.4138333797454834,0.3594929277896881
1761299704917200000,1.097199951171875,0.6907227635383606,0.37640026211738586,0.48098766803741455
1761299704937321700,1.11732177734375,0.7383565902709961,0.36622247099876404,0.39497822523117065
1761299704957442800,1.13744287109375,0.6658374071121216,0.34054824709892273,0.15652994811534882
1761299704977565000,1.15756494140625,0.5124244093894958,0.29385852813720703,-0.1001574918627739
1761299704997685800,1.177685791015625,0.4355488121509552,0.20818303525447845,-0.24627049267292023
1761299705017807600,1.1978076171875,0.5046248435974121,0.041800711303949356,-0.14773033559322357
1761299705037928700,1.2179287109375,0.5232517719268799,-0.0013811152894049883,0.05335749685764313
1761299705058049800,1.2380498046875,0.45822376012802124,0.15161588788032532,-0.05435085669159889
1761299705078171600,1.258171630859375,0.3000549077987671,0.30999353528022766,-0.39511483907699585
1761299705098292700,1.278292724609375,0.19693729281425476,0.37544524669647217,-0.7311373353004456
1761299705118414600,1.29841455078125,0.15806978940963745,0.14749251306056976,-0.8333683609962463
1761299705138535700,1.31853564453125,0.11694259941577911,-0.30393725633621216,-0.8391721844673157
1761299705158657800,1.33865771484375,0.00920202024281025,-0.6739416718482971,-0.9160230159759521
1761299705178778600,1.358778564453125,-0.14088574051856995,-0.7750163674354553,-1.2282618284225464
1761299705198899700,1.378899658203125,-0.28989654779434204,-0.46851661801338196,-1.49735426902771
1761299705219021800,1.399021728515625,-0.3607672452926636,0.02953951619565487,-1.4759715795516968
1761299705239142700,1.419142578125,-0.24293701350688934,0.330059677362442,-0.9177761673927307
1761299705259264800,1.4392646484375,0.08134199678897858,0.35808783769607544,-0.06390681117773056
1761299705279385900,1.4593857421875,0.23100845515727997,0.1799849420785904,0.4693794846534729
1761299705299508000,1.479508056640625,0.1347447633743286,-0.01895531453192234,0.43691447377204895
1761299705319628800,1.49962890625,-0.13151408731937408,-0.11427117884159088,0.012919261120259762
1761299705339750000,1.51975,-0.46692243218421936,-0.09929143637418747,-0.5574872493743896
1761299705359871700,1.539871826171875,-0.7882652878761292,0.02797544188797474,-0.9071192741394043
1761299705379992800,1.559992919921875,-0.9488696455955505,0.25335049629211426,-0.806054413318634
1761299705400114700,1.58011474609375,-0.9763326644897461,0.5147384405136108,-0.38265177607536316
1761299705420235800,1.60023583984375,-0.8608034253120422,0.5915828943252563,0.031673505902290344
1761299705440357600,1.620357666015625,-0.5912068486213684,0.3974533677101135,0.1767936795949936
1761299705460478700,1.640478759765625,-0.33995625376701355,0.14801742136478424,0.1750522404909134
1761299705480599600,1.660599609375,-0.2515275776386261,0.11130575090646744,0.2205962836742401
1761299705500721700,1.6807216796875,-0.28192010521888733,0.17821954190731049,0.28237444162368774
1761299705520842800,1.7008427734375,-0.3061295747756958,0.2276557981967926,0.2818668484687805
1761299705540964900,1.72096484375,-0.2748427391052246,0.2327328473329544,0.21326912939548492
1761299705561085700,1.741085693359375,-0.23478588461875916,0.22501900792121887,0.16618923842906952
1761299705581207800,1.761207763671875,-0.14575161039829254,0.2248016893863678,0.2156771570444107
1761299705601329000,1.781328857421875,-0.009884854778647423,0.12519173324108124,0.36673617362976074
1761299705621450000,1.801449951171875,0.11336331069469452,-0.012350409291684628,0.48041054606437683
1761299705641572000,1.821572021484375,0.22822198271751404,-0.16540174186229706,0.51390141248703
1761299705661693000,1.84169287109375,0.27887824177742004,-0.17735347151756287,0.42112699151039124
1761299705681814800,1.861814697265625,0.24294526875019073,-0.08986836671829224,0.2941615879535675
1761299705701936000,1.88193603515625,0.09652920067310333,-0.12657658755779266,0.10283955931663513
1761299705722058000,1.90205810546875,0.034337468445301056,-0.3921627104282379,-0.08774290233850479
1761299705742178800,1.9221787109375,0.08842387050390244,-0.6556979417800903,-0.26107341051101685
1761299705762300000,1.9422998046875,0.11409834027290344,-0.519584059715271,-0.35521748661994934
1761299705782422000,1.962422119140625,0.14246712625026703,-0.009887518361210823,-0.16618578135967255
1761299705802542800,1.98254296875,0.19483526051044464,0.2909950911998749,0.26282522082328796
1761299705822665000,2.0026650390625,0.38424113392829895,0.24089543521404266,0.6126900315284729
1761299705842786000,2.0227861328125,0.645256757736206,0.05589042976498604,0.7557632923126221
1761299705862908000,2.042907958984375,0.793950080871582,0.04278821125626564,0.6627193689346313
1761299705883029000,2.063029052734375,0.8211167454719543,0.19181710481643677,0.43176472187042236
1761299705903149800,2.08314990234375,0.7416514754295349,0.3284947872161865,0.15138739347457886
1761299705923272000,2.10327197265625,0.6145606637001038,0.38560256361961365,-0.07380019128322601
1761299705943393000,2.12339306640625,0.5135639905929565,0.3623363673686981,-0.13767343759536743
1761299705963515100,2.14351513671875,0.48283082246780396,0.3890191316604614,-0.08873040229082108
1761299705983636000,2.163635986328125,0.5010995864868164,0.46397724747657776,0.04639466106891632
1761299706003758000,2.183758056640625,0.5471480488777161,0.49129754304885864,0.2402634620666504
1761299706023879200,2.203879150390625,0.5476529598236084,0.47148948907852173,0.3811422884464264
1761299706044000000,2.224,0.4723672866821289,0.31800591945648193,0.39398911595344543
1761299706064121900,2.244121826171875,0.4088279902935028,0.0937933400273323,0.2657368779182434
1761299706084243000,2.264242919921875,0.40264543890953064,-0.1487460732460022,0.1318480372428894
1761299706104364800,2.28436474609375,0.4330097436904907,-0.33425894379615784,0.11275477707386017
1761299706124486000,2.30448583984375,0.38974642753601074,-0.3204682767391205,0.193948432803154
1761299706144608000,2.32460791015625,0.2484329789876938,-0.11672475188970566,0.20552413165569305
1761299706164728800,2.344728759765625,0.11019308120012283,0.06278987973928452,0.14895352721214294
1761299706184851000,2.364850830078125,0.0440010130405426,0.0026876621413975954,-0.005055212415754795
1761299706204972000,2.384971923828125,-0.014701182022690773,-0.22941294312477112,-0.240944966673851
1761299706225092900,2.4050927734375,-0.0142958490177989,-0.4351053833961487,-0.5311797261238098
1761299706245215000,2.425215087890625,-0.07194928824901581,-0.5802412629127502,-0.7999871969223022
1761299706265336000,2.445336181640625,-0.30618974566459656,-0.47474920749664307,-1.0590853691101074
1761299706285458000,2.4654580078125,-0.6063157320022583,-0.163517028093338,-1.2273303270339966
1761299706305579000,2.4855791015625,-0.760696291923523,-0.0030919299460947514,-1.164467692375183
1761299706325701000,2.505701171875,-0.5815355777740479,-0.10518421232700348,-0.9145976901054382
1761299706345822000,2.525822021484375,-0.43386223912239075,-0.05819113552570343,-0.537451446056366
1761299706365943000,2.545943115234375,-0.3195580244064331,0.08285653591156006,-0.12498614192008972
1761299706386065000,2.56606494140625,-0.28491508960723877,0.059312060475349426,0.11237740516662598
1761299706406186000,2.58618603515625,-0.29011544585227966,-0.0849500447511673,0.07089920341968536
1761299706426307800,2.606307861328125,-0.33007803559303284,-0.21835364401340485,-0.13707555830478668
1761299706446429000,2.626428955078125,-0.3793816864490509,-0.2346963882446289,-0.27241209149360657
1761299706466551000,2.646551025390625,-0.4701310098171234,-0.18490593135356903,-0.23209528625011444
1761299706486672000,2.666671875,-0.5557063817977905,-0.12841656804084778,-0.07087896764278412
1761299706506793000,2.68679296875,-0.6042986512184143,-0.08698230236768723,0.12025929987430573
1761299706526915000,2.7069150390625,-0.5961264967918396,-0.04921255260705948,0.2126382291316986
1761299706547036000,2.727035888671875,-0.5710635185241699,0.019997144117951393,0.17152968049049377
1761299706567158000,2.747157958984375,-0.5846677422523499,0.04616057127714157,0.09382742643356323
1761299706587279000,2.767279052734375,-0.5793432593345642,-0.01677658222615719,0.00020133497309871018
1761299706607401500,2.7874013671875,-0.5135703682899475,-0.15435682237148285,-0.014299044385552406
1761299706627522300,2.807522216796875,-0.47893038392066956,-0.2685483694076538,0.0397772416472435
1761299706647644200,2.82764404296875,-0.5132928490638733,-0.22605790197849274,0.013597301207482815
1761299706667765500,2.847765625,-0.5719700455665588,-0.11033103615045547,-0.10517702251672745
1761299706687886300,2.86788623046875,-0.5793560147285461,0.0019153454340994358,-0.15419010818004608
1761299706708008200,2.88800830078125,-0.574129581451416,0.036916740238666534,-0.063397616147995
1761299706728129300,2.90812939453125,-0.5025051832199097,-0.1454501450061798,0.08868992328643799
1761299706748251400,2.92825146484375,-0.28795430064201355,-0.5496743321418762,0.17178800702095032
1761299706768372200,2.948372314453125,0.03591858595609665,-0.888161838054657,0.26990845799446106
1761299706788494300,2.968494384765625,0.2809131443500519,-0.8543063998222351,0.3655146062374115
1761299706808615400,2.988615478515625,0.3745698630809784,-0.42832204699516296,0.4087672531604767
1761299706828736300,3.008736328125,0.25522032380104065,0.012398346327245235,0.25189295411109924
1761299706848858400,3.0288583984375,0.06561575829982758,0.08862227946519852,0.064844511449337
1761299706868979500,3.0489794921875,-0.08021175116300583,-0.03350523114204407,-0.11241069436073303
1761299706889101300,3.069101318359375,-0.08979087322950363,0.02731870673596859,-0.24510322511196136
1761299706909222400,3.089222412109375,0.004054130055010319,0.4590376317501068,-0.047140613198280334
1761299706929344500,3.109344482421875,0.18640317022800446,0.9305465817451477,0.4474528729915619
1761299706949465300,3.12946533203125,0.43064460158348083,0.9556335210800171,0.7920171618461609
1761299706969587200,3.149587158203125,0.7244764566421509,0.7375118732452393,0.8416473269462585
1761299706989708500,3.16970849609375,0.9785407185554504,0.5861055850982666,0.7778467535972595
1761299707009829400,3.189829345703125,1.138472557067871,0.49760791659355164,0.7126597762107849
1761299707029951200,3.209951171875,1.247188687324524,0.31235310435295105,0.5634649395942688
1761299707050072300,3.230072265625,1.2836138010025024,0.021226458251476288,0.27009859681129456
1761299707070194200,3.250194091796875,1.1765435934066772,-0.20528976619243622,-0.06653721630573273
1761299707090315300,3.270315185546875,0.9685525298118591,-0.09206787496805191,-0.21196284890174866
1761299707110437400,3.290437255859375,0.745911717414856,0.2881481647491455,-0.054848335683345795
1761299707130558200,3.31055810546875,0.6526094675064087,0.730132520198822,0.24172580242156982
1761299707150679300,3.33067919921875,0.6321372389793396,0.9124189615249634,0.4190630316734314
1761299707170801400,3.350801513671875,0.6145827174186707,0.8232414126396179,0.47967180609703064
1761299707190922200,3.370922119140625,0.5996639728546143,0.49043574929237366,0.49754586815834045
1761299707211044400,3.39104443359375,0.5870126485824585,0.13608060777187347,0.41401901841163635
1761299707231165400,3.41116552734375,0.5068120956420898,0.018156632781028748,0.2568240761756897
1761299707251287300,3.431287353515625,0.41453033685684204,-0.03593669459223747,0.1416759043931961
1761299707271408400,3.451408447265625,0.3683311641216278,-0.1846366971731186,0.11590609699487686
1761299707291530500,3.471530517578125,0.308698445558548,-0.4541887938976288,0.05523289367556572
1761299707311651300,3.4916513671875,0.2646188735961914,-0.6554340124130249,-0.12520772218704224
1761299707331772400,3.5117724609375,0.22374200820922852,-0.8325467705726624,-0.3403352200984955
1761299707351894300,3.531894287109375,0.08332657814025879,-0.9552358984947205,-0.5131373405456543
1761299707372015400,3.552015380859375,-0.1970701962709427,-0.8870752453804016,-0.6632019281387329
1761299707392137200,3.57213720703125,-0.5907769799232483,-0.6387996673583984,-1.0110914707183838
1761299707412258300,3.59225830078125,-0.9257291555404663,-0.36536118388175964,-1.556586503982544
1761299707432380400,3.61238037109375,-1.0415524244308472,-0.07588544487953186,-1.7912847995758057
1761299707452501200,3.632501220703125,-0.9540409445762634,0.07691901922225952,-1.4080218076705933
1761299707472623400,3.652623291015625,-0.7582821249961853,0.11966861039400101,-0.7314566373825073
1761299707492744400,3.672744384765625,-0.6119299530982971,0.2708354890346527,-0.2875593304634094
1761299707512865300,3.692865234375,-0.5384219288825989,0.34785276651382446,-0.09605728834867477
1761299707532987400,3.7129873046875,-0.3551032245159149,0.27394047379493713,-0.028630046173930168
1761299707553108500,3.7331083984375,-0.2069622427225113,0.007790278643369675,-0.021827533841133118
1761299707573230300,3.753230224609375,-0.21503028273582458,-0.1864716112613678,-0.15266969799995422
1761299707593351700,3.7733515625,-0.2919658124446869,-0.20452331006526947,-0.30562010407447815
1761299707613473500,3.7934736328125,-0.41068074107170105,-0.017584320157766342,-0.3196592330932617
1761299707633594600,3.8135947265625,-0.5203973650932312,0.23202018439769745,-0.15280285477638245
1761299707653716500,3.833716552734375,-0.5796332955360413,0.3498173952102661,0.059115249663591385
1761299707673837600,3.853837646484375,-0.522354006767273,0.24269573390483856,0.19664248824119568
1761299707693958400,3.87395849609375,-0.44630664587020874,0.0445094108581543,0.19247037172317505
1761299707714080500,3.89408056640625,-0.449725866317749,-0.08934798836708069,0.12202604115009308
1761299707734201600,3.91420166015625,-0.5472683906555176,-0.07199615985155106,0.09555954486131668
1761299707754323700,3.93432373046875,-0.6405152678489685,0.07323479652404785,0.03093900717794895
1761299707774444500,3.954444580078125,-0.5713788270950317,0.04915209859609604,-0.03460245206952095
1761299707794566700,3.974566650390625,-0.43382254242897034,-0.1405443251132965,-0.07367182523012161
1761299707814687700,3.994687744140625,-0.34243589639663696,-0.21924073994159698,-0.11895168572664261
1761299707834807600,4.0148076171875,-0.3037095367908478,-0.01684289611876011,-0.12486976385116577
1761299707854928600,4.0349287109375,-0.23333312571048737,0.1593821942806244,-0.03653137758374214
1761299707875050500,4.055050537109375,-0.09975748509168625,0.04249712824821472,0.0728696808218956
1761299707895171600,4.075171630859375,0.06694094836711884,-0.2261367291212082,0.10264009237289429
1761299707915292700,4.095292724609375,0.13850674033164978,-0.40584897994995117,0.08317744731903076
1761299707935414500,4.11541455078125,0.1519695520401001,-0.3010639548301697,0.10642124712467194
1761299707955535600,4.13553564453125,0.09886559098958969,0.06676704436540604,0.1922519952058792
1761299707975657700,4.15565771484375,0.08917834609746933,0.2943922281265259,0.25809919834136963
1761299707995778600,4.175778564453125,0.06659846752882004,0.3873613178730011,0.20898224413394928
1761299708015900700,4.195900634765625,0.04933798685669899,0.45759737491607666,0.2698277533054352
1761299708036021800,4.216021728515625,0.14936232566833496,0.5292097926139832,0.6010234951972961
1761299708056143600,4.2361435546875,0.38800179958343506,0.5294617414474487,0.901385486125946
1761299708076264700,4.2562646484375,0.6189266443252563,0.36341896653175354,0.9484544396400452
1761299708096386600,4.276386474609375,0.7496724128723145,0.12130565196275711,0.7881436347961426
1761299708116507600,4.296507568359375,0.761813759803772,-0.040350086987018585,0.5739234685897827
1761299708136628700,4.316628662109375,0.6417954564094543,-0.010849984362721443,0.35783377289772034
1761299708156750600,4.33675048828125,0.5259482264518738,0.08906542509794235,0.19378703832626343
1761299708176871400,4.356871337890625,0.5169922709465027,0.15254266560077667,0.08438465744256973
1761299708196993500,4.37699365234375,0.47623711824417114,0.204107865691185,0.07529795169830322
1761299708217114600,4.397114501953125,0.3625994920730591,0.35290664434432983,0.21095697581768036
1761299708237236700,4.41723681640625,0.3120465874671936,0.5518155097961426,0.42286416888237
1761299708257357600,4.437357666015625,0.36271828413009644,0.7438965439796448,0.5696712136268616
1761299708277479700,4.457479736328125,0.4626869559288025,0.8200040459632874,0.6544846296310425
1761299708297600800,4.477600830078125,0.5855209827423096,0.7795272469520569,0.7154523730278015
1761299708317721600,4.4977216796875,0.6311470866203308,0.5794953107833862,0.6779662370681763
1761299708337843700,4.51784375,0.5476583242416382,0.2685542404651642,0.5429279804229736
1761299708357964500,4.537964599609375,0.3837234377861023,0.05764838308095932,0.3701421022415161
1761299708378086700,4.558086669921875,0.24445128440856934,0.16331808269023895,0.2400307059288025
1761299708398207700,4.578207763671875,0.19270792603492737,0.2960452437400818,0.15517334640026093
1761299708418329600,4.59832958984375,0.18751583993434906,0.22165648639202118,0.06133819371461868
1761299708438450700,4.61845068359375,0.17910876870155334,-0.06309188157320023,-0.04860322177410126
1761299708458572500,4.638572509765625,0.07871159166097641,-0.3783358633518219,-0.2499464601278305
1761299708478693600,4.658693603515625,-0.1627628207206726,-0.4641479551792145,-0.6372441053390503
1761299708498814500,4.678814453125,-0.42382025718688965,-0.2940713167190552,-1.0612307786941528
1761299708518936600,4.6989365234375,-0.6240465641021729,-0.10666785389184952,-1.321752667427063
1761299708539057700,4.7190576171875,-0.7164201736450195,-0.16386429965496063,-1.3010135889053345
1761299708559179500,4.739179443359375,-0.7327916622161865,-0.358039915561676,-1.1013363599777222
1761299708579300600,4.759300537109375,-0.7182531952857971,-0.4531496465206146,-0.9100809693336487
1761299708599422200,4.779422119140625,-0.6448708772659302,-0.31619977951049805,-0.5886414051055908
1761299708619543300,4.799543212890625,-0.46471840143203735,-0.2437088042497635,-0.15608175098896027
1761299708639665200,4.8196650390625,-0.4431918263435364,-0.41539907455444336,0.05770537257194519
1761299708659786200,4.8397861328125,-0.4186515808105469,-0.6409006118774414,-0.0010373012628406286
1761299708679907300,4.8599072265625,-0.5377398729324341,-0.6971516609191895,-0.14440670609474182
1761299708700029200,4.880029296875,-0.8524823784828186,-0.4244239926338196,-0.35560256242752075
1761299708720150300,4.900150390625,-1.1248856782913208,-0.06390894204378128,-0.5004806518554688
1761299708740272400,4.9202724609375,-1.19855535030365,0.08732158690690994,-0.45111364126205444
1761299708760393200,4.940393310546875,-1.068010926246643,0.1173737645149231,-0.12563009560108185
1761299708780515000,4.96051513671875,-0.8813289403915405,0.060386378318071365,0.24376392364501953
1761299708800636400,4.980636474609375,-0.7229206562042236,0.026327211409807205,0.33845049142837524
1761299708820758000,5.000758056640625,-0.6163713335990906,0.0937587171792984,0.22985929250717163
1761299708840879000,5.020879150390625,-0.5558046698570251,0.11806751787662506,0.11527013033628464
1761299708861001200,5.041001220703125,-0.46675705909729004,-0.11663873493671417,0.11159870028495789
1761299708881122000,5.0611220703125,-0.27552664279937744,-0.2623511850833893,0.11640224605798721
1761299708901243100,5.0812431640625,-0.17661099135875702,-0.06470336019992828,0.02173112891614437
1761299708921365200,5.101365234375,-0.2411031574010849,0.14944860339164734,-0.044488370418548584
1761299708941486000,5.121486083984375,-0.2500290274620056,0.1594945788383484,-0.007496532052755356
1761299708961608200,5.141608154296875,-0.12682026624679565,0.09803708642721176,-0.01745542325079441
1761299708981729300,5.161729248046875,0.03686933591961861,0.07364305853843689,-0.06716465950012207
1761299709001851400,5.181851318359375,0.22931042313575745,0.05179901421070099,-0.015452459454536438
1761299709021972200,5.20197216796875,0.3490762412548065,-0.08200325816869736,0.02335059642791748
1761299709042094300,5.22209423828125,0.3752385973930359,-0.09503649920225143,0.006872287020087242
1761299709062215400,5.24221533203125,0.3087080419063568,0.08299288898706436,0.011443070136010647
1761299709082337000,5.2623369140625,0.2366652637720108,0.2781780958175659,-0.026187395676970482
1761299709102458000,5.2824580078125,0.18334132432937622,0.31693294644355774,-0.16615115106105804
1761299709122579200,5.3025791015625,0.1315087527036667,0.23279009759426117,-0.27598658204078674
1761299709142701000,5.322701171875,0.17120370268821716,0.43938881158828735,0.031003456562757492
1761299709162822100,5.342822265625,0.3451102674007416,0.8698752522468567,0.6360883116722107
1761299709182944300,5.3629443359375,0.5361002087593079,1.0390639305114746,0.9202249646186829
1761299709203065000,5.383065185546875,0.7489266991615295,0.8585783839225769,0.8578662276268005
1761299709223187200,5.403187255859375,0.9312459230422974,0.49557673931121826,0.6985399723052979
1761299709243308300,5.423308349609375,1.0597330331802368,0.11492232233285904,0.5088882446289062
1761299709263430100,5.44343017578125,1.1470253467559814,-0.17523492872714996,0.21716374158859253
1761299709283551200,5.46355126953125,1.1291738748550415,-0.37668389081954956,-0.1373959481716156
1761299709303673300,5.48367333984375,0.9334992170333862,-0.4746389389038086,-0.40880322456359863
1761299709323794200,5.503794189453125,0.6391327977180481,-0.29099908471107483,-0.4188089668750763
1761299709343915300,5.523915283203125,0.38600069284439087,0.250752329826355,-0.15758615732192993
1761299709364037400,5.544037353515625,0.26271337270736694,0.7130051851272583,0.13118970394134521
1761299709384158200,5.564158203125,0.33656495809555054,0.8926127552986145,0.3294508755207062
1761299709404280000,5.584280029296875,0.47358274459838867,0.7445021271705627,0.42311662435531616
1761299709424401400,5.6044013671875,0.6176685690879822,0.39717239141464233,0.453267365694046
1761299709444523000,5.62452294921875,0.701215922832489,0.01618562825024128,0.4167146682739258
1761299709464644000,5.64464404296875,0.6909369230270386,-0.21724364161491394,0.39456090331077576
1761299709484766200,5.66476611328125,0.6009119153022766,-0.2985169291496277,0.327452689409256
1761299709504887000,5.684886962890625,0.521519660949707,-0.2974327504634857,0.21993742883205414
1761299709525009200,5.705009033203125,0.472998708486557,-0.29487958550453186,0.12344177812337875
1761299709545130200,5.725130126953125,0.4079592525959015,-0.36245542764663696,0.061897456645965576
1761299709565251000,5.7452509765625,0.2976205050945282,-0.48630785942077637,-0.048042893409729004
1761299709585373200,5.765373291015625,0.16572318971157074,-0.6571049094200134,-0.2853209674358368
1761299709605494300,5.785494384765625,-0.034454114735126495,-0.694942057132721,-0.5492119789123535
1761299709625616400,5.805616455078125,-0.25546613335609436,-0.3641550540924072,-0.8487299680709839
1761299709645737200,5.8257373046875,-0.5768537521362305,0.01136983372271061,-1.1373364925384521
1761299709665859300,5.845859375,-0.8941579461097717,0.11793062835931778,-1.2013399600982666
1761299709685980400,5.86598046875,-0.9322086572647095,0.1579078733921051,-0.9714434146881104
1761299709706102300,5.886102294921875,-0.7188316583633423,0.3814759850502014,-0.5092339515686035
1761299709726223000,5.90622314453125,-0.42183592915534973,0.5752187967300415,-0.13712163269519806
1761299709746345200,5.92634521484375,-0.29427316784858704,0.48162922263145447,-0.07013354450464249
1761299709766466000,5.946466064453125,-0.27031058073043823,0.1960856169462204,-0.3180818259716034
1761299709786588200,5.966588134765625,-0.2537505030632019,-0.18095514178276062,-0.6500174403190613
1761299709806709200,5.986709228515625,-0.3180892765522003,-0.4389810860157013,-0.7691715359687805
1761299709826830000,6.006830078125,-0.45544448494911194,-0.35998934507369995,-0.6474767923355103
1761299709846952200,6.0269521484375,-0.6239022016525269,0.09179969131946564,-0.38599643111228943
1761299709867073300,6.0470732421875,-0.7035038471221924,0.4932882785797119,-0.05856530740857124
1761299709887195400,6.0671953125,-0.6770546436309814,0.581149160861969,0.20856653153896332
1761299709907316200,6.087316162109375,-0.5579029321670532,0.38851791620254517,0.4152216911315918
1761299709927438300,6.107438232421875,-0.43080490827560425,0.03323119133710861,0.5187827348709106
1761299709947559400,6.127559326171875,-0.37301406264305115,-0.22069908678531647,0.45693665742874146
1761299709967681300,6.147681396484375,-0.3525676429271698,-0.2342066466808319,0.30242350697517395
1761299709987802400,6.16780224609375,-0.42389774322509766,-0.15562154352664948,0.21538394689559937
1761299710007924200,6.18792431640625,-0.5077268481254578,-0.15164358913898468,0.14531990885734558
1761299710028045000,6.208045166015625,-0.5321587324142456,-0.09073363244533539,-0.02701191045343876
1761299710048167200,6.228167236328125,-0.48100951313972473,0.0012013519881293178,-0.1299164593219757
1761299710068288300,6.248288330078125,-0.3104955554008484,0.02339826710522175,-0.1165255457162857
1761299710088409000,6.2684091796875,-0.05481771007180214,-0.01474539004266262,-0.05139421671628952
1761299710108531200,6.28853125,0.1918109804391861,-0.1358896642923355,0.007266168482601643
1761299710128652300,6.30865234375,0.36657825112342834,-0.27617353200912476,0.06976336985826492
1761299710148774100,6.328774169921875,0.4842894375324249,-0.3209031820297241,0.12694835662841797
1761299710168895200,6.348895263671875,0.49326083064079285,-0.17184312641620636,0.17912209033966064
1761299710189017300,6.369017333984375,0.4325631260871887,-0.02377723529934883,0.24336977303028107
1761299710209138200,6.38913818359375,0.3502959609031677,0.04874517023563385,0.23211605846881866
1761299710229260300,6.40926025390625,0.23709963262081146,0.13993605971336365,0.18322041630744934
1761299710249381400,6.42938134765625,0.2031097114086151,0.30892667174339294,0.3200925290584564
1761299710269503200,6.449503173828125,0.2998458445072174,0.5266597867012024,0.6320762634277344
1761299710289624300,6.469624267578125,0.45672520995140076,0.5431732535362244,0.813153862953186
1761299710309746200,6.48974609375,0.6771507859230042,0.36849865317344666,0.7820249795913696
1761299710329867300,6.5098671875,0.8279781341552734,0.2007637321949005,0.6095203161239624
1761299710349988000,6.529988037109375,0.9009976983070374,0.07905114442110062,0.3573016822338104
1761299710370110200,6.550110107421875,0.9010043740272522,-0.039500270038843155,0.06498352438211441
1761299710390231300,6.570231201171875,0.8571391701698303,-0.2176596224308014,-0.13172900676727295
1761299710410353200,6.590353271484375,0.7965147495269775,-0.3440617620944977,-0.19028152525424957
1761299710430474200,6.61047412109375,0.690233588218689,-0.1380462795495987,-0.060746703296899796
1761299710450596400,6.630596435546875,0.596393346786499,0.36706268787384033,0.22810214757919312
1761299710470717200,6.65071728515625,0.5646154284477234,0.7471498250961304,0.47983184456825256
1761299710490839300,6.67083935546875,0.6005875468254089,0.8568209409713745,0.6922120451927185
1761299710510960400,6.69096044921875,0.6279035806655884,0.6874385476112366,0.8197311162948608
1761299710531082200,6.711082275390625,0.6701168417930603,0.4338712692260742,0.8596968650817871
1761299710551203300,6.731203369140625,0.7220021486282349,0.16412608325481415,0.771306574344635
1761299710571325200,6.7513251953125,0.6810696125030518,-0.09542292356491089,0.539157509803772
1761299710591446300,6.7714462890625,0.49804121255874634,-0.20052218437194824,0.24506701529026031
1761299710611567000,6.791567138671875,0.21321241557598114,-0.17309561371803284,0.10995526611804962
1761299710631689000,6.81168896484375,-0.006149771623313427,-0.09685304015874863,0.07883569598197937
1761299710651810000,6.83181005859375,-0.2079334855079651,-0.04012531414628029,-0.054425425827503204
1761299710671932200,6.85193212890625,-0.35592296719551086,-0.059111256152391434,-0.27105066180229187
1761299710692053000,6.872052978515625,-0.4575052261352539,-0.14456623792648315,-0.48554539680480957
1761299710712175000,6.892175048828125,-0.544398844242096,-0.18538451194763184,-0.6463497281074524
1761299710732296200,6.912296142578125,-0.7000576853752136,-0.15459276735782623,-0.820547878742218
1761299710752418000,6.93241796875,-0.8753706812858582,-0.13037584722042084,-1.0076831579208374
1761299710772539100,6.9525390625,-0.9818025827407837,-0.021953769028186798,-1.0570871829986572
1761299710792661200,6.9726611328125,-0.9970203638076782,0.16645768284797668,-0.9425126910209656
1761299710812782000,6.992781982421875,-0.9735539555549622,0.47621554136276245,-0.7156558036804199
1761299710832904200,7.012904296875,-0.6060854196548462,0.5711284875869751,-0.3356054425239563
1761299710853025300,7.033025390625,-0.19871895015239716,0.3368677794933319,-0.02503584511578083
1761299710873147100,7.053147216796875,0.13448643684387207,-0.1905241459608078,0.10238070040941238
1761299710893268200,7.073268310546875,0.20020154118537903,-0.7050948143005371,0.01733078621327877
1761299710913389300,7.093389404296875,-0.021864019334316254,-0.9563072919845581,-0.20440533757209778
1761299710933511000,7.113510986328125,-0.3565751612186432,-0.729236900806427,-0.41966038942337036
1761299710953632000,7.133632080078125,-0.7037749290466309,-0.15466733276844025,-0.43766388297080994
1761299710973754000,7.153754150390625,-0.9328137040138245,0.35778477787971497,-0.2196846902370453
1761299710993875000,7.173875,-0.9291691780090332,0.5378664135932922,0.05137211084365845
1761299711013997000,7.1939970703125,-0.7834676504135132,0.4409249424934387,0.23474858701229095
1761299711034118100,7.2141181640625,-0.6128450036048889,0.19635167717933655,0.32502254843711853
1761299711054240300,7.234240234375,-0.5122952461242676,-0.0028338697738945484,0.27675649523735046
1761299711074361000,7.254361083984375,-0.47044819593429565,-0.05131538584828377,0.19055503606796265
1761299711094483200,7.274483154296875,-0.4290003478527069,-0.07864075154066086,0.1550028920173645
1761299711114604300,7.294604248046875,-0.3562704920768738,-0.16932643949985504,0.09002203494310379
1761299711134726100,7.31472607421875,-0.23194880783557892,-0.1890799105167389,-0.016584036871790886
1761299711154847200,7.33484716796875,-0.11865208297967911,-0.043834298849105835,-0.09350837767124176
1761299711174969000,7.354968994140625,0.027905134484171867,0.08577588945627213,-0.07279271632432938
1761299711195090200,7.375090087890625,0.25770291686058044,0.07648838311433792,0.0038959383964538574
1761299711215211300,7.395211181640625,0.47568076848983765,-0.09070460498332977,0.12342260032892227
1761299711235333000,7.4153330078125,0.6018384695053101,-0.22467172145843506,0.19889631867408752
1761299711255454000,7.435453857421875,0.5921182036399841,-0.1481492519378662,0.21378977596759796
1761299711275576000,7.455576171875,0.3471536934375763,0.17940863966941833,0.2055012285709381
1761299711295697200,7.475697265625,0.15308035910129547,0.3923448920249939,0.15343323349952698
1761299711315819000,7.495819091796875,0.0794394314289093,0.30441343784332275,0.18650276958942413
1761299711335940000,7.515940185546875,0.04117166996002197,0.03916444629430771,0.24317777156829834
1761299711356062200,7.536062255859375,0.06058957800269127,0.008560464717447758,0.34743332862854004
1761299711376183000,7.55618310546875,0.061517953872680664,0.30229833722114563,0.4974382817745209
1761299711396305200,7.57630517578125,0.0793938934803009,0.5429714322090149,0.6359772682189941
1761299711416426200,7.59642626953125,0.19767898321151733,0.33580222725868225,0.7064213156700134
1761299711436548400,7.61654833984375,0.3836139738559723,-0.17838412523269653,0.8022093772888184
1761299711456669200,7.636669189453125,0.47963476181030273,-0.6809353828430176,0.8374632000923157
1761299711476791000,7.656791015625,0.3891088664531708,-1.0721042156219482,0.6675106883049011
1761299711496912100,7.676912109375,0.014150439761579037,-1.2965866327285767,0.12229768186807632
1761299711517034000,7.697033935546875,-0.4549850821495056,-1.222309947013855,-0.5193840265274048
1761299711537155000,7.717155029296875,-0.8724864721298218,-0.9290661215782166,-0.9375376105308533
1761299711557276000,7.73727587890625,-1.2076588869094849,-0.480953574180603,-0.8962681889533997
1761299711577398000,7.75739794921875,-1.3306138515472412,-0.1771007478237152,-0.5478686690330505
1761299711597519000,7.77751904296875,-1.2011847496032715,-0.08028098940849304,-0.2447064220905304
1761299711617640700,7.797640625,-1.0702564716339111,0.04562394320964813,0.0610782690346241
1761299711637761800,7.81776171875,-1.018418312072754,0.028902754187583923,0.3922170400619507
1761299711657883600,7.837883544921875,-1.070846676826477,0.020177440717816353,0.5088360905647278
1761299711678004700,7.858004638671875,-1.228509545326233,0.12697286903858185,0.3783872425556183
1761299711698126800,7.878126953125,-1.2493064403533936,0.22311830520629883,0.15859124064445496
1761299711718247700,7.89824755859375,-1.1219325065612793,0.22629332542419434,-0.03753219544887543
1761299711738369800,7.918369873046875,-1.0647107362747192,0.05873202160000801,-0.10973288863897324
1761299711758491000,7.938490966796875,-1.0803914070129395,-0.2302616983652115,-0.0379849337041378
1761299711778612700,7.95861279296875,-1.0866639614105225,-0.3589906394481659,0.06809329986572266
1761299711798733800,7.97873388671875,-1.049776315689087,-0.47295236587524414,0.06450122594833374
1761299711818855700,7.998855712890625,-0.9727129340171814,-0.598787248134613,-0.008285360410809517
1761299711838976500,8.0189765625,-1.01024329662323,-0.5379534959793091,0.030070817098021507
1761299711859097600,8.03909765625,-1.148701548576355,-0.38276761770248413,0.21861782670021057
1761299711879219700,8.0592197265625,-1.2598131895065308,-0.7266021966934204,0.17000767588615417
1761299711899340500,8.079340576171875,-1.3631198406219482,-1.063145637512207,-0.21781595051288605
1761299711919462700,8.099462646484374,-1.445989966392517,-1.192797064781189,-0.6178243160247803
1761299711939583700,8.119583740234376,-1.4829559326171875,-1.0368218421936035,-0.8235223889350891
1761299711959705900,8.139705810546875,-1.4909666776657104,-0.8088608980178833,-0.7492278814315796
