time,seconds_elapsed,z,y,x
1761396059745371100,0.20537109375,0.05950117111206055,0.03510570526123047,-0.12396693229675293
1761396059764748800,0.224748779296875,0.021334171295166016,0.025448322296142578,-0.26076817512512207
1761396059784126700,0.244126708984375,0.17554855346679688,0.05300760269165039,-0.30028247833251953
1761396059803504400,0.26350439453125,0.005808353424072266,0.05774259567260742,-0.009721040725708008
1761396059822882000,0.282882080078125,-0.3811016082763672,0.10530805587768555,0.012751340866088867
1761396059842259700,0.302259765625,-0.30716562271118164,0.11408805847167969,-0.0009577274322509766
1761396059861637600,0.3216376953125,0.040036678314208984,0.09570741653442383,0.04509091377258301
1761396059881015300,0.341015380859375,-0.06149435043334961,0.1306753158569336,0.17671585083007812
1761396059900393000,0.36039306640625,-0.4402174949645996,0.13535594940185547,0.06619858741760254
1761396059919770600,0.3797705078125,-0.1328105926513672,0.08595752716064453,-0.05149054527282715
1761396059939148300,0.399148193359375,0.31908750534057617,0.023990154266357422,-0.12993907928466797
1761396059958526000,0.41852587890625,0.21784353256225586,0.019152164459228516,-0.20257139205932617
1761396059977903900,0.43790380859375,-0.172454833984375,0.07340478897094727,-0.1687784194946289
1761396059997281500,0.457281494140625,-0.3733363151550293,0.08995819091796875,0.0316922664642334
1761396060016659200,0.4766591796875,-0.6892275810241699,0.0797724723815918,0.11864042282104492
1761396060036036900,0.496036865234375,-0.5750389099121094,0.048636436462402344,-0.0639653205871582
1761396060055414500,0.51541455078125,-0.436612606048584,-0.0016012191772460938,-0.23394346237182617
1761396060074792400,0.53479248046875,-0.038709163665771484,-0.037839412689208984,-0.13726425170898438
1761396060094170000,0.554170166015625,0.2561922073364258,-0.04431343078613281,-0.13109660148620605
1761396060113547800,0.5735478515625,0.20036888122558594,0.015101432800292969,-0.22887587547302246
1761396060132925400,0.592925537109375,0.09982728958129883,0.04828929901123047,-0.27725863456726074
1761396060152303000,0.61230322265625,-0.0055675506591796875,0.0735325813293457,-0.2805211544036865
1761396060171680800,0.6316806640625,-0.14093303680419922,0.06744718551635742,-0.05695390701293945
1761396060191058700,0.65105859375,-0.3719921112060547,0.10102558135986328,0.12763285636901855
1761396060210436400,0.670436279296875,-0.36364078521728516,0.15041017532348633,-0.08606100082397461
1761396060229814000,0.68981396484375,0.021754741668701172,0.13353872299194336,-0.15953612327575684
1761396060249191700,0.709191650390625,0.10067033767700195,0.09209585189819336,-0.004212141036987305
1761396060268569600,0.728569580078125,-0.12547922134399414,0.07926559448242188,0.0892179012298584
1761396060287947300,0.747947265625,-0.40144920349121094,0.053475379943847656,0.0078051090240478516
1761396060307325000,0.767324951171875,-0.36687135696411133,0.03981494903564453,0.07513737678527832
1761396060326702600,0.78670263671875,-0.33926868438720703,0.05451822280883789,0.043471336364746094
1761396060346080300,0.806080322265625,-0.2630739212036133,0.036177635192871094,-0.16611242294311523
1761396060365458000,0.8254580078125,-0.30178117752075195,0.019395828247070312,-0.2557814121246338
1761396060384835800,0.8448359375,-0.04237222671508789,0.0163726806640625,-0.19992852210998535
1761396060404213500,0.864213623046875,0.20567750930786133,0.003074169158935547,-0.18894505500793457
1761396060423591200,0.883591064453125,0.19918012619018555,0.023723602294921875,-0.23311519622802734
1761396060442968800,0.90296875,-0.07521581649780273,0.10163736343383789,-0.019728422164916992
1761396060462346500,0.922346435546875,-0.3156285285949707,0.1695847511291504,0.05072355270385742
1761396060481724200,0.94172412109375,-0.22968769073486328,0.1386265754699707,-0.12541413307189941
1761396060501102000,0.96110205078125,0.0408177375793457,0.04961872100830078,-0.2438347339630127
1761396060520479700,0.980479736328125,0.20617151260375977,0.01118612289428711,-0.09091901779174805
1761396060539857400,0.999857421875,0.21065330505371094,-0.00502777099609375,-0.033899545669555664
1761396060559235000,1.019235107421875,-0.08991622924804688,0.03886747360229492,-0.1686255931854248
1761396060578612700,1.03861279296875,-0.21147966384887695,0.08279609680175781,-0.12334704399108887
1761396060597990400,1.057990478515625,-0.2798886299133301,0.09667253494262695,0.06960201263427734
1761396060617368300,1.077368408203125,-0.4266629219055176,0.06510162353515625,0.016455888748168945
1761396060636746000,1.09674609375,-0.22858572006225586,0.07049036026000977,-0.10882329940795898
1761396060656123600,1.11612353515625,0.05636739730834961,0.07244682312011719,-0.06913232803344727
1761396060675501300,1.135501220703125,0.0787200927734375,0.06031036376953125,-0.041795969009399414
1761396060694879000,1.15487890625,-0.1285543441772461,0.07353019714355469,0.04895806312561035
1761396060714257000,1.1742568359375,-0.2055988311767578,0.08333444595336914,-0.0719764232635498
1761396060733634600,1.193634521484375,-0.17395782470703125,0.04271411895751953,-0.1356813907623291
1761396060753012200,1.21301220703125,-0.15868663787841797,0.029421329498291016,-0.160552978515625
1761396060772390000,1.232389892578125,-0.2744889259338379,0.05609321594238281,-0.16884899139404297
1761396060791767600,1.251767578125,-0.4351181983947754,0.0944833755493164,-0.1777353286743164
1761396060811145200,1.271145263671875,-0.4063749313354492,0.08042573928833008,-0.21556544303894043
1761396060830523100,1.290523193359375,0.05415916442871094,0.0142669677734375,-0.11853504180908203
1761396060849900800,1.30990087890625,0.22641229629516602,0.028354167938232422,0.10470104217529297
1761396060869278500,1.329278564453125,0.20602798461914062,0.12478113174438477,-0.009378433227539062
1761396060888656100,1.34865625,0.07537555694580078,0.14614582061767578,-0.11461997032165527
1761396060908033800,1.36803369140625,-0.10564231872558594,0.07241392135620117,-0.09773564338684082
1761396060927411500,1.387411376953125,-0.11665916442871094,0.027437686920166016,-0.04017996788024902
1761396060946789400,1.406789306640625,0.07474803924560547,-0.015704631805419922,-0.11410975456237793
1761396060966167000,1.4261669921875,0.07674884796142578,-0.02995777130126953,-0.15895986557006836
1761396060985544700,1.445544677734375,-0.14295721054077148,0.0010008811950683594,-0.11002993583679199
1761396061004922400,1.46492236328125,-0.15175914764404297,0.033780574798583984,-0.06691718101501465
1761396061024300000,1.484300048828125,-0.28730297088623047,0.0864720344543457,0.008876323699951172
1761396061043677700,1.503677734375,-0.3793501853942871,0.10779380798339844,-0.02364325523376465
1761396061063055600,1.5230556640625,-0.2531003952026367,0.1024923324584961,-0.05555367469787598
1761396061082433300,1.542433349609375,-0.1354813575744629,0.0838775634765625,-0.13416314125061035
1761396061101811000,1.56181103515625,0.026683807373046875,0.0699620246887207,-0.12724971771240234
1761396061121188600,1.581188720703125,0.04323577880859375,0.04535055160522461,-0.041588544845581055
1761396061140566300,1.600566162109375,-0.09750938415527344,0.06044292449951172,-0.0518794059753418
1761396061159944200,1.619944091796875,-0.3184175491333008,0.10728073120117188,-0.1204681396484375
1761396061179321900,1.63932177734375,-0.18503999710083008,0.09801816940307617,-0.05884146690368652
1761396061198699500,1.658699462890625,0.08803558349609375,0.051690101623535156,-0.09260392189025879
1761396061218077200,1.6780771484375,-0.036921024322509766,0.06340980529785156,-0.1887822151184082
1761396061237454800,1.697454833984375,-0.15114450454711914,0.039173126220703125,-0.046829938888549805
1761396061256832500,1.71683251953125,-0.14589881896972656,0.03025197982788086,0.060555458068847656
1761396061276210400,1.73621044921875,-0.2586197853088379,0.014950275421142578,-0.04873251914978027
1761396061295588000,1.755588134765625,-0.13811492919921875,0.007679462432861328,-0.13218021392822266
1761396061314965800,1.7749658203125,-0.11722898483276367,0.041440486907958984,-0.024872541427612305
1761396061334343400,1.794343505859375,-0.052416324615478516,0.07100772857666016,-0.11122536659240723
1761396061353721000,1.81372119140625,0.055959224700927734,0.09733390808105469,-0.1349174976348877
1761396061373098800,1.8330986328125,0.03539323806762695,0.0796670913696289,-0.008680105209350586
1761396061392476400,1.852476318359375,-0.12654447555541992,0.10523557662963867,0.012738704681396484
1761396061411854300,1.871854248046875,-0.15520334243774414,0.10715913772583008,-0.04367852210998535
1761396061431232000,1.89123193359375,-0.09859943389892578,0.0705571174621582,-0.050501346588134766
1761396061450609700,1.910609619140625,-0.1029047966003418,0.045264244079589844,-0.15273237228393555
1761396061469987300,1.9299873046875,-0.13695907592773438,0.056604862213134766,-0.1397392749786377
1761396061489365000,1.949364990234375,-0.20228958129882812,0.030541419982910156,-0.11131119728088379
1761396061508742700,1.96874267578125,-0.364194393157959,0.021785736083984375,-0.21276259422302246
1761396061528120600,1.98812060546875,-0.32294559478759766,0.029333114624023438,-0.2473316192626953
1761396061547498200,2.007498291015625,-0.18214893341064453,0.030724048614501953,-0.12170886993408203
1761396061566876000,2.0268759765625,-0.1038966178894043,0.040393829345703125,-0.01151895523071289
1761396061586253600,2.046253662109375,0.03980445861816406,0.04757881164550781,-0.04784679412841797
1761396061605631200,2.06563134765625,0.17946672439575195,0.04177999496459961,-0.10983443260192871
1761396061625009000,2.0850087890625,0.13771915435791016,0.04664278030395508,-0.10193252563476562
1761396061644386600,2.104386474609375,0.05905437469482422,0.12654876708984375,-0.04427814483642578
1761396061663764500,2.123764404296875,-0.10868453979492188,0.15053224563598633,0.033200979232788086
1761396061683142100,2.14314208984375,-0.2954745292663574,0.11757612228393555,-0.025310277938842773
1761396061702519800,2.162519775390625,-0.20803403854370117,0.02344226837158203,-0.11563420295715332
1761396061721897500,2.1818974609375,0.018073558807373047,0.012564659118652344,-0.19314813613891602
1761396061741275100,2.201275146484375,0.053874969482421875,0.04624128341674805,-0.09028077125549316
1761396061760652800,2.22065283203125,-0.18235158920288086,0.09697675704956055,0.03288555145263672
1761396061780030500,2.240030517578125,-0.4930734634399414,0.09212684631347656,0.09340906143188477
1761396061799408400,2.259408447265625,-0.3586435317993164,0.03243112564086914,0.003110170364379883
1761396061818786000,2.2787861328125,-0.020502090454101562,-0.022806644439697266,-0.18042373657226562
1761396061838163700,2.298163818359375,0.07875919342041016,-0.010208606719970703,-0.19830942153930664
1761396061857541400,2.317541259765625,0.006862163543701172,0.019256114959716797,-0.13379406929016113
1761396061876919000,2.3369189453125,-0.10942649841308594,0.02031564712524414,-0.15366005897521973
1761396061896296700,2.356296630859375,-0.16918611526489258,0.044245243072509766,-0.13383054733276367
1761396061915674600,2.375674560546875,-0.09167098999023438,0.07994318008422852,-0.06498956680297852
1761396061954430000,2.414429931640625,0.04048919677734375,0.112213134765625,-0.03205537796020508
1761396061973807600,2.4338076171875,0.029955387115478516,0.09313201904296875,-0.04341411590576172
1761396061993185300,2.453185302734375,-0.1902141571044922,0.09925127029418945,-0.012829303741455078
1761396062012563000,2.47256298828125,-0.37319421768188477,0.10311365127563477,-0.022238731384277344
1761396062031940900,2.49194091796875,-0.22390985488891602,0.07383918762207031,-0.05746817588806152
1761396062051318500,2.511318603515625,-0.08171367645263672,0.04850578308105469,-0.04221057891845703
1761396062070696200,2.5306962890625,-0.11265850067138672,0.05500507354736328,-0.03895092010498047
1761396062090073900,2.550073974609375,-0.1378178596496582,0.06140279769897461,-0.12740707397460938
1761396062109451500,2.569451416015625,-0.09249496459960938,-0.003093242645263672,-0.15216326713562012
1761396062128829200,2.5888291015625,-0.11268043518066406,-0.000054836273193359375,-0.14149856567382812
1761396062148206800,2.608206787109375,-0.3601665496826172,0.02240133285522461,-0.07778048515319824
1761396062167584800,2.627584716796875,-0.22160959243774414,0.03358316421508789,-0.1404891014099121
1761396062186962400,2.64696240234375,0.06230592727661133,0.05347394943237305,-0.05091667175292969
1761396062206340000,2.666340087890625,0.26773738861083984,0.04492521286010742,-0.12496042251586914
1761396062225717800,2.6857177734375,0.02509021759033203,0.08358430862426758,-0.1146697998046875
1761396062245095400,2.705095458984375,-0.31862592697143555,0.08172988891601562,-0.032265663146972656
1761396062264473000,2.72447314453125,-0.22355079650878906,0.06869649887084961,-0.09754633903503418
1761396062283850800,2.743850830078125,0.10655069351196289,0.05167675018310547,-0.06370735168457031
1761396062303228700,2.763228759765625,-0.07119083404541016,0.06774377822875977,0.06646585464477539
1761396062322606300,2.7826064453125,-0.3691415786743164,0.08849239349365234,0.007936239242553711
1761396062341984000,2.80198388671875,-0.3025336265563965,0.06387996673583984,-0.11060976982116699
1761396062361361700,2.821361572265625,-0.03086996078491211,0.03866863250732422,-0.168104887008667
1761396062380739300,2.8407392578125,0.10933828353881836,0.007790565490722656,-0.17522954940795898
1761396062400117000,2.860116943359375,-0.1752328872680664,0.028499126434326172,-0.08367133140563965
1761396062419494700,2.87949462890625,-0.2941598892211914,0.0485844612121582,-0.09068107604980469
1761396062438872300,2.898872314453125,-0.1790475845336914,0.09586286544799805,-0.06955552101135254
1761396062458250200,2.918250244140625,0.03318023681640625,0.04855823516845703,-0.016460418701171875
1761396062477628000,2.9376279296875,0.17621946334838867,0.03949594497680664,-0.08155012130737305
1761396062497005600,2.957005615234375,-0.005153179168701172,0.0459294319152832,-0.12887167930603027
1761396062516383200,2.97638330078125,-0.20298480987548828,0.08523082733154297,-0.24646353721618652
1761396062535761000,2.995760986328125,-0.16162824630737305,0.05859947204589844,-0.19198989868164062
1761396062555138600,3.015138671875,-0.020648956298828125,0.056426048278808594,-0.007531642913818359
1761396062574516200,3.03451611328125,0.11242866516113281,0.03484010696411133,-0.04515886306762695
1761396062593894100,3.05389404296875,-0.1088709831237793,0.0915679931640625,-0.18013501167297363
1761396062613271800,3.073271728515625,-0.29285478591918945,0.09134864807128906,-0.05045342445373535
1761396062632649500,3.0926494140625,-0.17380523681640625,0.08558511734008789,0.03968954086303711
1761396062652027100,3.112027099609375,-0.02977132797241211,0.062430381774902344,0.008006811141967773
1761396062671404800,3.13140478515625,-0.14130210876464844,0.03964710235595703,0.03745603561401367
1761396062690782500,3.150782470703125,-0.41744279861450195,0.029457569122314453,0.037404775619506836
1761396062710160100,3.17016015625,-0.27451276779174805,-0.0022325515747070312,-0.09936690330505371
1761396062729538000,3.1895380859375,0.05523872375488281,0.006024360656738281,-0.12450814247131348
1761396062748915500,3.20891552734375,-0.008616447448730469,0.040456295013427734,-0.05253005027770996
1761396062768293400,3.22829345703125,-0.34012460708618164,0.05552387237548828,0.0055806636810302734
1761396062787671000,3.247671142578125,-0.2169032096862793,0.048094749450683594,0.023929595947265625
1761396062807048700,3.267048583984375,-0.010007381439208984,0.06982088088989258,-0.10253572463989258
1761396062826426400,3.28642626953125,-0.014650821685791016,0.09001016616821289,-0.14557194709777832
1761396062845804000,3.305803955078125,-0.10271596908569336,0.07724857330322266,-0.11059832572937012
1761396062865181700,3.325181640625,-0.07272958755493164,0.0199432373046875,-0.18649578094482422
1761396062884559400,3.344559326171875,0.0020132064819335938,0.03375101089477539,-0.2682039737701416
1761396062903937300,3.363937255859375,0.09830141067504883,0.06483793258666992,-0.21938085556030273
1761396062923315000,3.38331494140625,0.018730640411376953,0.04990243911743164,-0.070526123046875
1761396062942692600,3.402692626953125,-0.20560741424560547,0.054761409759521484,0.01694202423095703
1761396062962070300,3.4220703125,-0.18981122970581055,0.05852651596069336,-0.06528759002685547
1761396062981448000,3.441447998046875,-0.09787654876708984,0.05231523513793945,-0.0845942497253418
1761396063000825600,3.46082568359375,-0.1595439910888672,0.03504228591918945,-0.11428308486938477
1761396063020203300,3.480203369140625,-0.14466619491577148,0.018924713134765625,-0.14210867881774902
1761396063039581000,3.499580810546875,-0.046405792236328125,0.011214733123779297,-0.07688784599304199
1761396063058958800,3.518958740234375,-0.044003963470458984,0.038486480712890625,0.013557195663452148
1761396063078336500,3.53833642578125,0.06408882141113281,0.05091238021850586,0.00707244873046875
1761396063097714200,3.557714111328125,-0.13135766983032227,0.09166812896728516,0.08578884601593018
1761396063117091800,3.577091796875,-0.4242582321166992,0.07867860794067383,-0.009913921356201172
1761396063136469500,3.596469482421875,-0.22463655471801758,0.030033588409423828,-0.22215056419372559
1761396063155847200,3.61584716796875,0.046356201171875,0.0009751319885253906,-0.17456674575805664
1761396063175224800,3.635224853515625,-0.12323856353759766,0.0328526496887207,-0.014290809631347656
1761396063194602500,3.6546025390625,-0.19706392288208008,0.0955953598022461,-0.05406045913696289
1761396063213980400,3.67398046875,-0.11356019973754883,0.1144566535949707,-0.1026453971862793
1761396063233358000,3.693358154296875,0.07924842834472656,0.08938789367675781,0.15080666542053223
1761396063252735700,3.71273583984375,0.1327953338623047,0.1099557876586914,0.1408160924911499
1761396063272113400,3.732113525390625,-0.049012184143066406,0.0967397689819336,-0.0013537406921386719
1761396063291491000,3.751490966796875,-0.12281417846679688,0.039487361907958984,-0.05840420722961426
1761396063310868700,3.77086865234375,0.027053356170654297,0.007620811462402344,-0.11136102676391602
1761396063330246400,3.790246337890625,0.07611227035522461,0.004192829132080078,-0.10881328582763672
1761396063349624000,3.8096240234375,-0.24026966094970703,0.00846099853515625,-0.07259654998779297
1761396063369002000,3.829001953125,-0.337557315826416,0.025115489959716797,-0.09489321708679199
1761396063388379600,3.848379638671875,-0.26665163040161133,0.05395698547363281,-0.1781153678894043
1761396063407757300,3.86775732421875,-0.22796249389648438,0.04096031188964844,-0.2403881549835205
1761396063427135000,3.887135009765625,-0.04796123504638672,0.003992557525634766,-0.2379467487335205
1761396063446512600,3.9065126953125,0.021800994873046875,-0.004822254180908203,-0.23327207565307617
1761396063465890300,3.925890380859375,0.023220539093017578,0.06461620330810547,-0.22459959983825684
1761396063485268000,3.94526806640625,0.09527444839477539,0.10166740417480469,-0.11498630046844482
1761396063504645600,3.964645751953125,-0.06628799438476562,0.1098790168762207,0.09210503101348877
1761396063524023600,3.9840234375,-0.212249755859375,0.09132862091064453,0.07176411151885986
1761396063543401200,4.003401123046875,-0.2911715507507324,0.05722808837890625,-0.014584541320800781
1761396063562779000,4.02277880859375,-0.0752706527709961,-0.013188362121582031,-0.07940661907196045
1761396063582156500,4.042156494140625,0.030550479888916016,0.010894298553466797,-0.10609292984008789
1761396063601534200,4.0615341796875,-0.011590003967285156,0.03202533721923828,0.03686094284057617
1761396063620911900,4.080911865234375,-0.018436908721923828,0.04613971710205078,0.06982159614562988
1761396063640289500,4.10028955078125,-0.23250055313110352,0.0765228271484375,0.0576472282409668
1761396063659667200,4.119667236328125,-0.4155864715576172,0.06365585327148438,-0.024549365043640137
1761396063679044900,4.139044921875,-0.2647695541381836,0.0597844123840332,-0.09758973121643066
1761396063698422800,4.1584228515625,0.04275035858154297,0.033133506774902344,-0.08373665809631348
1761396063718091300,4.17809130859375,0.2056741714477539,0.04029035568237305,-0.16212069988250732
1761396063737856300,4.197856201171875,0.17374897003173828,0.06492090225219727,-0.18526887893676758
1761396063757621500,4.21762158203125,-0.05103254318237305,0.07843589782714844,-0.04565012454986572
1761396063777386800,4.23738671875,-0.2877826690673828,0.08602714538574219,-0.0651620626449585
1761396063797152000,4.257152099609375,-0.28959226608276367,0.05657196044921875,-0.08268201351165771
1761396063816917200,4.276917236328125,-0.09561347961425781,0.01911163330078125,-0.0501781702041626
1761396063836682200,4.29668212890625,-0.0537714958190918,0.007346630096435547,-0.11336803436279297
1761396063856447500,4.316447509765625,-0.08273077011108398,0.04372739791870117,-0.09848499298095703
1761396063876212700,4.336212646484375,-0.05475759506225586,0.06609964370727539,-0.06847143173217773
1761396063895978000,4.35597802734375,-0.06588888168334961,0.03522157669067383,-0.043816447257995605
1761396063915743000,4.375742919921875,-0.027100086212158203,0.025028228759765625,0.04464387893676758
1761396063935508200,4.39550830078125,-0.09774541854858398,0.07391023635864258,0.0371779203414917
1761396063955177200,4.41517724609375,-0.2873845100402832,0.07362174987792969,-0.08374786376953125
1761396063974554600,4.4345546875,-0.21816205978393555,0.041632652282714844,-0.11079585552215576
1761396063993932500,4.4539326171875,0.07536888122558594,-0.01500701904296875,-0.17253327369689941
1761396064013310200,4.473310302734375,0.10033941268920898,-0.0030078887939453125,-0.12913775444030762
1761396064032687900,4.49268798828125,-0.17965316772460938,0.07225465774536133,-0.08721315860748291
1761396064052065500,4.5120654296875,-0.2658681869506836,0.08549976348876953,-0.045673370361328125
1761396064071443200,4.531443115234375,-0.1250905990600586,0.05341053009033203,-0.02424335479736328
1761396064090820900,4.55082080078125,-0.05341815948486328,0.036989688873291016,-0.08952367305755615
1761396064110198500,4.570198486328125,0.03514719009399414,0.052416324615478516,-0.11499536037445068
1761396064129576200,4.589576171875,0.035042762756347656,0.06860828399658203,-0.07683205604553223
1761396064148953900,4.608953857421875,-0.05172157287597656,0.020936965942382812,-0.007290005683898926
1761396064168331800,4.628331787109375,-0.2157444953918457,0.01616048812866211,-0.01520848274230957
1761396064187709400,4.64770947265625,-0.26876068115234375,0.025463104248046875,-0.157379150390625
1761396064207087000,4.667087158203125,-0.12276363372802734,0.010234355926513672,-0.20093071460723877
1761396064226464800,4.68646484375,0.014899730682373047,0.029088973999023438,-0.04296529293060303
1761396064245842400,4.705842529296875,-0.09918355941772461,0.08345174789428711,0.0959399938583374
1761396064265220000,4.72522021484375,-0.15924501419067383,0.07915973663330078,-0.010720491409301758
1761396064284597800,4.74459765625,-0.10947656631469727,0.05538511276245117,-0.15751636028289795
1761396064303975400,4.763975341796875,0.0019516944885253906,0.00995016098022461,-0.15831589698791504
1761396064323353000,4.78335302734375,0.1185307502746582,0.022584915161132812,-0.1279832124710083
1761396064342731000,4.80273095703125,0.11218023300170898,0.11475324630737305,-0.09881782531738281
1761396064362108700,4.822108642578125,-0.08599472045898438,0.12735271453857422,0.057598114013671875
1761396064381486300,4.841486328125,-0.18012237548828125,0.07263851165771484,0.14689385890960693
1761396064400864000,4.860864013671875,-0.2717890739440918,0.04303264617919922,0.08201491832733154
1761396064420241700,4.88024169921875,-0.2592306137084961,0.02767181396484375,-0.09172475337982178
1761396064439619300,4.899619384765625,-0.25026416778564453,-0.017025470733642578,-0.22179555892944336
1761396064458997000,4.9189970703125,-0.24096107482910156,-0.046639442443847656,-0.187217116355896
1761396064478374700,4.938374755859375,-0.050177574157714844,-0.049388885498046875,-0.13438522815704346
1761396064497752300,4.95775244140625,0.04447793960571289,0.030503273010253906,-0.15377342700958252
1761396064517130000,4.9771298828125,-0.0927438735961914,0.07154655456542969,-0.15823006629943848
1761396064536507600,4.996507568359375,-0.07978057861328125,0.047887325286865234,-0.07728040218353271
1761396064555885300,5.01588525390625,0.22884321212768555,0.019569873809814453,-0.18563294410705566
1761396064575263200,5.03526318359375,0.1960287094116211,0.02129364013671875,-0.2139875888824463
1761396064594641000,5.054640869140625,-0.21226739883422852,0.050415992736816406,-0.05077183246612549
1761396064614018600,5.0740185546875,-0.25906801223754883,0.08863544464111328,0.09370982646942139
1761396064633396200,5.093396240234375,-0.0775456428527832,0.09176254272460938,-0.015023589134216309
1761396064652774000,5.11277392578125,-0.00847768783569336,0.11078357696533203,-0.06981790065765381
1761396064672151600,5.132151611328125,-0.13153457641601562,0.104644775390625,0.07366061210632324
1761396064691529200,5.151529296875,-0.13652753829956055,0.0633087158203125,0.10671842098236084
1761396064710907000,5.170906982421875,-0.09029579162597656,0.04557991027832031,-0.02519834041595459
1761396064730284500,5.190284423828125,-0.07558822631835938,0.017394065856933594,-0.0978168249130249
1761396064749662200,5.209662109375,-0.15321683883666992,0.022642135620117188,-0.11185503005981445
1761396064769040100,5.2290400390625,-0.1720290184020996,0.023624420166015625,-0.05885946750640869
1761396064788417800,5.248417724609375,-0.09779834747314453,0.025890350341796875,-0.011460185050964355
1761396064807795500,5.26779541015625,-0.03768110275268555,0.036650657653808594,0.0015267133712768555
1761396064827173000,5.287173095703125,0.0314183235168457,0.037756919860839844,-0.10759735107421875
1761396064846550800,5.30655078125,0.037281036376953125,0.04326057434082031,-0.17797541618347168
1761396064865928400,5.325928466796875,-0.04027557373046875,0.02882099151611328,-0.09448421001434326
1761396064885306000,5.34530615234375,-0.13791275024414062,0.039750099182128906,-0.021100163459777832
1761396064904683800,5.364683837890625,-0.16737604141235352,0.02543354034423828,-0.07717430591583252
1761396064924061400,5.3840615234375,-0.16547012329101562,0.029321670532226562,-0.09338748455047607
1761396064943439000,5.403439208984375,-0.04664754867553711,0.06266212463378906,-0.09996438026428223
1761396064962816800,5.422816650390625,0.05493354797363281,0.055962562561035156,-0.05824625492095947
1761396064982194400,5.4421943359375,-0.033843994140625,0.07599353790283203,-0.026271820068359375
1761396065001572400,5.461572265625,-0.1606302261352539,0.08831119537353516,-0.021608710289001465
1761396065020950000,5.480949951171875,-0.11399602890014648,0.06859207153320312,0.008393526077270508
1761396065040327700,5.50032763671875,-0.0538182258605957,0.037334442138671875,0.009670019149780273
1761396065059705300,5.519705322265625,-0.08102560043334961,0.01652240753173828,-0.014871597290039062
1761396065079083000,5.5390830078125,-0.10945749282836914,0.014364242553710938,-0.11621546745300293
1761396065098460700,5.558460693359375,-0.0901637077331543,-0.01251983642578125,-0.17917096614837646
1761396065117838300,5.57783837890625,-0.1349954605102539,0.05395221710205078,-0.07679092884063721
1761396065137216000,5.597216064453125,-0.0846090316772461,0.08610725402832031,0.05883753299713135
1761396065156593700,5.61659375,-0.10486030578613281,0.08337116241455078,-0.08396363258361816
1761396065175971300,5.635971435546875,-0.054741859436035156,0.041466712951660156,-0.26759910583496094
1761396065195349000,5.655348876953125,0.10624265670776367,0.004076957702636719,-0.1984919309616089
1761396065214726700,5.6747265625,0.1594090461730957,0.032848358154296875,-0.0957258939743042
1761396065234104300,5.694104248046875,0.036980628967285156,0.08054161071777344,0.023648858070373535
1761396065253482200,5.713482177734375,-0.1401371955871582,0.07030487060546875,0.02275371551513672
1761396065272860000,5.73285986328125,-0.19762372970581055,0.05827617645263672,-0.009718656539916992
1761396065292237600,5.752237548828125,-0.16789579391479492,0.0168914794921875,-0.021590828895568848
1761396065311615200,5.771615234375,-0.21589326858520508,-0.013955116271972656,-0.045435547828674316
1761396065330993000,5.790992919921875,-0.20949697494506836,-0.008798599243164062,-0.1359846591949463
1761396065350370600,5.81037060546875,-0.1911149024963379,0.02647113800048828,-0.038622140884399414
1761396065369748200,5.829748291015625,-0.07894515991210938,0.030796051025390625,0.07414817810058594
1761396065389126000,5.8491259765625,0.05367565155029297,0.032502174377441406,-0.062465786933898926
1761396065408503600,5.868503662109375,0.1236419677734375,0.027612686157226562,-0.19815611839294434
1761396065427881200,5.887881103515625,-0.025284767150878906,0.095947265625,-0.03520059585571289
1761396065447259000,5.9072587890625,-0.1362466812133789,0.09633541107177734,0.044448137283325195
1761396065466636800,5.92663671875,-0.021508216857910156,0.07868480682373047,-0.04484117031097412
1761396065486014200,5.94601416015625,-0.06285715103149414,0.056084632873535156,-0.12479591369628906
1761396065505392000,5.96539208984375,-0.16724443435668945,0.03730297088623047,-0.12375223636627197
1761396065524769800,5.984769775390625,-0.08095598220825195,0.00244903564453125,-0.06457698345184326
1761396065544147500,6.0041474609375,-0.0490107536315918,0.015459060668945312,-0.09386956691741943
1761396065563525000,6.023525146484375,-0.1804032325744629,0.025267601013183594,-0.15612173080444336
1761396065582902800,6.04290283203125,-0.2227463722229004,0.041792869567871094,-0.03428208827972412
1761396065602280400,6.062280517578125,-0.1311631202697754,0.06276607513427734,-0.004213213920593262
1761396065621658000,6.081658203125,0.07433938980102539,0.06733512878417969,-0.10481655597686768
1761396065641035800,6.101035888671875,0.2037358283996582,0.015337944030761719,-0.1037825345993042
1761396065660413400,6.120413330078125,0.1439037322998047,0.005393028259277344,-0.03680121898651123
1761396065679791000,6.139791015625,-0.09726142883300781,0.042977333068847656,0.01851069927215576
1761396065699168800,6.159168701171875,-0.38913917541503906,0.05063915252685547,-0.037613630294799805
1761396065718546400,6.17854638671875,-0.3803229331970215,0.03360557556152344,-0.12224030494689941
1761396065737924400,6.19792431640625,-0.05692911148071289,-0.017536163330078125,-0.15247297286987305
1761396065757301800,6.2173017578125,0.11802959442138672,-0.018044471740722656,-0.10206294059753418
1761396065776679700,6.2366796875,-0.06926631927490234,0.048689842224121094,-0.00045049190521240234
1761396065796057300,6.256057373046875,-0.13976621627807617,0.08738994598388672,-0.0034475326538085938
1761396065815435000,6.27543505859375,-0.009320259094238281,0.08589839935302734,-0.06265020370483398
1761396065834812700,6.294812744140625,0.1275954246520996,0.07738590240478516,-0.08049488067626953
1761396065854190300,6.3141904296875,0.055840492248535156,0.06694698333740234,0.02743542194366455
1761396065873568000,6.333568115234375,-0.01061391830444336,0.05005836486816406,0.03870034217834473
1761396065892945700,6.352945556640625,-0.07958078384399414,0.025684356689453125,-0.07821714878082275
1761396065912323300,6.3723232421875,-0.3298354148864746,0.021154403686523438,-0.06677985191345215
1761396065931701000,6.391700927734375,-0.41257524490356445,0.0022039413452148438,0.04629230499267578
1761396065951078700,6.41107861328125,-0.15559911727905273,-0.003688812255859375,-0.139357328414917
1761396065970456300,6.430456298828125,0.08265399932861328,0.009673118591308594,-0.23702776432037354
1761396065989834000,6.449833984375,0.08040809631347656,0.031925201416015625,-0.043244123458862305
1761396066009211600,6.469211669921875,-0.029317378997802734,0.054764747619628906,0.013622879981994629
1761396066028589300,6.48858935546875,-0.07391977310180664,0.06134510040283203,-0.03163039684295654
1761396066047967000,6.507967041015625,-0.10447120666503906,0.048453330993652344,-0.0744180679321289
1761396066067345000,6.527344970703125,-0.08769989013671875,0.038598060607910156,-0.0904538631439209
1761396066086722600,6.54672265625,-0.08381414413452148,0.014726638793945312,-0.10508501529693604
1761396066106100200,6.566100341796875,-0.08168363571166992,0.03073406219482422,-0.18569207191467285
1761396066125478000,6.585477783203125,-0.01963949203491211,0.02995586395263672,-0.1542036533355713
1761396066144855600,6.60485546875,0.03818178176879883,0.010836601257324219,-0.046151041984558105
1761396066164233200,6.624233154296875,-0.044898033142089844,0.059691429138183594,0.06784868240356445
1761396066183611000,6.64361083984375,-0.0949397087097168,0.11747074127197266,0.07259666919708252
1761396066202988500,6.662988525390625,-0.030169010162353516,0.10317039489746094,0.07135152816772461
1761396066222366200,6.6823662109375,0.1001291275024414,0.05518341064453125,-0.023113369941711426
1761396066241744000,6.701743896484375,-0.1077423095703125,0.014377593994140625,-0.003049612045288086
1761396066261121500,6.72112158203125,-0.2740750312805176,0.03331565856933594,-0.006368398666381836
1761396066280499200,6.740499267578125,-0.19905900955200195,0.0027780532836914062,-0.045590758323669434
1761396066299876900,6.759876953125,-0.12186479568481445,-0.020412445068359375,-0.1257624626159668
1761396066319254500,6.779254638671875,-0.0038895606994628906,0.000217437744140625,-0.08242285251617432
1761396066338632200,6.798632080078125,0.03839921951293945,0.024623870849609375,-0.009240865707397461
1761396066358009900,6.818009765625,-0.06790304183959961,0.0500335693359375,-0.0510789155960083
1761396066377387800,6.8373876953125,-0.13389873504638672,0.07105350494384766,-0.03448772430419922
1761396066396765400,6.856765380859375,-0.1379375457763672,0.07593154907226562,-0.04825103282928467
1761396066416142800,6.876142822265625,-0.02648448944091797,0.054940223693847656,-0.22034919261932373
1761396066435520800,6.895520751953125,0.08120012283325195,0.01651763916015625,-0.28377556800842285
1761396066454898400,6.9148984375,0.12122201919555664,0.011462211608886719,-0.18629419803619385
1761396066474276000,6.934276123046875,0.07594776153564453,0.021793365478515625,0.005114555358886719
1761396066493653800,6.95365380859375,-0.10686874389648438,0.07083415985107422,0.05306267738342285
1761396066513031400,6.973031494140625,-0.23308658599853516,0.055701255798339844,0.018664240837097168
1761396066532409000,6.9924091796875,-0.28458690643310547,0.013628005981445312,0.0231400728225708
1761396066551786800,7.011786865234375,-0.22560739517211914,-0.020447731018066406,-0.006181001663208008
1761396066571164400,7.031164306640625,-0.0798335075378418,-0.0205841064453125,-0.10532498359680176
1761396066590542000,7.0505419921875,-0.03004932403564453,0.011463165283203125,-0.15630555152893066
1761396066609919700,7.069919677734375,-0.07822036743164062,-0.0020694732666015625,-0.12768888473510742
1761396066629297400,7.08929736328125,-0.056143760681152344,-0.005722999572753906,-0.03576838970184326
1761396066648675000,7.108675048828125,-0.006781578063964844,0.045350074768066406,-0.06524991989135742
1761396066668052700,7.128052734375,-0.023142337799072266,0.09696388244628906,-0.0015366077423095703
1761396066687430400,7.147430419921875,-0.03478527069091797,0.1098012924194336,0.08528494834899902
1761396066706808000,7.16680810546875,0.018341541290283203,0.08918094635009766,0.00815582275390625
1761396066726185700,7.186185791015625,0.1714920997619629,0.051032066345214844,-0.12964117527008057
1761396066745563400,7.2055634765625,0.14976263046264648,0.048305511474609375,-0.022660374641418457
1761396066764941300,7.22494140625,-0.10210609436035156,0.07844924926757812,0.12944555282592773
1761396066784319000,7.244319091796875,-0.3415031433105469,0.13386821746826172,0.14089012145996094
1761396066803696600,7.263696533203125,-0.2333526611328125,0.10919666290283203,0.08343088626861572
1761396066823074300,7.28307421875,0.008318901062011719,0.08658123016357422,-0.05359828472137451
1761396066842452000,7.302451904296875,0.03112936019897461,0.058943748474121094,0.09568464756011963
1761396066861829600,7.32182958984375,-0.09776544570922852,0.02637481689453125,0.10960888862609863
1761396066881207300,7.341207275390625,-0.23143625259399414,-0.006244659423828125,0.024640560150146484
1761396066900585000,7.3605849609375,-0.23085594177246094,-0.019852161407470703,-0.00892329216003418
1761396066919962600,7.379962646484375,-0.23676633834838867,-0.04073381423950195,-0.1335756778717041
1761396066939340300,7.39934033203125,-0.17928647994995117,-0.06798505783081055,-0.310152530670166
1761396066958718000,7.418718017578125,-0.007503032684326172,-0.05141401290893555,-0.30490565299987793
1761396066978095600,7.438095703125,0.0921640396118164,-0.04998302459716797,-0.11340808868408203
1761396066997473300,7.457473388671875,-0.08129739761352539,0.036045074462890625,-0.13858509063720703
1761396067016851000,7.476850830078125,-0.13097667694091797,0.10511541366577148,-0.12561345100402832
1761396067036228600,7.496228515625,0.09701299667358398,0.06682729721069336,-0.05424928665161133
1761396067055606300,7.515606201171875,0.1753673553466797,-0.013141632080078125,-0.0640254020690918
1761396067074984000,7.53498388671875,-0.027881145477294922,-0.005789279937744141,-0.18302559852600098
1761396067094361600,7.554361572265625,-0.20465850830078125,0.06339883804321289,-0.12373757362365723
1761396067113739300,7.5737392578125,-0.15812158584594727,0.09297037124633789,0.031002283096313477
1761396067133117000,7.593116943359375,0.01517486572265625,0.0506596565246582,-0.024641036987304688
1761396067152494600,7.61249462890625,-0.062285423278808594,0.026796340942382812,-0.11484885215759277
1761396067171872300,7.631872314453125,-0.12389135360717773,0.020526409149169922,-0.029102325439453125
1761396067191250200,7.651250244140625,-0.07578563690185547,0.01802539825439453,0.0023345947265625
1761396067210627800,7.6706279296875,-0.058826446533203125,-0.007567405700683594,-0.13449382781982422
1761396067230005200,7.690005126953125,0.022835731506347656,-0.03952598571777344,-0.18132805824279785
1761396067249383200,7.709383056640625,-0.025200843811035156,0.01626110076904297,-0.0806877613067627
1761396067268760800,7.7287607421875,-0.027321338653564453,0.05667543411254883,-0.031913042068481445
1761396067288138500,7.748138427734375,-0.03607749938964844,0.062161922454833984,-0.13623833656311035
1761396067307516200,7.76751611328125,0.00032901763916015625,0.052797794342041016,-0.18703246116638184
1761396067326893800,7.786893798828125,0.07800483703613281,0.030970096588134766,-0.011701822280883789
1761396067346271500,7.806271484375,0.0656733512878418,0.06358814239501953,0.0566563606262207
1761396067365649200,7.825649169921875,-0.12930011749267578,0.059215545654296875,0.0027434825897216797
1761396067385026800,7.84502685546875,-0.30149412155151367,0.035616397857666016,-0.026193618774414062
1761396067404404500,7.864404541015625,-0.3528923988342285,-0.01851177215576172,0.009856224060058594
1761396067423782100,7.8837822265625,-0.30384111404418945,0.010985374450683594,-0.08438515663146973
1761396067443159800,7.903159912109375,0.14551591873168945,-0.016501426696777344,-0.054418087005615234
1761396067462537500,7.922537353515625,0.33153676986694336,-0.00842142105102539,0.16221928596496582
1761396067481915100,7.9419150390625,-0.026955127716064453,0.09191036224365234,0.18895840644836426
1761396067501292800,7.961292724609375,-0.2653217315673828,0.16943788528442383,0.00663447380065918
1761396067520670500,7.98067041015625,-0.09631013870239258,0.13291168212890625,-0.2098712921142578
1761396067540048100,8.000048095703125,0.08079957962036133,0.025974273681640625,-0.11842989921569824
1761396067559425800,8.01942578125,0.22918033599853516,-0.046036720275878906,0.1780545711517334
1761396067578803500,8.038803466796875,-0.020650386810302734,-0.038919925689697266,0.3017622232437134
1761396067598181000,8.05818115234375,-0.38774585723876953,-0.01435995101928711,0.08948564529418945
1761396067617558800,8.077558837890624,-0.44455766677856445,0.006512165069580078,-0.09287834167480469
1761396067636936400,8.0969365234375,-0.03714561462402344,-0.04449939727783203,-0.16550540924072266
1761396067656314000,8.116314208984376,0.17045354843139648,-0.0697336196899414,-0.3325066566467285
1761396067675691800,8.13569189453125,-0.018209457397460938,0.03150653839111328,-0.22238636016845703
1761396067695069400,8.1550693359375,-0.19309186935424805,0.05258321762084961,0.10968637466430664
1761396067714447000,8.174447021484376,-0.061699867248535156,0.05522298812866211,-0.08063602447509766
1761396067733824800,8.19382470703125,-0.13001346588134766,0.08723211288452148,-0.11799907684326172
1761396067753202400,8.213202392578125,-0.3577265739440918,0.14175748825073242,0.1555929183959961
1761396067772580000,8.232580078125,-0.4045877456665039,0.07277345657348633,0.016427993774414062
1761396067791957800,8.251957763671875,-0.09134054183959961,0.14218664169311523,-0.1621990203857422
1761396067811335400,8.27133544921875,0.13147354125976562,-0.019810199737548828,0.19940733909606934
1761396067830713300,8.29071337890625,0.3768806457519531,0.059902191162109375,-0.4268465042114258
1761396067850091000,8.310091064453125,0.6885676383972168,0.10735416412353516,-0.6977438926696777
1761396067869468700,8.32946875,0.4167637825012207,0.24631595611572266,0.009931802749633789
1761396067888846300,8.348846435546875,-0.3331913948059082,-0.16428327560424805,0.6041520833969116
1761396067908224000,8.36822412109375,-0.5750045776367188,-0.03751373291015625,-0.10445570945739746
1761396067927601700,8.3876015625,-0.16790294647216797,-0.041730403900146484,-0.441591739654541
1761396067946979300,8.406979248046875,0.15235662460327148,-0.2909073829650879,0.007397651672363281
1761396067966357000,8.42635693359375,-0.021829605102539062,0.20012331008911133,0.03426194190979004
1761396067985734700,8.445734619140625,-0.31319761276245117,0.12771272659301758,0.4208385944366455
1761396068005112300,8.4651123046875,0.04899740219116211,0.0028934478759765625,0.06652188301086426
1761396068024490000,8.484489990234374,0.19107675552368164,-0.045935630798339844,-0.17012643814086914
1761396068043867600,8.50386767578125,0.1929936408996582,0.04100322723388672,-0.14725184440612793
1761396068063245300,8.523245361328126,-0.34770774841308594,0.21100568771362305,0.07100296020507812
1761396068082623000,8.542623046875,-0.5887656211853027,0.19734907150268555,0.3388712406158447
1761396068102000600,8.562000732421875,-0.07769632339477539,0.028161048889160156,0.18623995780944824
1761396068121378300,8.58137841796875,0.5112743377685547,-0.13909387588500977,-0.1142280101776123
1761396068140756000,8.600755859375,0.4704246520996094,-0.07551860809326172,-0.4022669792175293
1761396068160133600,8.620133544921876,-0.004976749420166016,0.015204906463623047,-0.30777883529663086
1761396068179511300,8.63951123046875,-0.7350220680236816,0.04837799072265625,-0.11525821685791016
1761396068198889000,8.658888916015625,-0.4665250778198242,0.00019121170043945312,0.09216809272766113
1761396068218266600,8.6782666015625,-0.18529844284057617,0.061102867126464844,0.2639799118041992
1761396068237644300,8.697644287109375,0.23573589324951172,0.01673269271850586,0.2208847999572754
1761396068257022000,8.71702197265625,0.9078445434570312,-0.000019550323486328125,0.19353532791137695
1761396068276399600,8.736399658203124,-0.1143178939819336,0.0407414436340332,-0.1752185821533203
1761396068295777300,8.75577734375,-0.6399235725402832,0.038805484771728516,-0.7411046028137207
1761396068315155000,8.775155029296876,-0.017704010009765625,0.09561300277709961,-0.6815307140350342
1761396068334532600,8.79453271484375,0.22480392456054688,0.026448726654052734,0.2837541103363037
1761396068353910300,8.81391015625,-0.3476743698120117,0.25737714767456055,0.5591628551483154
1761396068373288000,8.833287841796874,-0.5259909629821777,0.2125401496887207,0.3856170177459717
