time,seconds_elapsed,z,y,x
1761396059647362600,0.107362548828125,0.020616095513105392,-0.03695625811815262,0.005497625097632408
1761396059686118100,0.1461181640625,0.028404397889971733,-0.09666658192873001,-0.06184828653931618
1761396059705495800,0.165495849609375,0.0459662564098835,-0.05497625470161438,-0.046729814261198044
1761396059724873500,0.18487353515625,0.05238015204668045,0.024433890357613564,0.0068720318377017975
1761396059744251100,0.204251220703125,0.03665083646774292,-0.018783552572131157,0.05421269312500954
1761396059763628800,0.22362890625,0.030695075169205666,-0.06612421572208405,0.06001574173569679
1761396059783006700,0.2430068359375,0.08078455179929733,-0.04016320779919624,0.07971556484699249
1761396059802384400,0.26238427734375,0.08933641016483307,-0.06032116711139679,0.11865708231925964
1761396059821762000,0.281761962890625,0.05894676223397255,-0.0656660795211792,0.10262233763933182
1761396059841139700,0.3011396484375,0.058335911482572556,-0.026877280324697495,0.04184303805232048
1761396059860517600,0.320517578125,0.06062658876180649,0.014660334214568138,0.04306473210453987
1761396059879895300,0.339895263671875,0.031000498682260513,-0.026877280324697495,0.08307522535324097
1761396059899273000,0.35927294921875,-0.0068720318377017975,-0.05085303261876106,0.0594048947095871
1761396059918650600,0.378650634765625,-0.004123218823224306,-0.027182703837752342,0.010995250195264816
1761396059938028300,0.3980283203125,0.009468132629990578,-0.012064233422279358,0.059710320085287094
1761396059957406000,0.417406005859375,0.031916771084070206,-0.041384901851415634,0.14843589067459106
1761396059976784000,0.436783935546875,0.0653606578707695,-0.03588727489113808,0.17317520081996918
1761396059996161500,0.45616162109375,0.0528382882475853,-0.0850604772567749,0.13988402485847473
1761396060015539200,0.475539306640625,0.011453386396169662,-0.05421269312500954,0.05619794875383377
1761396060034916900,0.494916748046875,-0.014813045971095562,0.01572931744158268,-0.03558185324072838
1761396060054294500,0.51429443359375,-0.01175880990922451,-0.009620844386518002,-0.09300149232149124
1761396060073672400,0.53367236328125,0.001985253533348441,-0.05360184609889984,-0.10811996459960938
1761396060093050000,0.553050048828125,0.0029015245381742716,-0.03787253051996231,-0.040010496973991394
1761396060112427800,0.572427734375,0.023212196305394173,-0.06948387622833252,0.031000498682260513
1761396060131805400,0.591805419921875,0.053143709897994995,-0.08903098851442337,0.07299624383449554
1761396060151183000,0.61118310546875,0.09468132257461548,-0.072843536734581,0.09269607067108154
1761396060170560800,0.630560791015625,0.11483928561210632,-0.015271181240677834,0.08170082420110703
1761396060189938700,0.649938720703125,0.07101099193096161,0.01847812905907631,0.04169032722711563
1761396060209316400,0.66931640625,0.025350160896778107,0.02092151902616024,-0.028404397889971733
1761396060228694000,0.688694091796875,0.03268032893538475,0.01175880990922451,-0.053143709897994995
1761396060248071700,0.70807177734375,0.038636088371276855,-0.009315420873463154,-0.014049487188458443
1761396060267449600,0.72744970703125,0.014202198944985867,-0.026724567636847496,0.02214321307837963
1761396060286827300,0.7468271484375,0.0009162708884105086,-0.007024743594229221,0.008857285603880882
1761396060306205000,0.766204833984375,-0.0065666078589856625,0.01969982497394085,-0.02076880633831024
1761396060325582600,0.78558251953125,-0.03527642786502838,-0.002748812548816204,-0.037261683493852615
1761396060344960300,0.804960205078125,-0.03817795217037201,-0.04856235533952713,-0.0459662564098835
1761396060364338000,0.824337890625,-0.0068720318377017975,-0.0716218426823616,-0.06749862432479858
1761396060383715800,0.8437158203125,0.029320668429136276,-0.058335911482572556,-0.0859767496585846
1761396060403093500,0.863093505859375,0.046577103435993195,-0.04184303805232048,-0.041232191026210785
1761396060422471200,0.88247119140625,0.06978929787874222,-0.05070032179355621,0.016798298805952072
1761396060441848800,0.901848876953125,0.07605048269033432,-0.03649812191724777,0.03542914241552353
1761396060461226500,0.9212265625,0.04199574887752533,0.010842538438737392,-0.00992626789957285
1761396060480604200,0.940604248046875,0.018019994720816612,0.045355409383773804,-0.072843536734581
1761396060499982000,0.959982177734375,0.03023693896830082,0.026724567636847496,-0.09315420687198639
1761396060519359700,0.97935986328125,0.0522274412214756,0.0068720318377017975,-0.055892523378133774
1761396060538737400,0.9987373046875,0.040010496973991394,0.02214321307837963,0.017867282032966614
1761396060558115000,1.018114990234375,0.04016320779919624,0.04107947647571564,0.06444438546895981
1761396060577492700,1.03749267578125,0.0590994730591774,0.018783552572131157,0.06719319522380829
1761396060596870700,1.05687060546875,0.042453885078430176,-0.04840964451432228,0.0528382882475853
1761396060616248300,1.076248291015625,0.0065666078589856625,-0.038636088371276855,0.005497625097632408
1761396060635626000,1.0956259765625,0.011911521665751934,0.028098974376916885,-0.04321744292974472
1761396060655003600,1.115003662109375,0.022906772792339325,0.016492875292897224,-0.03771981969475746
1761396060674381300,1.13438134765625,0.016798298805952072,-0.024128466844558716,-0.0007635590736754239
1761396060693759000,1.153759033203125,-0.0004581354442052543,-0.016187451779842377,0.009773556143045425
1761396060713137000,1.173136962890625,-0.016492875292897224,0.006108472589403391,-0.010689826682209969
1761396060732514600,1.1925146484375,-0.001985253533348441,0.00030542362947016954,-0.02229592576622963
1761396060751892200,1.211892333984375,0.02351761981844902,-0.036192700266838074,-0.012827792204916477
1761396060771270000,1.231269775390625,0.03787253051996231,-0.08811471611261368,0.016187451779842377
1761396060790647600,1.2506474609375,0.043828289955854416,-0.14171656966209412,0.012980503961443901
1761396060810025200,1.270025146484375,0.03817795217037201,-0.1829487532377243,-0.0331384651362896
1761396060829403100,1.289403076171875,0.05207473039627075,-0.14889401197433472,-0.0584886260330677
1761396060848780800,1.30878076171875,0.04550812020897865,-0.07085828483104706,-0.02214321307837963
1761396060868158500,1.328158447265625,0.019394399598240852,-0.03695625811815262,0.00916270911693573
1761396060887536000,1.3475361328125,0.013591351918876171,-0.02733541466295719,0.02489202655851841
1761396060906913800,1.366913818359375,0.02107422985136509,0.0030542362947016954,0.015271181240677834
1761396060926291500,1.38629150390625,0.01511846948415041,0.012827792204916477,-0.0050394898280501366
1761396060945669400,1.40566943359375,0.004886778071522713,0.009773556143045425,0.0021379655227065086
1761396060965047000,1.425047119140625,0.02092151902616024,0.03145863488316536,0.05329642444849014
1761396060984424700,1.4444248046875,0.03955236077308655,0.05375456064939499,0.07330167293548584
1761396061003802400,1.46380224609375,0.0456608310341835,0.04474456235766411,0.06933116167783737
1761396061023180000,1.483179931640625,0.034665580838918686,0.004275931045413017,0.05070032179355621
1761396061042557700,1.5025576171875,0.018936265259981155,0.0016798300202935934,-0.0032069480512291193
1761396061061935600,1.521935546875,0.009773556143045425,0.0010689827613532543,-0.04611896723508835
1761396061081313300,1.541313232421875,0.005803049076348543,0.0021379655227065086,-0.06245913356542587
1761396061100691000,1.56069091796875,0.017409147694706917,0.014049487188458443,-0.04611896723508835
1761396061120068600,1.580068603515625,0.019394399598240852,0.02748812735080719,-0.0065666078589856625
1761396061139446300,1.5994462890625,0.010689826682209969,0.021532366052269936,0.023059483617544174
1761396061158824200,1.61882421875,0.004886778071522713,0.004886778071522713,0.007635590620338917
1761396061178201900,1.638201904296875,0.005344913341104984,0.011911521665751934,-0.030695075169205666
1761396061197579500,1.65757958984375,-0.005650337319821119,0.010842538438737392,-0.020157959312200546
1761396061216957200,1.676957275390625,0.008857285603880882,-0.01572931744158268,0.0035123717971146107
1761396061236334800,1.6963349609375,0.027793550863862038,-0.0012216945178806782,-0.0068720318377017975
1761396061255712500,1.71571240234375,0.01511846948415041,0.013438640162348747,-0.0065666078589856625
1761396061275090400,1.73509033203125,-0.008551862090826035,0.0029015245381742716,-0.016187451779842377
1761396061294468000,1.754468017578125,0.0035123717971146107,0.009468132629990578,-0.022906772792339325
1761396061313845800,1.773845703125,0.006413896102458239,-0.0015271181473508477,-0.014660334214568138
1761396061333223400,1.793223388671875,-0.0006108472589403391,0.00030542362947016954,-0.011606098152697086
1761396061352601000,1.81260107421875,0.014049487188458443,-0.01725643500685692,0.0035123717971146107
1761396061371978800,1.831978759765625,0.020616095513105392,-0.025502873584628105,0.02489202655851841
1761396061391356400,1.8513564453125,0.005650337319821119,0.0004581354442052543,0.0261137206107378
1761396061410734300,1.870734375,-0.0030542362947016954,0.024128466844558716,0.011300674639642239
1761396061430112000,1.890112060546875,-0.013438640162348747,0.005497625097632408,0.0007635590736754239
1761396061449489700,1.90948974609375,-0.013744063675403595,0.013438640162348747,0.007330167107284069
1761396061468867300,1.928867431640625,-0.00259610079228878,0.007177455350756645,0.020005248486995697
1761396061488245000,1.948244873046875,-0.004123218823224306,-0.019088976085186005,0.0261137206107378
1761396061507622700,1.96762255859375,0.0012216945178806782,-0.02076880633831024,-0.0029015245381742716
1761396061527000600,1.98700048828125,0.03023693896830082,0.0068720318377017975,-0.04428642615675926
1761396061546378200,2.006378173828125,0.04306473210453987,-0.0068720318377017975,-0.07009471952915192
1761396061565756000,2.025755859375,0.03023693896830082,-0.023364907130599022,-0.07513421028852463
1761396061585133600,2.045133544921875,0.011606098152697086,-0.016645587980747223,-0.07330167293548584
1761396061604511200,2.06451123046875,0.014813045971095562,-0.007330167107284069,-0.03894151374697685
1761396061623889000,2.083888916015625,0.025961007922887802,-0.00259610079228878,0.005497625097632408
1761396061643266600,2.1032666015625,0.037414394319057465,0.0050394898280501366,0.04062134400010109
1761396061662644500,2.12264453125,0.01588202826678753,-0.02901524491608143,0.060932014137506485
1761396061682022100,2.142022216796875,-0.008246437646448612,-0.038636088371276855,0.03405473381280899
1761396061701399800,2.16139990234375,-0.015271181240677834,0.006413896102458239,-0.006719320081174374
1761396061720777500,2.180777587890625,0.01175880990922451,0.02748812735080719,-0.00992626789957285
1761396061740155100,2.200155029296875,0.033291175961494446,0.03023693896830082,0.020005248486995697
1761396061759532800,2.21953271484375,0.02764083817601204,-0.006108472589403391,0.046729814261198044
1761396061778910500,2.238910400390625,0.00015271181473508477,-0.013896775431931019,0.017409147694706917
1761396061798288400,2.258288330078125,-0.02367033064365387,0.008093725889921188,-0.03405473381280899
1761396061817666000,2.277666015625,-0.02214321307837963,0.009009997360408306,-0.03558185324072838
1761396061837043700,2.297043701171875,0.004886778071522713,0.0012216945178806782,0.0016798300202935934
1761396061856421400,2.31642138671875,0.01511846948415041,-0.02107422985136509,0.0331384651362896
1761396061875799000,2.335799072265625,0.021837789565324783,-0.01847812905907631,0.03130592033267021
1761396061895176700,2.3551767578125,0.03130592033267021,-0.028404397889971733,0.011911521665751934
1761396061914554600,2.3745546875,0.03268032893538475,-0.016340164467692375,-0.009315420873463154
1761396061953310000,2.41331005859375,0.008857285603880882,-0.0036650835536420345,0.017714571207761765
1761396061972687600,2.4326875,0.004581354558467865,-0.022754060104489326,0.049173206090927124
1761396061992065300,2.452065185546875,0.0009162708884105086,-0.019241688773036003,0.06490252166986465
1761396062011443000,2.47144287109375,-0.004123218823224306,0,0.03497100621461868
1761396062030820900,2.49082080078125,-0.005803049076348543,0.012369656935334206,-0.007177455350756645
1761396062050198500,2.510198486328125,-0.004734066314995289,0.021685076877474785,-0.007482878863811493
1761396062069576200,2.529576171875,-0.013133215717971325,-0.0007635590736754239,0.0032069480512291193
1761396062088953900,2.548953857421875,-0.01695101149380207,-0.03130592033267021,0.00992626789957285
1761396062108331500,2.56833154296875,-0.009009997360408306,-0.036039989441633224,0.015576604753732681
1761396062127709200,2.587709228515625,0.006413896102458239,-0.03802524134516716,0.02886253222823143
1761396062147086800,2.6070869140625,0.007635590620338917,-0.02244863659143448,-0.003970507066696882
1761396062166464800,2.62646484375,0.016034740954637527,0.042453885078430176,-0.05894676223397255
1761396062185842400,2.645842529296875,0.022601349279284477,0.04688252881169319,-0.072232685983181
1761396062205220000,2.66522021484375,0.01572931744158268,0.01435491070151329,-0.01435491070151329
1761396062224597800,2.68459765625,0.01588202826678753,-0.020157959312200546,0.045202698558568954
1761396062243975400,2.703975341796875,0.00519220158457756,-0.028404397889971733,0.034665580838918686
1761396062263353000,2.72335302734375,0.0065666078589856625,-0.014202198944985867,-0.01710372418165207
1761396062282730800,2.742730712890625,0.0198525357991457,-0.0004581354442052543,-0.0029015245381742716
1761396062302108700,2.762108642578125,0.010842538438737392,0.014202198944985867,0.045202698558568954
1761396062321486300,2.781486328125,-0.011147962883114815,0.013896775431931019,0.030695075169205666
1761396062340864000,2.800864013671875,-0.01572931744158268,0.00015271181473508477,-0.01954711228609085
1761396062360241700,2.82024169921875,0.004123218823224306,-0.008093725889921188,-0.030389651656150818
1761396062379619300,2.839619384765625,0.022754060104489326,-0.040010496973991394,0.011606098152697086
1761396062398997000,2.8589970703125,0.027946261689066887,-0.0781884491443634,0.037108972668647766
1761396062418374700,2.878374755859375,0.02504473738372326,-0.006413896102458239,-0.0050394898280501366
1761396062437752300,2.89775244140625,0.030389651656150818,0.05894676223397255,-0.03649812191724777
1761396062457130000,2.9171298828125,0.014813045971095562,0.05344913527369499,-0.04352286830544472
1761396062476508000,2.9365078125,-0.005955760832875967,0.03420744836330414,-0.004123218823224306
1761396062495885600,2.955885498046875,-0.012827792204916477,0.036039989441633224,0.028557108715176582
1761396062515263200,2.97526318359375,-0.0018325417768210173,0.037261683493852615,0.015423892997205257
1761396062534641000,2.994640869140625,0.03008422814309597,0.025808297097682953,-0.0032069480512291193
1761396062554018600,3.0140185546875,0.031153209507465363,-0.007024743594229221,0.0032069480512291193
1761396062573396200,3.033396240234375,0.009620844386518002,-0.009315420873463154,0.04367557913064957
1761396062592774100,3.052774169921875,0.011606098152697086,-0.005803049076348543,0.07024743407964706
1761396062612151800,3.07215185546875,0.02886253222823143,0.013438640162348747,0.03451287001371384
1761396062631529500,3.091529541015625,0.020616095513105392,0.033596597611904144,-0.0050394898280501366
1761396062650907100,3.1109072265625,0.010231691412627697,0.03497100621461868,0.00030542362947016954
1761396062670284800,3.130284912109375,0.006261184345930815,-0.00015271181473508477,0.02367033064365387
1761396062689662500,3.149662353515625,-0.008093725889921188,-0.014813045971095562,0.007482878863811493
1761396062709040000,3.1690400390625,-0.008704573847353458,0.01511846948415041,-0.03497100621461868
1761396062728418000,3.18841796875,0.010537114925682545,0.014965757727622986,-0.021990500390529633
1761396062747795500,3.20779541015625,0.011147962883114815,-0.04825693368911743,0.021990500390529633
1761396062767173400,3.22717333984375,0.001985253533348441,-0.045355409383773804,0.00992626789957285
1761396062786551000,3.246551025390625,-0.009009997360408306,0.008551862090826035,-0.042453885078430176
1761396062805928700,3.2659287109375,-0.019241688773036003,0.01695101149380207,-0.05131116881966591
1761396062825306400,3.285306396484375,-0.008399149402976036,-0.003970507066696882,-0.03497100621461868
1761396062844684000,3.30468408203125,-0.012827792204916477,-0.024128466844558716,-0.02764083817601204
1761396062864061700,3.324061767578125,-0.013591351918876171,-0.01038440316915512,-0.03008422814309597
1761396062883439400,3.343439453125,0.009315420873463154,0.001374406274408102,-0.025961007922887802
1761396062902817300,3.3628173828125,0.03268032893538475,-0.016034740954637527,-0.005344913341104984
1761396062922195000,3.38219482421875,0.03771981969475746,-0.02229592576622963,0.02886253222823143
1761396062941572600,3.401572509765625,0.013896775431931019,-0.0024433890357613564,0.02489202655851841
1761396062960950300,3.4209501953125,0.004734066314995289,0.036192700266838074,-0.0068720318377017975
1761396062980328000,3.440327880859375,0.0032069480512291193,0.021532366052269936,-0.013438640162348747
1761396062999705600,3.45970556640625,0.0010689827613532543,0.0015271181473508477,-0.012827792204916477
1761396063019083300,3.479083251953125,0.009620844386518002,-0.01572931744158268,-0.024281177669763565
1761396063038461000,3.4984609375,0.02504473738372326,-0.026724567636847496,-0.021379653364419937
1761396063057838800,3.5178388671875,0.025808297097682953,-0.009468132629990578,-0.01588202826678753
1761396063077216500,3.537216552734375,0.025350160896778107,0.016187451779842377,0.015271181240677834
1761396063096594200,3.55659423828125,0.009315420873463154,-0.012064233422279358,0.038483377546072006
1761396063115971800,3.575971923828125,-0.017714571207761765,-0.011300674639642239,0.006108472589403391
1761396063135349500,3.595349609375,-0.004581354558467865,0.013438640162348747,-0.04153761267662048
1761396063154727200,3.61472705078125,0.02870982140302658,-0.03802524134516716,-0.01954711228609085
1761396063174104800,3.634104736328125,0.037261683493852615,-0.09376505762338638,0.00992626789957285
1761396063193482500,3.653482421875,0.030695075169205666,-0.072232685983181,-0.004275931045413017
1761396063212860400,3.6728603515625,0.038788799196481705,-0.049020491540431976,-0.027946261689066887
1761396063232238000,3.692238037109375,0.03588727489113808,-0.02214321307837963,-0.031000498682260513
1761396063251615700,3.71161572265625,-0.0022906772792339325,-0.008857285603880882,0.0050394898280501366
1761396063270993400,3.730993408203125,-0.029167955741286278,-0.029626091942191124,0.01710372418165207
1761396063290371000,3.75037109375,-0.03176405653357506,-0.011606098152697086,-0.004581354558467865
1761396063309748700,3.769748779296875,-0.01969982497394085,0.02764083817601204,-0.005955760832875967
1761396063329126400,3.78912646484375,-0.014202198944985867,0,0.03374931216239929
1761396063348504000,3.808504150390625,-0.014965757727622986,-0.0198525357991457,0.053143709897994995
1761396063367882000,3.827882080078125,-0.013896775431931019,0.005803049076348543,0.02092151902616024
1761396063387259600,3.847259765625,-0.009773556143045425,-0.0065666078589856625,-0.0038177953101694584
1761396063406637300,3.86663720703125,0.005803049076348543,-0.04611896723508835,-0.01710372418165207
1761396063426015000,3.886014892578125,0.024586603045463562,-0.07620319724082947,-0.009773556143045425
1761396063445392600,3.905392578125,0.03695625811815262,-0.08811471611261368,0.01038440316915512
1761396063464770300,3.924770263671875,0.05650337040424347,-0.08933641016483307,0.01435491070151329
1761396063484148000,3.94414794921875,0.07116370648145676,-0.06948387622833252,0.024281177669763565
1761396063503525600,3.963525634765625,0.05207473039627075,-0.021532366052269936,0.03542914241552353
1761396063522903600,3.982903564453125,0.014507622458040714,0.0015271181473508477,0.025197450071573257
1761396063542281200,4.00228125,-0.00519220158457756,-0.0004581354442052543,-0.009620844386518002
1761396063561659000,4.021658935546875,-0.0016798300202935934,0.01817270554602146,-0.029778804630041122
1761396063581036500,4.04103662109375,0.013896775431931019,-0.0007635590736754239,-0.009773556143045425
1761396063600414200,4.060414306640625,0.023364907130599022,-0.02107422985136509,0.008857285603880882
1761396063619792000,4.0797919921875,0.009620844386518002,-0.0010689827613532543,0.03665083646774292
1761396063639169500,4.09916943359375,-0.008246437646448612,-0.017409147694706917,0.04214845970273018
1761396063658547200,4.118547119140625,-0.021990500390529633,-0.019088976085186005,-0.004275931045413017
1761396063677924900,4.1379248046875,-0.014049487188458443,-0.010689826682209969,-0.060932014137506485
1761396063697302800,4.157302734375,-0.009773556143045425,-0.0068720318377017975,-0.07024743407964706
1761396063716971300,4.17697119140625,-0.00519220158457756,-0.0029015245381742716,-0.020157959312200546
1761396063736736300,4.196736328125,0.013591351918876171,-0.007788302376866341,0.0397050715982914
1761396063756501500,4.21650146484375,0.017409147694706917,-0.020463382825255394,0.06520794332027435
1761396063776266800,4.236266845703125,-0.0009162708884105086,-0.02214321307837963,0.04031591862440109
1761396063796032000,4.256031982421875,-0.0021379655227065086,0.008704573847353458,-0.007788302376866341
1761396063815797200,4.27579736328125,-0.007482878863811493,0.01725643500685692,-0.027946261689066887
1761396063835562200,4.295562255859375,-0.006261184345930815,0.021837789565324783,-0.013438640162348747
1761396063855327500,4.315327392578125,0.008704573847353458,0.027029991149902344,-0.004734066314995289
1761396063875092700,4.3350927734375,0.01038440316915512,0.003359660040587187,0.005497625097632408
1761396063894858000,4.35485791015625,0.011147962883114815,-0.019088976085186005,0.010689826682209969
1761396063914623000,4.374623046875,0.010995250195264816,0.00519220158457756,0.019088976085186005
1761396063934388200,4.39438818359375,-0.012980503961443901,-0.008246437646448612,0.02886253222823143
1761396063954057200,4.41405712890625,-0.022601349279284477,-0.0021379655227065086,0.0038177953101694584
1761396063973434600,4.4334345703125,-0.014507622458040714,0.010842538438737392,-0.036192700266838074
1761396063992812500,4.4528125,-0.0022906772792339325,0.008551862090826035,-0.03436015918850899
1761396064012190200,4.472190185546875,0.014049487188458443,-0.00030542362947016954,0.010689826682209969
1761396064031568000,4.49156787109375,0.01725643500685692,-0.0006108472589403391,0.02489202655851841
1761396064050945500,4.510945556640625,0.011911521665751934,-0.0032069480512291193,-0.0050394898280501366
1761396064070323200,4.5303232421875,-0.0038177953101694584,-0.01252236869186163,-0.025808297097682953
1761396064089700900,4.549700927734375,-0.008093725889921188,-0.0030542362947016954,-0.024586603045463562
1761396064109078500,4.56907861328125,-0.0024433890357613564,-0.0018325417768210173,-0.012827792204916477
1761396064128456200,4.588456298828125,0.005803049076348543,-0.016187451779842377,0.008551862090826035
1761396064147833900,4.607833740234375,-0.0030542362947016954,-0.03176405653357506,0.028251685202121735
1761396064167211800,4.627211669921875,-0.010537114925682545,-0.005497625097632408,0.0261137206107378
1761396064186589400,4.64658935546875,-0.019241688773036003,0.010995250195264816,-0.005650337319821119
1761396064205967000,4.665967041015625,0.006261184345930815,-0.006261184345930815,-0.03130592033267021
1761396064225344800,4.6853447265625,0.024586603045463562,-0.020005248486995697,-0.022754060104489326
1761396064244722400,4.704722412109375,0.010995250195264816,-0.008551862090826035,-0.0007635590736754239
1761396064264100000,4.72410009765625,-0.014965757727622986,0.008551862090826035,-0.004428642801940441
1761396064283477800,4.743477783203125,-0.016798298805952072,-0.009620844386518002,-0.01710372418165207
1761396064302855400,4.76285546875,-0.0018325417768210173,-0.031000498682260513,-0.023364907130599022
1761396064322233000,4.782233154296875,0.009468132629990578,-0.019088976085186005,-0.01252236869186163
1761396064341611000,4.801611083984375,0.025350160896778107,0.018630841746926308,0.01511846948415041
1761396064360988700,4.82098876953125,0.021379653364419937,0.01832541823387146,0.02733541466295719
1761396064380366300,4.840366455078125,-0.004734066314995289,0.009773556143045425,0.024586603045463562
1761396064399744000,4.859743896484375,-0.03145863488316536,0.018630841746926308,0.01252236869186163
1761396064419121700,4.87912158203125,-0.036192700266838074,0.03558185324072838,0.00015271181473508477
1761396064438499300,4.898499267578125,-0.02504473738372326,-0.009468132629990578,-0.011911521665751934
1761396064457877000,4.917876953125,0.0012216945178806782,-0.038483377546072006,-0.03130592033267021
1761396064477254700,4.937254638671875,0.01725643500685692,-0.02489202655851841,-0.03817795217037201
1761396064496632300,4.95663232421875,0.021685076877474785,-0.021990500390529633,-0.010995250195264816
1761396064516010000,4.976010009765625,0.020616095513105392,-0.03420744836330414,0.0007635590736754239
1761396064535387600,4.9953876953125,0.020463382825255394,-0.029320668429136276,-0.01588202826678753
1761396064554765300,5.014765380859375,0.02092151902616024,-0.052990999072790146,-0.005955760832875967
1761396064574143200,5.034143310546875,0.04367557913064957,-0.10659284889698029,0.056808795779943466
1761396064593521000,5.05352099609375,0.05482354015111923,-0.08933641016483307,0.059710320085287094
1761396064612898600,5.072898681640625,0.031000498682260513,-0.02748812735080719,0.01832541823387146
1761396064632276200,5.092276123046875,0.009315420873463154,0.014965757727622986,-0.007788302376866341
1761396064651654000,5.11165380859375,0.02076880633831024,-0.008399149402976036,0.001374406274408102
1761396064671031600,5.131031494140625,0.020005248486995697,-0.02901524491608143,0.0035123717971146107
1761396064690409200,5.1504091796875,-0.004886778071522713,-0.009620844386518002,-0.007482878863811493
1761396064709787000,5.169786865234375,-0.018783552572131157,0.018936265259981155,-0.008704573847353458
1761396064729164500,5.18916455078125,-0.015271181240677834,0.01038440316915512,0.0004581354442052543
1761396064748542200,5.208542236328125,-0.0018325417768210173,-0.01252236869186163,-0.00259610079228878
1761396064767920000,5.227920166015625,0.004428642801940441,-0.011147962883114815,-0.017409147694706917
1761396064787297800,5.2472978515625,0.0029015245381742716,-0.001374406274408102,-0.02886253222823143
1761396064806675500,5.266675537109375,-0.007177455350756645,-0.004581354558467865,-0.0261137206107378
1761396064826053000,5.28605322265625,-0.01175880990922451,0.004123218823224306,-0.01710372418165207
1761396064845430800,5.3054306640625,0.0015271181473508477,0.008399149402976036,-0.0004581354442052543
1761396064864808400,5.324808349609375,0.013133215717971325,-0.0015271181473508477,0.01252236869186163
1761396064884186000,5.34418603515625,0.006413896102458239,-0.01435491070151329,0.008857285603880882
1761396064903563800,5.363563720703125,-0.0021379655227065086,0.0050394898280501366,-0.005955760832875967
1761396064922941400,5.38294140625,0.00015271181473508477,0.013133215717971325,-0.02076880633831024
1761396064942319000,5.402319091796875,0.008704573847353458,0.012216945178806782,-0.03008422814309597
1761396064961696800,5.42169677734375,0.0068720318377017975,0.005497625097632408,-0.007635590620338917
1761396064981074400,5.441074462890625,0.0035123717971146107,-0.016492875292897224,0.014965757727622986
1761396065000452400,5.460452392578125,0.0018325417768210173,-0.018630841746926308,0.006719320081174374
1761396065019830000,5.479830078125,0.00015271181473508477,0.01175880990922451,-0.009620844386518002
1761396065039207700,5.499207763671875,-0.009773556143045425,0.008704573847353458,-0.009773556143045425
1761396065058585300,5.51858544921875,-0.021990500390529633,0.004886778071522713,-0.0050394898280501366
1761396065077963000,5.537962890625,-0.022601349279284477,0.007635590620338917,-0.007177455350756645
1761396065097340700,5.557340576171875,-0.002748812548816204,0.0038177953101694584,-0.009009997360408306
1761396065116718300,5.57671826171875,0.016645587980747223,0.001374406274408102,-0.01252236869186163
1761396065136096000,5.596095947265625,0.001985253533348441,-0.0006108472589403391,-0.011300674639642239
1761396065155473700,5.6154736328125,-0.026877280324697495,-0.01710372418165207,-0.010689826682209969
1761396065174851300,5.634851318359375,-0.011147962883114815,-0.0022906772792339325,-0.027029991149902344
1761396065194229000,5.65422900390625,0.01511846948415041,0.00259610079228878,-0.026571854948997498
1761396065213606700,5.673606689453125,0.02489202655851841,0.01175880990922451,-0.0029015245381742716
1761396065232984300,5.692984375,0.013285927474498749,0.00519220158457756,0.027946261689066887
1761396065252362200,5.7123623046875,-0.0022906772792339325,0.014965757727622986,0.029473381116986275
1761396065271740000,5.731739990234375,-0.011606098152697086,0.014660334214568138,0.012216945178806782
1761396065291117600,5.75111767578125,-0.012827792204916477,0.014965757727622986,0.007635590620338917
1761396065310495200,5.7704951171875,-0.014660334214568138,0,0.007635590620338917
1761396065329873000,5.789872802734375,-0.0036650835536420345,0.0007635590736754239,-0.005650337319821119
1761396065349250600,5.80925048828125,0.013133215717971325,-0.018630841746926308,-0.02107422985136509
1761396065368628200,5.828628173828125,-0.0016798300202935934,-0.020005248486995697,-0.03436015918850899
1761396065388006000,5.848005859375,-0.017867282032966614,-0.008399149402976036,-0.02214321307837963
1761396065407383600,5.867383544921875,0.0018325417768210173,-0.0010689827613532543,0.003970507066696882
1761396065426761200,5.88676123046875,0.018783552572131157,-0.029473381116986275,0.0198525357991457
1761396065446139000,5.906138916015625,-0.004886778071522713,-0.004123218823224306,-0.0016798300202935934
1761396065465516800,5.925516845703125,-0.01847812905907631,0.023364907130599022,-0.007788302376866341
1761396065484894200,5.944894287109375,-0.018630841746926308,0.0018325417768210173,0.00259610079228878
1761396065504272100,5.964272216796875,-0.005497625097632408,-0.007177455350756645,0.0007635590736754239
1761396065523649800,5.98364990234375,0.0030542362947016954,0.007482878863811493,0.0004581354442052543
1761396065543027500,6.00302734375,0.005650337319821119,-0.010995250195264816,0.017409147694706917
1761396065562405000,6.022405029296875,0.014507622458040714,-0.028557108715176582,0.016798298805952072
1761396065581782800,6.04178271484375,0.025350160896778107,-0.0036650835536420345,-0.0065666078589856625
1761396065601160400,6.061160400390625,-0.0007635590736754239,0.007941014133393764,-0.03558185324072838
1761396065620538000,6.0805380859375,-0.010537114925682545,-0.008551862090826035,-0.0393996499478817
1761396065639915800,6.099915771484375,-0.0021379655227065086,-0.011300674639642239,-0.011911521665751934
1761396065659293400,6.11929345703125,0.010689826682209969,0.00992626789957285,0.02641914412379265
1761396065678671000,6.138671142578125,0.00030542362947016954,0.0009162708884105086,0.04856235533952713
1761396065698048800,6.158048828125,-0.016034740954637527,0.004123218823224306,0.023059483617544174
1761396065717426400,6.177426513671875,-0.012980503961443901,0.010842538438737392,-0.0328330397605896
1761396065736804400,6.196804443359375,0.002748812548816204,-0.004123218823224306,-0.055739812552928925
1761396065756181800,6.216181640625,0.021837789565324783,-0.017714571207761765,-0.015271181240677834
1761396065775559700,6.2355595703125,0.0198525357991457,-0.007177455350756645,0.013133215717971325
1761396065794937300,6.254937255859375,0.0021379655227065086,-0.0006108472589403391,-0.004123218823224306
1761396065814315000,6.27431494140625,-0.0029015245381742716,-0.008551862090826035,-0.020463382825255394
1761396065833692700,6.293692626953125,0.004275931045413017,-0.008857285603880882,-0.01038440316915512
1761396065853070300,6.3130703125,0.0021379655227065086,0.012369656935334206,0.009773556143045425
1761396065872448000,6.332447998046875,-0.010689826682209969,0.02641914412379265,0.022754060104489326
1761396065891825700,6.35182568359375,-0.014813045971095562,0.009620844386518002,0.038788799196481705
1761396065911203300,6.371203369140625,-0.0029015245381742716,-0.0021379655227065086,0.0328330397605896
1761396065930581000,6.3905810546875,-0.011911521665751934,0.004123218823224306,-0.010995250195264816
1761396065949958700,6.409958740234375,-0.02489202655851841,-0.0016798300202935934,-0.04459185153245926
1761396065969336300,6.42933642578125,0.0038177953101694584,-0.017867282032966614,-0.0331384651362896
1761396065988714000,6.4487138671875,0.01954711228609085,-0.022601349279284477,-0.0022906772792339325
1761396066008091600,6.468091552734375,0.006108472589403391,-0.011606098152697086,0.010078979656100273
1761396066027469300,6.48746923828125,-0.00519220158457756,-0.00992626789957285,0.0016798300202935934
1761396066046847000,6.506846923828125,-0.009468132629990578,-0.001985253533348441,-0.005344913341104984
1761396066066225000,6.526224853515625,-0.0036650835536420345,-0.0024433890357613564,-0.013438640162348747
1761396066085602600,6.5456025390625,-0.0010689827613532543,0.004581354558467865,-0.013133215717971325
1761396066104980200,6.564980224609375,0.009468132629990578,-0.011453386396169662,-0.013133215717971325
1761396066124358000,6.58435791015625,0.02993151545524597,-0.03497100621461868,-0.0065666078589856625
1761396066143735600,6.603735595703125,0.03558185324072838,-0.033443886786699295,0.004123218823224306
1761396066163113200,6.62311328125,0.03023693896830082,-0.001985253533348441,0.011606098152697086
1761396066182491000,6.642490966796875,0.003970507066696882,0.007941014133393764,-0.004123218823224306
1761396066201868500,6.66186865234375,-0.01817270554602146,0.029626091942191124,-0.02076880633831024
1761396066221246200,6.68124609375,-0.024128466844558716,0.023364907130599022,-0.0007635590736754239
1761396066240623900,6.700623779296875,-0.019394399598240852,0.010537114925682545,0.02367033064365387
1761396066260001500,6.72000146484375,-0.022601349279284477,0.007788302376866341,0.009773556143045425
1761396066279379200,6.739379150390625,-0.024433890357613564,-0.007330167107284069,-0.010995250195264816
1761396066298756900,6.7587568359375,-0.016492875292897224,-0.023823043331503868,-0.023059483617544174
1761396066318134500,6.778134521484375,0.0035123717971146107,-0.007788302376866341,-0.020463382825255394
1761396066337512200,6.79751220703125,0.0012216945178806782,-0.006108472589403391,-0.0010689827613532543
1761396066356889900,6.816889892578125,-0.004428642801940441,-0.007788302376866341,0.013438640162348747
1761396066376267800,6.836267822265625,-0.007024743594229221,0.0022906772792339325,0.009773556143045425
1761396066395645400,6.8556455078125,-0.023212196305394173,0.003970507066696882,-0.010995250195264816
1761396066415023000,6.875023193359375,-0.029167955741286278,0.01038440316915512,-0.0261137206107378
1761396066434400800,6.89440087890625,-0.0035123717971146107,0.003359660040587187,-0.018630841746926308
1761396066453778400,6.9137783203125,0.024433890357613564,-0.0029015245381742716,0.0004581354442052543
1761396066473156000,6.933156005859375,0.025808297097682953,0.0024433890357613564,0.029778804630041122
1761396066492533800,6.95253369140625,0.007177455350756645,0.020463382825255394,0.04062134400010109
1761396066511911400,6.971911376953125,-0.005344913341104984,0.008857285603880882,0.025197450071573257
1761396066531289000,6.9912890625,-0.010689826682209969,0.0032069480512291193,-0.0022906772792339325
1761396066550666800,7.010666748046875,-0.014507622458040714,0.014507622458040714,-0.027029991149902344
1761396066570044400,7.03004443359375,-0.012064233422279358,0.01572931744158268,-0.02886253222823143
1761396066589422000,7.049422119140625,-0.0024433890357613564,-0.017409147694706917,-0.011606098152697086
1761396066608799700,7.0687998046875,0.008551862090826035,-0.03542914241552353,-0.006413896102458239
1761396066628177400,7.088177490234375,0.016034740954637527,-0.012064233422279358,-0.014965757727622986
1761396066647555000,7.10755517578125,0.011453386396169662,-0.0050394898280501366,-0.01710372418165207
1761396066666932700,7.1269326171875,0.00916270911693573,-0.004428642801940441,-0.014965757727622986
1761396066686310400,7.146310302734375,-0.012980503961443901,-0.008093725889921188,-0.023364907130599022
1761396066705688000,7.16568798828125,-0.04077405482530594,-0.014660334214568138,-0.031916771084070206
1761396066725065700,7.185065673828125,-0.02473931387066841,-0.016645587980747223,-0.02092151902616024
1761396066744443400,7.204443359375,0.0018325417768210173,-0.0010689827613532543,0.018936265259981155
1761396066763821300,7.2238212890625,-0.004428642801940441,0.013438640162348747,0.0390942245721817
1761396066783199000,7.243198974609375,-0.03145863488316536,0.02473931387066841,0.012827792204916477
1761396066802576600,7.26257666015625,-0.057114217430353165,0.03802524134516716,-0.0328330397605896
1761396066821954300,7.281954345703125,-0.058183200657367706,0.02733541466295719,-0.033443886786699295
1761396066841332000,7.30133203125,-0.05344913527369499,0.006108472589403391,-0.008246437646448612
1761396066860709600,7.320709716796875,-0.07635590434074402,0.024281177669763565,0.01252236869186163
1761396066880087300,7.34008740234375,-0.08780929446220398,0.052990999072790146,0.0050394898280501366
1761396066899465000,7.35946484375,-0.09269607067108154,0.054518118500709534,-0.011606098152697086
1761396066918842600,7.378842529296875,-0.10078980028629303,0.04291202127933502,-0.028557108715176582
1761396066938220300,7.39822021484375,-0.0781884491443634,0.03145863488316536,-0.05070032179355621
1761396066957598000,7.417597900390625,-0.04031591862440109,0.02244863659143448,-0.05482354015111923
1761396066976975600,7.4369755859375,-0.02733541466295719,-0.0009162708884105086,-0.03008422814309597
1761396066996353300,7.456353271484375,-0.03237490355968475,0.008399149402976036,-0.011911521665751934
1761396067015731000,7.47573095703125,-0.028557108715176582,0.011606098152697086,-0.04153761267662048
1761396067035108600,7.495108642578125,-0.03390202298760414,0.008551862090826035,-0.045202698558568954
1761396067054486300,7.514486328125,-0.042453885078430176,-0.0006108472589403391,-0.004886778071522713
1761396067073864000,7.533864013671875,-0.029167955741286278,0.0050394898280501366,0.025502873584628105
1761396067093241600,7.55324169921875,0.00259610079228878,0.026724567636847496,0.008857285603880882
1761396067112619300,7.572619384765625,0.0004581354442052543,0.02244863659143448,-0.020157959312200546
1761396067131997000,7.591996826171875,-0.023364907130599022,0.006108472589403391,-0.01954711228609085
1761396067151374600,7.61137451171875,-0.020463382825255394,0.007024743594229221,-0.0068720318377017975
1761396067170752300,7.630752197265625,-0.012369656935334206,0.016187451779842377,-0.014660334214568138
1761396067190130200,7.650130126953125,-0.024281177669763565,0.013744063675403595,-0.01710372418165207
1761396067209507800,7.6695078125,-0.027946261689066887,0.011911521665751934,-0.018630841746926308
1761396067228885200,7.68888525390625,-0.004734066314995289,0.0261137206107378,-0.01435491070151329
1761396067248263200,7.70826318359375,0.011147962883114815,0.02229592576622963,0.0007635590736754239
1761396067267640800,7.727640869140625,0.00030542362947016954,-0.0010689827613532543,0.005650337319821119
1761396067287018500,7.7470185546875,-0.010231691412627697,-0.013285927474498749,0.018019994720816612
1761396067306396200,7.766396240234375,0.00519220158457756,-0.006108472589403391,0.01435491070151329
1761396067325773800,7.78577392578125,0.004581354558467865,0.007177455350756645,0.007941014133393764
1761396067345151500,7.8051513671875,-0.013591351918876171,0.04413371533155441,0.006108472589403391
1761396067364529200,7.824529052734375,-0.038636088371276855,0.0716218426823616,0.013438640162348747
1761396067383906800,7.84390673828125,-0.03955236077308655,0.05604523420333862,-0.007177455350756645
1761396067403284500,7.863284423828125,-0.030542362481355667,0.03833066672086716,-0.028557108715176582
1761396067422662100,7.882662109375,-0.016340164467692375,0.02764083817601204,-0.06398624926805496
1761396067442039800,7.902039794921875,0.0038177953101694584,0.03787253051996231,-0.06368082761764526
1761396067461417500,7.92141748046875,-0.02489202655851841,0.05008947476744652,-0.00259610079228878
1761396067480795100,7.940795166015625,-0.06200099736452103,0.10078980028629303,0.041232191026210785
1761396067500172800,7.9601728515625,-0.09040539711713791,0.10338589549064636,-0.01954711228609085
1761396067519550500,7.979550537109375,-0.06902574002742767,0.07238540053367615,-0.08765657991170883
1761396067538928000,7.99892822265625,-0.01695101149380207,0.0459662564098835,-0.11086877435445786
1761396067558305800,8.018305908203125,-0.005650337319821119,0.060932014137506485,-0.06887302547693253
1761396067577683500,8.037683349609376,-0.05619794875383377,0.07650861889123917,-0.013744063675403595
1761396067597061000,8.05706103515625,-0.10017894953489304,0.10384403169155121,-0.020157959312200546
1761396067616438800,8.076438720703125,-0.10033166408538818,0.1113269105553627,-0.09544488787651062
1761396067635816400,8.09581640625,-0.07238540053367615,0.08322793990373611,-0.1363716572523117
1761396067655194000,8.115194091796875,-0.03680354729294777,0.07666133344173431,-0.10002623498439789
1761396067674571800,8.13457177734375,0.019394399598240852,0.04474456235766411,-0.055892523378133774
1761396067693949400,8.153949462890624,0.0021379655227065086,-0.003970507066696882,-0.0719272643327713
1761396067713327000,8.1733271484375,-0.033291175961494446,0.07406523078680038,-0.08979454636573792
1761396067732704800,8.192704833984376,-0.026724567636847496,0.1044548824429512,-0.09498675167560577
1761396067752082400,8.21208251953125,-0.05635065957903862,0.04825693368911743,-0.1447708010673523
1761396067771460000,8.231460205078125,-0.10521844029426575,0.09743013978004456,-0.2304421216249466
1761396067790837800,8.250837646484374,-0.08047912269830704,0.20875705778598785,-0.27747735381126404
1761396067810215400,8.27021533203125,-0.0922379344701767,0.1304158866405487,-0.25350162386894226
1761396067829593300,8.28959326171875,-0.08200624585151672,0.0925433561205864,-0.16599774360656738
1761396067848971000,8.308970947265625,0.08674030750989914,0.13973131775856018,-0.021532366052269936
1761396067868348700,8.3283486328125,0.1385096162557602,-0.014049487188458443,0.14706148207187653
1761396067887726300,8.347726318359374,0.04046862944960594,-0.15484978258609772,0.17454960942268372
1761396067907104000,8.36710400390625,-0.04337015375494957,-0.05757235363125801,0.0713164210319519
1761396067926481700,8.386481689453126,0.03451287001371384,0.06658235192298889,-0.01847812905907631
1761396067945859300,8.405859375,0.06490252166986465,0.08292251825332642,-0.019088976085186005
1761396067965237000,8.425237060546875,0.057114217430353165,0.03588727489113808,0.021226942539215088
1761396067984614700,8.44461474609375,-0.012980503961443901,-0.040010496973991394,0.0016798300202935934
1761396068003992300,8.463992431640625,-0.06032116711139679,0.02092151902616024,-0.0198525357991457
1761396068023370000,8.483369873046875,-0.02870982140302658,0.12430741637945175,0.0198525357991457
1761396068042747600,8.50274755859375,0.004581354558467865,0.09681928902864456,0.06291726976633072
1761396068062125300,8.522125244140625,0.0029015245381742716,-0.04428642615675926,0.06184828653931618
1761396068081503000,8.5415029296875,-0.05008947476744652,-0.03634541109204292,-0.04062134400010109
1761396068100880600,8.560880615234375,-0.09956810623407364,0.05665608495473862,-0.10353861004114151
1761396068120258300,8.58025830078125,-0.0988045409321785,0.07101099193096161,-0.04947862774133682
1761396068139636000,8.599635986328124,-0.045202698558568954,0.03436015918850899,0.06841489672660828
1761396068159013600,8.619013671875,0.013591351918876171,-0.03695625811815262,0.1429382562637329
1761396068178391300,8.638391357421876,0.025655584409832954,-0.08628217875957489,0.08154810965061188
1761396068197769000,8.65776904296875,0.020463382825255394,0.0021379655227065086,-0.03558185324072838
1761396068217146600,8.677146728515625,-0.01847812905907631,0.04963133856654167,-0.0787992998957634
1761396068236524300,8.696524169921876,-0.03802524134516716,0.10521844029426575,-0.08521319180727005
1761396068255902000,8.71590185546875,-0.11896250396966934,0.08490777015686035,0.18768282234668732
1761396068275279600,8.735279541015625,-0.20310671627521515,-0.10002623498439789,0.28160059452056885
1761396068294657300,8.7546572265625,-0.1382041871547699,-0.1710372269153595,0.1588202863931656
1761396068314035000,8.774034912109375,0.06780404597520828,-0.0844496339559555,0.026724567636847496
1761396068333412600,8.79341259765625,0.17302247881889343,-0.028404397889971733,0.032069481909275055
1761396068352790300,8.812790283203125,0.0650552362203598,-0.04459185153245926,-0.009009997360408306
1761396068372168000,8.83216796875,-0.007635590620338917,-0.008399149402976036,-0.13835690915584564
