time,seconds_elapsed,z,y,x
1761395852634565000,0.239565185546875,0.021635055541992188,-0.014680862426757812,-0.030741438269615173
1761395852653943000,0.258943115234375,0.018021583557128906,-0.007104039192199707,-0.0005652159452438354
1761395852673321000,0.278321044921875,0.03367328643798828,-0.012946248054504395,0.006992936134338379
1761395852692699000,0.297698974609375,0.03849029541015625,0.007158517837524414,0.011521145701408386
1761395852712076800,0.317076904296875,0.030206680297851562,0.013356447219848633,0.011172682046890259
1761395852731454700,0.336454833984375,-0.02866649627685547,0.006570100784301758,0.013444319367408752
1761395852750832400,0.355832275390625,0.02068328857421875,-0.009731054306030273,0.001985698938369751
1761395852770210300,0.375210205078125,0.0027227401733398438,-0.007860839366912842,0.006919190287590027
1761395852789588200,0.394588134765625,-0.008098602294921875,0.005709946155548096,-0.0012027919292449951
1761395852808966100,0.413966064453125,0.052631378173828125,0.02293109893798828,0.015389770269393921
1761395852828344000,0.433343994140625,0.07341766357421875,-0.012723088264465332,0.035184770822525024
1761395852847722000,0.452721923828125,-0.011412620544433594,-0.007410585880279541,0.017682313919067383
1761395852867100000,0.472099853515625,-0.019742965698242188,-0.017575740814208984,0.02382810413837433
1761395852886477800,0.491477783203125,0.02823162078857422,-0.03422856330871582,0.04073479771614075
1761395852905855500,0.51085546875,0.018802642822265625,-0.0240667462348938,0.041000574827194214
1761395852925233400,0.5302333984375,-0.008802413940429688,0.01524209976196289,0.001973181962966919
1761395852944611300,0.549611328125,0.02708148956298828,0.01872718334197998,-0.00857861340045929
1761395852963989200,0.5689892578125,-0.0018329620361328125,0.01718926429748535,0.012912750244140625
1761395852983367200,0.5883671875,0.019873619079589844,-0.010859489440917969,0.013319700956344604
1761395853002745000,0.6077451171875,0.059243202209472656,-0.0007210373878479004,0.011186078190803528
1761395853022123000,0.627123046875,0.043575286865234375,0.024479568004608154,0.006728500127792358
1761395853041501000,0.6465009765625,-0.017427444458007812,0.009635329246520996,0.00418505072593689
1761395853060878800,0.66587890625,0.05471515655517578,0.00014221668243408203,0.022946447134017944
1761395853080256500,0.685256591796875,-0.03276252746582031,0.014069318771362305,0.02058328688144684
1761395853099634400,0.704634521484375,-0.04736042022705078,0.015006422996520996,-0.0030227303504943848
1761395853119012400,0.724012451171875,0.1474447250366211,-0.03858250379562378,-0.029790371656417847
1761395853138390300,0.743390380859375,-0.02502727508544922,-0.016431331634521484,0.020177170634269714
1761395853157768200,0.762768310546875,-0.10422134399414062,-0.011784136295318604,0.02581019699573517
1761395853177146000,0.78214599609375,0.046540260314941406,-0.03793293237686157,0.01975114643573761
1761395853196524000,0.80152392578125,0.12446117401123047,-0.010362863540649414,0.02661813795566559
1761395853215902000,0.82090185546875,-0.06485748291015625,0.002952873706817627,0.003273099660873413
1761395853235279600,0.840279541015625,-0.020376205444335938,-0.008181512355804443,0.022049039602279663
1761395853254657500,0.859657470703125,0.0839529037475586,-0.0038523077964782715,0.05928108096122742
1761395853274035500,0.879035400390625,0.003916740417480469,-0.024767756462097168,0.0015392452478408813
1761395853293413400,0.898413330078125,-0.057463645935058594,-0.010438680648803711,-0.007693275809288025
1761395853312791300,0.917791259765625,0.051513671875,0.020390868186950684,0.009387895464897156
1761395853332169200,0.937169189453125,0.041741371154785156,0.02757340669631958,0.00024788081645965576
1761395853351547100,0.956547119140625,0.03138160705566406,0.01374286413192749,0.006394430994987488
1761395853370925000,0.975925048828125,-0.0033349990844726562,0.012360990047454834,0.02090989053249359
1761395853390302700,0.995302734375,-0.001201629638671875,0.011600792407989502,-0.005548745393753052
1761395853409680600,1.0146806640625,0.013637542724609375,0.012906372547149658,-0.03752325475215912
1761395853429058600,1.03405859375,-0.0056095123291015625,0.002980828285217285,-0.010793983936309814
1761395853448436500,1.0534365234375,0.0063323974609375,-0.01858365535736084,0.00764600932598114
1761395853467814400,1.072814453125,0.07450389862060547,-0.040977418422698975,0.028395727276802063
1761395853487192300,1.0921923828125,0.021897315979003906,-0.011354148387908936,0.03676261007785797
1761395853506570200,1.1115703125,-0.0006923675537109375,-0.007427096366882324,0.029797866940498352
1761395853525948200,1.1309482421875,0.04713726043701172,0.002307891845703125,-0.001989811658859253
1761395853545325800,1.150325927734375,0.0536956787109375,-0.02177739143371582,-0.035469695925712585
1761395853564703700,1.169703857421875,-0.010910987854003906,-0.00290679931640625,-0.00658164918422699
1761395853584081700,1.18908154296875,-0.040999412536621094,0.0047498345375061035,0.005018576979637146
1761395853603459600,1.20845947265625,0.008181571960449219,0.014435052871704102,0.014908060431480408
1761395853622837500,1.22783740234375,0.016819000244140625,-0.00476306676864624,-0.016016095876693726
1761395853642215400,1.24721533203125,0.026132583618164062,0.023504793643951416,0.01676774024963379
1761395853661593300,1.26659326171875,-0.0037431716918945312,0.009854793548583984,0.01626257598400116
1761395853680971300,1.28597119140625,0.004731178283691406,0.003262460231781006,0.02307763695716858
1761395853700349000,1.305348876953125,0.06701087951660156,0.006817936897277832,0.014541521668434143
1761395853719726800,1.324726806640625,-0.032044410705566406,-0.008533358573913574,0.014417603611946106
1761395853739104800,1.344104736328125,-0.016882896423339844,0.00529855489730835,0.018388420343399048
1761395853758482700,1.363482666015625,0.02533435821533203,-0.013170957565307617,0.0075489431619644165
1761395853777860600,1.382860595703125,0.009698867797851562,-0.012217283248901367,0.013608753681182861
1761395853797238500,1.402238525390625,-0.011096000671386719,-0.001402437686920166,0.01820094883441925
1761395853816616400,1.421616455078125,0.05626106262207031,-0.015257060527801514,0.030806273221969604
1761395853835994400,1.440994384765625,0.056308746337890625,-0.0074806809425354,-0.0010251998901367188
1761395853855372300,1.460372314453125,-0.03281402587890625,0.025670170783996582,0.03965349495410919
1761395853874750000,1.47975,0.031073570251464844,-0.015312671661376953,0.0028391033411026
1761395853894127900,1.4991279296875,0.024886131286621094,-0.013242542743682861,0.003123924136161804
1761395853913505800,1.518505859375,-0.015738487243652344,-0.019266903400421143,0.039763614535331726
1761395853932883700,1.5378837890625,0.042946815490722656,-0.0031749606132507324,0.02050703763961792
1761395853952261600,1.55726171875,0.018776893615722656,0.018092632293701172,-0.018317177891731262
1761395853971639600,1.5766396484375,-0.011231422424316406,0.024547338485717773,-0.03205879032611847
1761395853991017500,1.596017578125,0.0439910888671875,0.007248401641845703,-0.04064206779003143
1761395854010395100,1.61539501953125,0.09206771850585938,-0.019274771213531494,0.01657070219516754
1761395854029773000,1.63477294921875,-0.024268150329589844,-0.004049718379974365,0.00925879180431366
1761395854049151000,1.65415087890625,-0.011280059814453125,0.008414506912231445,-0.016523107886314392
1761395854068529000,1.67352880859375,0.0028905868530273438,0.017467379570007324,0.024999037384986877
1761395854087906800,1.69290673828125,0.019710540771484375,0.004145622253417969,0.021230757236480713
1761395854107284700,1.71228466796875,0.07889270782470703,-0.0024491548538208008,0.01771382987499237
1761395854126662700,1.73166259765625,0.01977825164794922,0.004483222961425781,0.009489297866821289
1761395854146040600,1.75104052734375,-0.029191017150878906,0.011490106582641602,0.012640222907066345
1761395854165418500,1.77041845703125,0.0092010498046875,0.030469179153442383,0.004535287618637085
1761395854184796200,1.789796142578125,0.04949760437011719,-0.027460217475891113,-0.029721811413764954
1761395854204174000,1.809174072265625,0.11743354797363281,-0.08457225561141968,-0.033639535307884216
1761395854223552000,1.828552001953125,0.012266159057617188,-0.05152750015258789,0.031017258763313293
1761395854242930000,1.847929931640625,-0.11827278137207031,-0.00011467933654785156,0.10495011508464813
1761395854262307800,1.867307861328125,-0.1025857925415039,-0.010247290134429932,0.020290523767471313
1761395854281685800,1.886685791015625,0.11874675750732422,-0.0010312795639038086,0.02048151195049286
1761395854301063700,1.906063720703125,0.006289482116699219,-0.013263940811157227,-0.03148561716079712
1761395854320441300,1.92544140625,0.05257129669189453,0.014247417449951172,0.0037472397089004517
1761395854339819300,1.9448193359375,0.03241443634033203,-0.001896977424621582,-0.000741809606552124
1761395854359197200,1.964197265625,-0.060914039611816406,0.010746359825134277,0.011586740612983704
1761395854378575000,1.9835751953125,0.0250701904296875,0.006779611110687256,0.031168431043624878
1761395854397953000,2.002953125,0.06819534301757812,0.002713322639465332,0.02000519633293152
1761395854417331000,2.0223310546875,-0.0035734176635742188,-0.003976225852966309,-0.012703821063041687
1761395854436708900,2.041708984375,0.013204574584960938,0.0159757137298584,-0.0075998455286026
1761395854456086500,2.06108642578125,0.00365447998046875,0.015928566455841064,-0.03352436423301697
1761395854475464400,2.08046435546875,-0.013195037841796875,0.02488875389099121,-0.011757895350456238
1761395854494842400,2.09984228515625,0.06256961822509766,-0.0397639274597168,-0.015439555048942566
1761395854514220300,2.11922021484375,0.029692649841308594,-0.004517912864685059,0.057729512453079224
1761395854533598200,2.13859814453125,-0.05166816711425781,0.001998722553253174,0.03854389488697052
1761395854552976100,2.15797607421875,0.06343650817871094,-0.015465319156646729,0.022472262382507324
1761395854572354000,2.17735400390625,0.04338836669921875,-0.02266561985015869,0.004464447498321533
1761395854591732000,2.19673193359375,-0.06021404266357422,-0.013315856456756592,0.03512130677700043
1761395854611110000,2.21610986328125,0.05471229553222656,-0.005806446075439453,0.04074831306934357
1761395854630487600,2.235487548828125,0.047509193420410156,0.002033531665802002,0.011124461889266968
1761395854649865500,2.254865478515625,0.014112472534179688,0.002939760684967041,-0.024543538689613342
1761395854669243400,2.274243408203125,0.039376258850097656,0.006196498870849609,-0.012360647320747375
1761395854688621300,2.293621337890625,-0.04059886932373047,0.006621301174163818,0.026462405920028687
1761395854707999200,2.312999267578125,-0.017839431762695312,-0.0123404860496521,-0.0038719922304153442
1761395854727377200,2.332377197265625,0.09861564636230469,-0.023881614208221436,0.0068912506103515625
1761395854746755000,2.351755126953125,0.0119476318359375,-0.007463932037353516,0.016962930560112
1761395854766132700,2.3711328125,-0.028760910034179688,-0.005446732044219971,0.004217386245727539
1761395854785510700,2.3905107421875,0.045493125915527344,-0.008879303932189941,0.008255839347839355
1761395854804888600,2.409888671875,-0.0036783218383789062,0.00915539264678955,0.007570192217826843
1761395854824266500,2.4292666015625,0.01776123046875,0.007927775382995605,0.017484992742538452
1761395854843644400,2.44864453125,0.010502815246582031,-0.002265334129333496,0.03315840661525726
1761395854863022300,2.468022216796875,0.023652076721191406,-0.007632017135620117,0.0074246227741241455
1761395854882400300,2.487400146484375,0.02722644805908203,-0.0039556026458740234,0.0018903017044067383
1761395854901778200,2.506778076171875,0.023674964904785156,0.0005064010620117188,-0.008119255304336548
1761395854921156000,2.526156005859375,0.026126861572265625,0.009316980838775635,0.0016602277755737305
1761395854940533800,2.54553369140625,-0.008375167846679688,-0.00805199146270752,0.0027391165494918823
1761395854959911700,2.56491162109375,0.03632831573486328,-0.014348208904266357,-0.004867389798164368
1761395854979289600,2.58428955078125,0.008809089660644531,-0.03030550479888916,0.030236616730690002
1761395854998667500,2.60366748046875,-0.005730628967285156,-0.019427716732025146,0.007743343710899353
1761395855018045400,2.62304541015625,0.030920028686523438,0.02547633647918701,-0.005593985319137573
1761395855037423400,2.64242333984375,-0.029008865356445312,0.027830839157104492,-0.01525355875492096
1761395855056801300,2.66180126953125,0.0030584335327148438,0.014351725578308105,-0.01348644495010376
1761395855076179000,2.681178955078125,0.07987785339355469,-0.01948612928390503,0.017351165413856506
1761395855095556900,2.700556884765625,0.10756397247314453,-0.017723798751831055,0.00200498104095459
1761395855114934800,2.719934814453125,-0.05565929412841797,0.003950357437133789,0.005720049142837524
1761395855134312700,2.739312744140625,-0.029468536376953125,0.009111344814300537,0.0180375874042511
1761395855153690600,2.758690673828125,0.10268688201904297,-0.019249260425567627,-0.0025986284017562866
1761395855173068500,2.778068603515625,0.013888359069824219,-0.0016197562217712402,-0.0035528093576431274
1761395855192446500,2.797446533203125,-0.056854248046875,0.031297385692596436,0.008925303816795349
1761395855211824000,2.81682421875,0.0559539794921875,-0.022391796112060547,0.005143657326698303
1761395855231202000,2.8362021484375,0.004548072814941406,-0.03457385301589966,0.018534749746322632
1761395855250580000,2.855580078125,0.00328826904296875,-0.02485746145248413,0.03715890645980835
1761395855269958000,2.8749580078125,0.03419017791748047,-0.015278279781341553,0.02517913281917572
1761395855289335800,2.894335693359375,0.027130126953125,-0.021177172660827637,0.021711111068725586
1761395855308713700,2.913713623046875,-0.009104728698730469,-0.00924617052078247,0.045107871294021606
1761395855328091600,2.933091552734375,-0.032065391540527344,0.010164022445678711,0.03593161702156067
1761395855347469600,2.952469482421875,0.061417579650878906,-0.015498161315917969,0.027336329221725464
1761395855366847200,2.97184716796875,0.07843971252441406,-0.029101192951202393,-0.007483869791030884
1761395855386225200,2.99122509765625,0.0017414093017578125,-0.00741201639175415,-0.019814908504486084
1761395855405603000,3.01060302734375,-0.04875373840332031,0.014232456684112549,-0.025697022676467896
1761395855424981000,3.02998095703125,0.06375408172607422,0.01140207052230835,0.010494530200958252
1761395855444359000,3.04935888671875,-0.013964653015136719,0.025464653968811035,0.026749923825263977
1761395855463736800,3.06873681640625,-0.005690574645996094,0.018019497394561768,-0.014208376407623291
1761395855483114800,3.08811474609375,0.04570579528808594,0.026130974292755127,-0.018040955066680908
1761395855502492400,3.107492431640625,-0.0105743408203125,0.029587149620056152,-0.007143884897232056
1761395855521870300,3.126870361328125,0.02198505401611328,-0.003505527973175049,-0.024115651845932007
1761395855541248300,3.146248291015625,0.0591278076171875,-0.03539067506790161,0.008772596716880798
1761395855560626200,3.165626220703125,0.024422645568847656,-0.030032455921173096,0.028016522526741028
1761395855580004000,3.185004150390625,-0.031019210815429688,-0.006348669528961182,0.04490584135055542
1761395855599382000,3.204382080078125,0.04021930694580078,-0.015564322471618652,0.0054444968700408936
1761395855618760000,3.223760009765625,-0.005810737609863281,0.004861891269683838,0.012911796569824219
1761395855638137900,3.243137939453125,-0.004376411437988281,-0.01925593614578247,-0.008046314120292664
1761395855657515800,3.262515869140625,0.0472412109375,-0.023542821407318115,0.005642354488372803
1761395855676893400,3.2818935546875,0.050894737243652344,-0.026513874530792236,0.007673546671867371
1761395855696271400,3.301271240234375,-0.0009431838989257812,-0.0013183951377868652,0.02292388677597046
1761395855715649300,3.320649169921875,0.018419265747070312,-0.00673598051071167,0.016814380884170532
1761395855735027200,3.340027099609375,0.025760650634765625,-0.0055408477783203125,-0.01626347005367279
1761395855754405000,3.359405029296875,0.0050201416015625,0.013726651668548584,0.0055193305015563965
1761395855773783000,3.378782958984375,0.021839141845703125,0.01668369770050049,0.0009094327688217163
1761395855793160700,3.39816064453125,0.017152786254882812,0.006329774856567383,-0.013246476650238037
1761395855812538600,3.41753857421875,0.039061546325683594,-0.007164061069488525,-0.0033802837133407593
1761395855831916500,3.43691650390625,0.01369476318359375,0.010924220085144043,0.015124231576919556
1761395855851294500,3.45629443359375,-0.022050857543945312,-0.0036687850952148438,-0.001535460352897644
1761395855870672400,3.47567236328125,0.03940582275390625,-0.030606329441070557,0.0005125999450683594
1761395855890050300,3.49505029296875,0.03943443298339844,-0.0247918963432312,0.02007676661014557
1761395855909428200,3.51442822265625,-0.008966445922851562,0.004998385906219482,0.01849609613418579
1761395855928806100,3.53380615234375,0.015015602111816406,-0.00018841028213500977,0.007274344563484192
1761395855948279800,3.55327978515625,0.024919509887695312,-0.007227897644042969,-0.020161017775535583
1761395855967561700,3.572561767578125,0.0041942596435546875,0.00026047229766845703,0.03156179189682007
1761395855986939600,3.591939697265625,0.01531982421875,-0.023383259773254395,0.012016892433166504
1761395856006317600,3.611317626953125,0.016429901123046875,-0.00742870569229126,0.02543884515762329
1761395856025695500,3.630695556640625,0.02573394775390625,-0.003388047218322754,0.026278406381607056
1761395856045073400,3.650073486328125,0.03172016143798828,-0.0010867118835449219,0.020856350660324097
1761395856064451300,3.669451416015625,0.006791114807128906,-0.007476091384887695,0.0026427358388900757
1761395856083829000,3.6888291015625,0.020499229431152344,-0.029652118682861328,0.020549118518829346
1761395856103207000,3.70820703125,0.016626358032226562,-0.01584804058074951,0.02699001133441925
1761395856122584800,3.727584716796875,0.0009136199951171875,0.007767617702484131,-0.010130658745765686
1761395856141962800,3.746962646484375,0.027063369750976562,0.010275781154632568,-0.009933993220329285
1761395856161340700,3.766340576171875,0.012871742248535156,0.008414804935455322,-0.013081446290016174
1761395856180718600,3.785718505859375,0.029758453369140625,-0.01850062608718872,-0.007986098527908325
1761395856200096500,3.805096435546875,0.034224510192871094,0.0012719035148620605,-0.0044107586145401
1761395856219474400,3.824474365234375,0.036398887634277344,0.003567218780517578,-0.00846908986568451
1761395856238852000,3.84385205078125,-0.028344154357910156,0.012447834014892578,0.00883418321609497
1761395856258230000,3.86322998046875,0.03652477264404297,-0.005676150321960449,0.009857922792434692
1761395856277608000,3.88260791015625,0.04234600067138672,0.0039052963256835938,0.0003010183572769165
1761395856296985900,3.90198583984375,0.0044994354248046875,-0.018816351890563965,0.00042463839054107666
1761395856316363800,3.92136376953125,0.0017032623291015625,-0.0049855709075927734,-0.004952654242515564
1761395856335741700,3.94074169921875,-0.006649971008300781,-0.007521986961364746,-0.005807146430015564
1761395856355119600,3.96011962890625,0.031920433044433594,-0.03528207540512085,0.0017279237508773804
1761395856374497300,3.979497314453125,0.07143020629882812,-0.04116332530975342,0.017328277230262756
1761395856393875200,3.998875244140625,-0.046126365661621094,-0.0279695987701416,0.05518735945224762
1761395856413253000,4.018253173828125,0.011051177978515625,-0.008538961410522461,0.041164278984069824
1761395856432631000,4.037631103515625,0.02803325653076172,-0.014870882034301758,0.025882944464683533
1761395856452009000,4.057009033203125,0.009675025939941406,0.0003457069396972656,0.04085513949394226
1761395856471387000,4.076386962890625,0.006572723388671875,-0.0231473445892334,-0.006524190306663513
1761395856490764800,4.095764892578125,0.035121917724609375,-0.01632779836654663,-0.003032401204109192
1761395856510142500,4.115142578125,-0.04442119598388672,0.011867225170135498,0.012273907661437988
1761395856529520400,4.134520263671875,0.03072071075439453,0.01505213975906372,-0.0035767555236816406
1761395856548898300,4.153898193359375,0.11133670806884766,0.002638876438140869,0.010592684149742126
1761395856568276200,4.173276123046875,0.015305519104003906,0.007373332977294922,0.014413192868232727
1761395856587654100,4.192654052734375,-0.020505905151367188,0.007151424884796143,-0.012697666883468628
1761395856607032000,4.212031982421875,0.011991500854492188,-0.003491044044494629,-0.03642281889915466
1761395856626410000,4.231409912109375,-0.013323783874511719,0.014432132244110107,-0.021719008684158325
1761395856645788000,4.250787841796875,0.04917716979980469,-0.01743680238723755,-0.026307962834835052
1761395856665165600,4.27016552734375,0.03353118896484375,-0.018661558628082275,0.026501789689064026
1761395856684543500,4.28954345703125,-0.008792877197265625,-0.005926370620727539,0.028037235140800476
1761395856703921400,4.30892138671875,0.010186195373535156,0.01434791088104248,0.022197306156158447
1761395856723299300,4.32829931640625,0.030852317810058594,-0.015260875225067139,0.017209544777870178
1761395856742677200,4.34767724609375,0.009386062622070312,-0.03708428144454956,5.662441253662109e-7
1761395856762055200,4.36705517578125,0.010528564453125,-0.029517948627471924,0.0037432610988616943
1761395856781433000,4.38643310546875,-0.013601303100585938,-0.015797793865203857,0.008456259965896606
1761395856800810800,4.405810791015625,0.07971954345703125,-0.01404041051864624,0.001084253191947937
1761395856820188700,4.425188720703125,0.041469573974609375,-0.013203859329223633,-0.01849496364593506
1761395856839566600,4.444566650390625,-0.02604389190673828,0.004833221435546875,0.011034190654754639
1761395856858944500,4.463944580078125,-0.04307746887207031,0.014158189296722412,0.027712702751159668
1761395856878322400,4.483322509765625,0.08183956146240234,-0.01132434606552124,0.0054088979959487915
1761395856897700400,4.502700439453125,0.03389739990234375,0.0012437105178833008,-0.010296612977981567
1761395856917078300,4.522078369140625,0.0027151107788085938,-0.01722574234008789,-0.013173401355743408
1761395856936456200,4.541456298828125,0.02434062957763672,-0.014444291591644287,0.02515268325805664
1761395856955833900,4.560833740234375,0.004986763000488281,0.00549471378326416,0.018550708889961243
1761395856975211800,4.580211669921875,0.006085395812988281,0.006390631198883057,0.0026611238718032837
1761395856994589700,4.599589599609375,0.013294219970703125,-0.0013904571533203125,0.0035947412252426147
1761395857013967600,4.618967529296875,0.00618743896484375,-0.018419861793518066,-0.005822792649269104
1761395857033345500,4.638345458984375,0.03598976135253906,-0.007333993911743164,0.010816112160682678
1761395857052723500,4.657723388671875,0.04682350158691406,-0.01509082317352295,-0.0014841705560684204
1761395857072101000,4.67710107421875,-0.033782005310058594,0.0029543042182922363,0.026842042803764343
1761395857091479000,4.69647900390625,-0.006087303161621094,-0.014791607856750488,0.014625594019889832
1761395857110857000,4.71585693359375,0.057373046875,-0.025323212146759033,0.014180436730384827
1761395857130235000,4.73523486328125,0.010711669921875,-0.02574259042739868,0.011669501662254333
1761395857149612800,4.75461279296875,-0.015806198120117188,-0.020487189292907715,0.02021673321723938
1761395857168990700,4.77399072265625,0.02190876007080078,0.03192836046218872,0.0063447654247283936
1761395857188368600,4.79336865234375,0.04036521911621094,-0.00008338689804077148,0.001072511076927185
1761395857207746600,4.81274658203125,0.039162635803222656,-0.03014308214187622,0.011987477540969849
1761395857227124500,4.83212451171875,0.019985198974609375,-0.04417508840560913,0.001861080527305603
1761395857246502100,4.851502197265625,-0.02335071563720703,0.01005321741104126,0.004954472184181213
1761395857265880000,4.870880126953125,-0.03187847137451172,0.017526328563690186,-0.02245144546031952
1761395857285258000,4.890258056640625,0.04348945617675781,0.00566333532333374,-0.034738071262836456
1761395857304636000,4.909635986328125,0.11990833282470703,-0.010876357555389404,-0.005179703235626221
1761395857324013800,4.929013916015625,0.03252124786376953,-0.016360878944396973,0.012955859303474426
1761395857343391700,4.948391845703125,-0.012975692749023438,-0.004646718502044678,0.03323626518249512
1761395857362769400,4.967769287109375,-0.034915924072265625,0.0278281569480896,0.036660850048065186
1761395857382147300,4.987147216796875,0.016597747802734375,0.035339415073394775,0.01395183801651001
1761395857401525200,5.006525146484375,0.04324150085449219,0.005347013473510742,-0.017273634672164917
1761395857420903200,5.025903076171875,-0.009602546691894531,-0.01776421070098877,0.0006066560745239258
1761395857440281000,5.045281005859375,0.029802322387695312,-0.01903843879699707,-0.025041580200195312
1761395857459659000,5.064658935546875,-0.006214141845703125,-0.02740997076034546,0.006686031818389893
1761395857479037000,5.084036865234375,-0.017868995666503906,-0.06844568252563477,0.022868096828460693
1761395857498414800,5.103414794921875,0.05495738983154297,-0.0637887716293335,0.06419342756271362
1761395857517792500,5.12279248046875,0.01601886749267578,-0.021339595317840576,0.03871825337409973
1761395857537170400,5.14217041015625,0.038726806640625,-0.0014250874519348145,0.010304003953933716
1761395857556548400,5.16154833984375,0.00396728515625,-0.006296694278717041,-0.025318846106529236
1761395857575926300,5.18092626953125,-0.02730083465576172,-0.014652729034423828,-0.020902171730995178
1761395857595304200,5.20030419921875,-0.0034799575805664062,0.0007804036140441895,-0.0004620552062988281
1761395857614682000,5.21968212890625,0.04553413391113281,-0.013435006141662598,-0.024805858731269836
1761395857634059800,5.239059814453125,0.04646778106689453,0.017052173614501953,-0.013994112610816956
1761395857653437700,5.258437744140625,-0.016073226928710938,0.034634947776794434,-0.0031732171773910522
1761395857672815600,5.277815673828125,0.04161548614501953,0.024954378604888916,-0.012958958745002747
1761395857692193500,5.297193603515625,0.08013057708740234,-0.003075838088989258,-0.010279789566993713
1761395857711571500,5.316571533203125,-0.02893352508544922,0.02815699577331543,0.0004865676164627075
1761395857730949400,5.335949462890625,-0.05406665802001953,-0.004708707332611084,-0.0019066929817199707
1761395857750327300,5.355327392578125,0.07674980163574219,-0.06808114051818848,0.010588467121124268
1761395857769705000,5.374705078125,0.06708145141601562,-0.0425146222114563,0.022896617650985718
1761395857789083000,5.394082763671875,-0.022932052612304688,-0.011792600154876709,0.02179272472858429
1761395857808460800,5.413460693359375,-0.03526020050048828,0.009913504123687744,0.03215634822845459
1761395857827838700,5.432838623046875,-0.0004911422729492188,-0.012373805046081543,0.04107145965099335
1761395857847216600,5.452216552734375,0.06204700469970703,-0.04681360721588135,0.022647559642791748
1761395857866594600,5.471594482421875,0.07755851745605469,-0.038136839866638184,0.009609684348106384
1761395857885972500,5.490972412109375,-0.042372703552246094,0.0052970051765441895,0.013129711151123047
1761395857905350100,5.51035009765625,0.012620925903320312,0.010617375373840332,-0.010250210762023926
1761395857924728000,5.52972802734375,0.04360675811767578,0.002529621124267578,-0.019786641001701355
1761395857944106000,5.54910595703125,-0.03065967559814453,0.0004919171333312988,-0.0009476244449615479
1761395857963484000,5.56848388671875,0.02199840545654297,-0.006244778633117676,0.005699872970581055
1761395857982861800,5.58786181640625,0.10264015197753906,-0.017706573009490967,-0.017600014805793762
1761395858002239700,5.60723974609375,0.008885383605957031,-0.0037679672241210938,-0.009292766451835632
1761395858021617700,5.62661767578125,-0.06178092956542969,-0.004809260368347168,-0.007366478443145752
1761395858040995300,5.645995361328125,0.024219512939453125,0.0029827356338500977,-0.007127612829208374
1761395858060373200,5.665373291015625,0.046962738037109375,0.009950637817382812,0.013635575771331787
1761395858079751200,5.684751220703125,0.007388114929199219,0.0007117986679077148,0.021585553884506226
1761395858099129000,5.704129150390625,-0.004805564880371094,-0.0018404126167297363,0.011915087699890137
1761395858118507000,5.723507080078125,0.034974098205566406,-0.041642189025878906,-0.011659182608127594
1761395858137885000,5.742885009765625,0.05428028106689453,-0.04307091236114502,-0.018519610166549683
1761395858157262800,5.762262939453125,-0.004422187805175781,-0.031018495559692383,-0.003164149820804596
1761395858176640800,5.781640869140625,0.0107574462890625,0.0014076828956604004,0.035582877695560455
1761395858196018400,5.801018310546875,0.0059223175048828125,0.006451725959777832,0.03161289542913437
1761395858215396400,5.820396240234375,0.04051494598388672,-0.01700800657272339,0.02034611999988556
1761395858234774300,5.839774169921875,0.056110382080078125,-0.008011043071746826,0.005149379372596741
1761395858254152200,5.859152099609375,-0.022769927978515625,-0.019550561904907227,0.004060380160808563
1761395858273530000,5.878530029296875,-0.007241249084472656,-0.0169946551322937,0.024700596928596497
1761395858292908000,5.897907958984375,0.0603485107421875,-0.025439858436584473,-0.016095586121082306
1761395858312285700,5.91728564453125,0.016748428344726562,0.0329170823097229,-0.009924307465553284
1761395858331663600,5.93666357421875,-0.01810932159423828,0.023045063018798828,-0.0070212483406066895
1761395858351041500,5.95604150390625,0.06982612609863281,-0.02298635244369507,0.008859947323799133
1761395858370419500,5.97541943359375,0.051795005798339844,-0.01302117109298706,-0.0031909793615341187
1761395858389797400,5.99479736328125,-0.010722160339355469,0.010239958763122559,-0.007635660469532013
1761395858409175300,6.01417529296875,-0.01919078826904297,0.021933257579803467,0.030947662889957428
1761395858428553200,6.03355322265625,0.01675128936767578,-0.009925782680511475,0.02060937136411667
1761395858447931100,6.05293115234375,0.04895210266113281,-0.015075862407684326,0.04342343658208847
1761395858467308800,6.072308837890625,0.0465850830078125,0.00849384069442749,-0.008030518889427185
1761395858486686700,6.091686767578125,-0.051835060119628906,0.007370054721832275,-0.00969678908586502
1761395858506064600,6.111064697265625,0.042031288146972656,-0.021083354949951172,-0.04543916881084442
1761395858525442600,6.130442626953125,0.0060062408447265625,-0.05430757999420166,-0.034683920443058014
1761395858544820500,6.149820556640625,-0.028931617736816406,-0.07186764478683472,0.015584655106067657
1761395858564198400,6.169198486328125,0.06908893585205078,-0.047409117221832275,0.030805207788944244
1761395858583576000,6.188576171875,0.049678802490234375,-0.006710946559906006,0.034356020390987396
1761395858602954000,6.2079541015625,-0.04257392883300781,0.005179762840270996,0.0477324053645134
1761395858622332000,6.227331787109375,0.05826091766357422,-0.028553783893585205,0.010700397193431854
1761395858641709800,6.246709716796875,0.05948352813720703,-0.010337769985198975,0.016240432858467102
1761395858661087700,6.266087646484375,-0.07236289978027344,-0.007289707660675049,0.0019386112689971924
1761395858680465700,6.285465576171875,0.013661384582519531,0.002084970474243164,-0.01671888679265976
1761395858699843600,6.304843505859375,0.06873893737792969,0.016404330730438232,-0.009163498878479004
1761395858719221500,6.324221435546875,0.013818740844726562,0.024105727672576904,-0.005774021148681641
1761395858738599200,6.34359912109375,0.009043693542480469,0.02643042802810669,-0.019211873412132263
1761395858757977000,6.36297705078125,-0.008894920349121094,0.0053749680519104,-0.0273192897439003
1761395858777355000,6.38235498046875,0.039203643798828125,-0.012338757514953613,-0.042193181812763214
1761395858796733000,6.40173291015625,0.007702827453613281,0.0042937397956848145,-0.024803370237350464
1761395858816110800,6.42111083984375,0.020995140075683594,-0.007234156131744385,-0.003678448498249054
1761395858835488800,6.44048876953125,0.03218269348144531,-0.03511309623718262,0.0008765533566474915
1761395858854866400,6.459866455078125,0.013951301574707031,-0.024938762187957764,0.02991081029176712
1761395858874244400,6.479244384765625,-0.019746780395507812,-0.013921260833740234,0.023479610681533813
1761395858893622300,6.498622314453125,0.05009269714355469,-0.02605515718460083,0.003420710563659668
1761395858913000200,6.518000244140625,0.03409290313720703,-0.008116006851196289,0.017826467752456665
1761395858932378000,6.537378173828125,-0.014644622802734375,-0.027494847774505615,0.008818864822387695
1761395858951756000,6.556756103515625,0.008051872253417969,-0.023307383060455322,0.024855338037014008
1761395858971134000,6.576134033203125,0.00534820556640625,-0.007798135280609131,0.030943460762500763
1761395858990511900,6.595511962890625,0.05375385284423828,-0.015244603157043457,0.011224545538425446
1761395859009889500,6.6148896484375,-0.016077041625976562,0.0014882683753967285,0.023883581161499023
1761395859029267500,6.634267333984375,0.011766433715820312,-0.025470435619354248,0.002743445336818695
1761395859048645400,6.653645263671875,0.07635021209716797,-0.00956571102142334,0.012461364269256592
1761395859068023300,6.673023193359375,-0.018286705017089844,0.008899390697479248,0.02638312429189682
1761395859087401200,6.692401123046875,-0.0027055740356445312,-0.008169889450073242,0.013031162321567535
1761395859106779100,6.711779052734375,0.035556793212890625,-0.00643998384475708,0.009002193808555603
1761395859126156800,6.73115673828125,0.00952911376953125,-0.02686309814453125,0.010048694908618927
1761395859145534700,6.75053466796875,0.05041217803955078,-0.01505732536315918,-0.000779762864112854
1761395859164912600,6.76991259765625,0.05550384521484375,-0.021837234497070312,0.004535242915153503
1761395859184290600,6.78929052734375,-0.06847095489501953,0.03318208456039429,-0.03617662191390991
1761395859203668500,6.80866845703125,0.011822700500488281,-0.00012201070785522461,-0.010352753102779388
1761395859223046400,6.82804638671875,0.079071044921875,-0.0028644800186157227,-0.007861360907554626
1761395859242424300,6.84742431640625,-0.028258323669433594,-0.03506112098693848,-0.012559846043586731
1761395859261802200,6.86680224609375,0.01949596405029297,-0.03248101472854614,0.004158496856689453
1761395859281180000,6.886179931640625,0.022756576538085938,-0.0009514689445495605,0.0015980526804924011
1761395859300557800,6.905557861328125,0.012054443359375,0.011197388172149658,-0.027347587049007416
1761395859319935700,6.924935791015625,0.04951953887939453,-0.014439880847930908,-0.018875978887081146
1761395859339313700,6.944313720703125,-0.0107879638671875,-0.003944218158721924,0.0038592591881752014
1761395859358691600,6.963691650390625,-0.028778076171875,-0.010860860347747803,0.03450808674097061
1761395859378069500,6.983069580078125,0.06499576568603516,-0.02093493938446045,0.00111369788646698
1761395859397447200,7.002447265625,0.027948379516601562,-0.01324450969696045,-0.033359646797180176
1761395859416825000,7.0218251953125,-0.008428573608398438,-0.0015086531639099121,-0.007879726588726044
1761395859436203000,7.041203125,0.006176948547363281,-0.011756837368011475,0.015759937465190887
1761395859455581000,7.060580810546875,0.09142303466796875,-0.03225511312484741,0.03544601798057556
1761395859474958800,7.079958740234375,0.025026321411132812,0.005106210708618164,0.014127738773822784
1761395859494336800,7.099336669921875,-0.0001316070556640625,0.023427724838256836,-0.01696668565273285
1761395859513714700,7.118714599609375,-0.001384735107421875,0.0050432682037353516,0.0043152570724487305
1761395859533092400,7.13809228515625,-0.025351524353027344,0.020940959453582764,0.046604305505752563
1761395859552470300,7.15747021484375,0.016696929931640625,-0.01541590690612793,0.014143243432044983
1761395859571848200,7.17684814453125,0.08994770050048828,-0.027366578578948975,0.0073305293917655945
1761395859591226000,7.19622607421875,0.008492469787597656,-0.021310627460479736,-0.0065986886620521545
1761395859610604000,7.21560400390625,-0.023652076721191406,-0.03753781318664551,-0.0001973286271095276
1761395859629982000,7.23498193359375,0.04586029052734375,-0.04297161102294922,0.013477370142936707
1761395859649359600,7.254359619140625,0.01842975616455078,-0.047714054584503174,0.007852211594581604
1761395859668737500,7.273737548828125,-0.0034284591674804688,-0.027775466442108154,0.0205654576420784
1761395859688115500,7.293115478515625,0.00356292724609375,-0.005701899528503418,0.00433775782585144
1761395859707493400,7.312493408203125,-0.0022954940795898438,-0.015397727489471436,0.011072561144828796
1761395859726871300,7.331871337890625,0.03244304656982422,-0.018988370895385742,0.01724378764629364
1761395859746249200,7.351249267578125,0.046868324279785156,-0.031013548374176025,-0.0171271413564682
1761395859765627100,7.370627197265625,0.017963409423828125,-0.013203859329223633,-0.020702436566352844
1761395859785005000,7.390005126953125,-0.0049839019775390625,0.010404109954833984,-0.013629846274852753
1761395859804382700,7.4093828125,0.020163536071777344,0.023606061935424805,-0.01570117473602295
1761395859823760600,7.4287607421875,0.011759757995605469,0.03706711530685425,-0.005567952990531921
1761395859843138600,7.448138671875,0.003292083740234375,0.024742066860198975,-0.008268028497695923
1761395859862516500,7.4675166015625,-0.004063606262207031,0.01451939344406128,-0.025994107127189636
1761395859881894400,7.486894287109375,0.02988910675048828,-0.020159661769866943,-0.031007714569568634
1761395859901272300,7.506272216796875,0.05603313446044922,-0.01599651575088501,-0.014247797429561615
1761395859920650000,7.52564990234375,-0.010068893432617188,-0.01304316520690918,0.0004944205284118652
1761395859940028000,7.54502783203125,0.013049125671386719,-0.030885517597198486,0.014395646750926971
1761395859959405800,7.56440576171875,0.05855560302734375,-0.034585654735565186,0.02344607561826706
1761395859978783700,7.58378369140625,-0.022129058837890625,-0.012463808059692383,0.05507262796163559
1761395859998161700,7.60316162109375,-0.0014085769653320312,-0.025420725345611572,0.006470225751399994
1761395860017539600,7.62253955078125,0.024672508239746094,-0.013557970523834229,0.011537857353687286
1761395860036917500,7.64191748046875,0.029730796813964844,-0.028488576412200928,0.0017689093947410583
1761395860056295400,7.66129541015625,0.0159912109375,-0.007745862007141113,0.01798854023218155
1761395860075673000,7.680673095703125,0.0102386474609375,-0.011635959148406982,-0.004799008369445801
1761395860095051000,7.700051025390625,0.049836158752441406,-0.014109611511230469,-0.005109138786792755
1761395860114429000,7.719428955078125,0.0030202865600585938,-0.009818315505981445,-0.01162344217300415
1761395860133806800,7.738806884765625,-0.006832122802734375,-0.0009213089942932129,-0.005692988634109497
1761395860153184800,7.758184814453125,0.04727458953857422,-0.0011969208717346191,-0.015876404941082
1761395860172562700,7.777562744140625,0.00867462158203125,0.011738359928131104,0.0032550841569900513
1761395860191940400,7.7969404296875,-0.019865036010742188,-0.008536338806152344,-0.003584042191505432
1761395860211318300,7.816318359375,0.053345680236816406,-0.021049320697784424,0.0033558830618858337
1761395860230696200,7.8356962890625,0.03420829772949219,-0.02239680290222168,-0.003586031496524811
1761395860250074000,7.85507421875,0.02093029022216797,-0.014805853366851807,0.015343718230724335
1761395860269452000,7.8744521484375,0.0043201446533203125,-0.02648526430130005,0.007215999066829681
1761395860288830000,7.893829833984375,-0.0070514678955078125,-0.0016788840293884277,0.01100524514913559
1761395860308207600,7.91320751953125,0.015959739685058594,-0.007181406021118164,-0.005435004830360413
1761395860327585500,7.93258544921875,0.027878761291503906,-0.008910953998565674,-0.00026651471853256226
1761395860346963500,7.95196337890625,0.025519371032714844,-0.021226942539215088,0.004019714891910553
1761395860366341400,7.97134130859375,0.0015439987182617188,-0.006739974021911621,-0.005909912288188934
1761395860385719300,7.99071923828125,0.017333030700683594,-0.0116196870803833,-0.016748972237110138
1761395860405097200,8.01009716796875,0.03043842315673828,-0.013192594051361084,-0.014099761843681335
1761395860424475100,8.02947509765625,0.03728008270263672,-0.003826320171356201,0.0007231459021568298
1761395860443852800,8.048852783203126,-0.0028638839721679688,-0.0231248140335083,0.03785434365272522
1761395860463230700,8.068230712890625,0.002857208251953125,-0.04079979658126831,0.006151854991912842
1761395860482608600,8.087608642578125,0.047066688537597656,-0.012944221496582031,0.005981676280498505
1761395860501986600,8.106986572265624,-0.0093994140625,0.021276116371154785,-0.010286949574947357
1761395860521364500,8.126364501953125,-0.005779266357421875,0.004600167274475098,-0.017180517315864563
1761395860540742400,8.145742431640626,0.07343864440917969,-0.038940370082855225,-0.007831625640392303
1761395860560120300,8.165120361328125,0.05550193786621094,-0.02687203884124756,0.005902327597141266
1761395860579498000,8.184498046875,-0.031322479248046875,0.039828479290008545,-0.004696860909461975
1761395860598876000,8.2038759765625,0.02752399444580078,0.016228079795837402,0.0009078159928321838
1761395860618260700,8.2232607421875,0.0612030029296875,-0.006410956382751465,0.00874079018831253
1761395860637638700,8.242638671875,-0.03959941864013672,0.004549682140350342,0.014702469110488892
1761395860657016600,8.2620166015625,0.0012598037719726562,-0.0032291412353515625,-0.008952021598815918
1761395860676394500,8.28139453125,0.05655956268310547,-0.033239781856536865,-0.022505395114421844
1761395860695772400,8.3007724609375,-0.017714500427246094,-0.03244227170944214,-0.00045981258153915405
1761395860715150300,8.320150390625,0.02644634246826172,-0.05613100528717041,0.018484152853488922
1761395860734528000,8.339528076171876,0.07072734832763672,-0.04836219549179077,0.03771502524614334
1761395860753906000,8.358906005859374,0.005123138427734375,-0.03163272142410278,0.008763402700424194
1761395860773283800,8.378283935546875,-0.03003215789794922,0.0014463067054748535,0.040037088096141815
1761395860792661800,8.397661865234374,0.034699440002441406,-0.00997912883758545,-0.0006308406591415405
1761395860812039700,8.417039794921875,0.037026405334472656,-0.0029608607292175293,0.014805629849433899
1761395860831417600,8.43641748046875,-0.03474903106689453,-0.013747572898864746,0.00809384137392044
1761395860850795300,8.455795166015625,0.05274391174316406,-0.026615679264068604,-0.005592077970504761
1761395860870173200,8.475173095703125,0.022362709045410156,0.011343657970428467,-0.0156509131193161
1761395860889551000,8.494551025390624,-0.04246997833251953,0.025911033153533936,-0.0091971755027771
1761395860908929000,8.513928955078125,0.09558677673339844,-0.017770051956176758,-0.04312554746866226
1761395860928307000,8.533306884765626,0.08490371704101562,-0.009450376033782959,-0.03898797929286957
1761395860947684900,8.552684814453125,-0.11653423309326172,0.01639270782470703,-0.04576506465673447
1761395860967062800,8.572062744140625,-0.0018167495727539062,0.029562175273895264,-0.021039940416812897
1761395860986440400,8.5914404296875,0.06927871704101562,-0.028434276580810547,-0.007458314299583435
1761395861005818400,8.610818359375,0.045334815979003906,-0.021211624145507812,0.01727449893951416
1761395861025196300,8.6301962890625,0.008330345153808594,-0.04270285367965698,0.019629254937171936
1761395861044574200,8.64957421875,-0.012063980102539062,-0.03250247240066528,0.015136100351810455
1761395861063952100,8.6689521484375,0.0020904541015625,-0.015138983726501465,0.03241567313671112
1761395861083330000,8.688330078125,0.046502113342285156,-0.03504985570907593,0.020562492311000824
1761395861102707700,8.707707763671875,0.022344589233398438,-0.008800268173217773,0.02949291467666626
1761395861122085600,8.727085693359374,0.011586189270019531,-0.0077231526374816895,0.018372975289821625
1761395861141463600,8.746463623046875,0.0006036758422851562,-0.00019884109497070312,0.03020568937063217
1761395861160841500,8.765841552734376,0.04755687713623047,-0.015472352504730225,-0.00831032544374466
1761395861180219400,8.785219482421875,-0.005270957946777344,-0.0056931376457214355,0.000024341046810150146
1761395861199597300,8.804597412109375,0.02108478546142578,-0.0022112131118774414,-0.0009384900331497192
1761395861218975200,8.823975341796874,0.014261245727539062,-0.009279966354370117,0.01913660764694214
1761395861238353200,8.843353271484375,0.006885528564453125,-0.004050254821777344,-0.010303489863872528
1761395861257730800,8.862730712890626,0.0633697509765625,-0.014796972274780273,-0.017520397901535034
1761395861277108700,8.882108642578125,-0.03641700744628906,0.004923403263092041,-0.0005332604050636292
1761395861296486700,8.901486572265625,0.03200721740722656,-0.02330237627029419,-0.00918339192867279
1761395861315864600,8.920864501953124,0.10994529724121094,-0.04073941707611084,-0.012205235660076141
1761395861335242500,8.940242431640625,-0.01824951171875,-0.020420551300048828,0.017390862107276917
1761395861354620200,8.9596201171875,-0.0120086669921875,-0.012389898300170898,0.019321858882904053
1761395861373998000,8.978998046875,0.0709381103515625,-0.030026137828826904,0.01948760449886322
1761395861393376000,8.9983759765625,0.04043006896972656,-0.08215683698654175,0.010257698595523834
1761395861412754000,9.01775390625,0.22696399688720703,-0.10386830568313599,-0.029986344277858734
1761395861432131800,9.0371318359375,0.24510478973388672,-0.018655240535736084,-0.020284518599510193
1761395861451509800,9.056509765625,-0.31633663177490234,0.042383670806884766,-0.06644634902477264
1761395861470887700,9.0758876953125,-0.18604373931884766,0.11616826057434082,0.005150444805622101
1761395861490265600,9.095265625,-0.041042327880859375,0.09467387199401855,0.02065207064151764
1761395861509643300,9.114643310546874,-0.27012062072753906,0.018583238124847412,0.07822157442569733
1761395861548399000,9.153399169921874,0.43319034576416016,-0.08835333585739136,-0.046721428632736206
