time,seconds_elapsed,z,y,x
1761299309768468700,0.09246875,0.8266273492634296,-0.036110008779168125,0.1765134818561375
1761299309788592600,0.112592529296875,1.0880921738266944,-0.13024667459130287,0.1672180494401604
1761299309808715500,0.132715576171875,1.0795283436208962,-0.21347850002944468,0.20671039413399994
1761299309828838700,0.152838623046875,0.6360486633062362,-0.1388502522855997,0.30848486134819686
1761299309848962600,0.172962646484375,0.06899754838049411,-0.005475801062583923,0.3713252753384411
1761299309869085400,0.19308544921875,-0.3079910134166479,0.1024623033478856,0.39898046724423764
1761299309889209600,0.213209716796875,-0.5560802235782146,0.12178981189131736,0.28065277850553394
1761299309909332500,0.23333251953125,-0.8065244724333286,-0.05108604411482811,0.13295491063669324
1761299309929455600,0.25345556640625,-1.1437450874656439,0.0012143442258238791,0.29747736431732774
1761299309949579500,0.27357958984375,-1.2866922536760568,0.3849333833217621,0.5656203514702618
1761299309969702400,0.293702392578125,-0.8305056520015001,0.6653858169496059,0.5799691217530518
1761299309989825500,0.313825439453125,-0.10928513510525226,0.6579284866809845,0.39471747603751717
1761299310009949400,0.333949462890625,0.533865469160676,0.4139358981832862,0.271744884102419
1761299310030072600,0.354072509765625,0.9005752135276794,0.18045359778404235,0.1622103773459792
1761299310050195500,0.374195556640625,0.8823808006674051,-0.032199557337164876,0.20305406358353792
1761299310070319400,0.3943193359375,0.8438543783962726,-0.0712657855734229,0.15324680723287165
1761299310090442500,0.4144423828125,0.6118979723900556,-0.1331660691693425,0.08976816840432583
1761299310110565400,0.4345654296875,0.34709669688045974,-0.1870934741899371,0.0692371292900294
1761299310130689500,0.454689453125,0.089262922295928,-0.13085866900980472,0.1460197055235505
1761299310150812700,0.474812744140625,-0.2622387315452099,-0.22671675178706643,-0.05010127086117863
1761299310170935600,0.494935546875,-0.6133464176326989,-0.3414230351582169,-0.31905082515664396
1761299310191059700,0.515059814453125,-0.9253682940006256,-0.27471622806340457,-0.5269963140435516
1761299310211182800,0.535182861328125,-0.9689783031463622,-0.03693623047024011,-0.6908353885699063
1761299310231305700,0.5553056640625,-0.7536065367162227,0.10394289729446173,-0.7147138384159654
1761299310251430100,0.57543017578125,-0.18241466872394083,0.11243190869837999,-0.578820609305054
1761299310271553000,0.595552978515625,0.3832932148993015,-0.010666355443000793,-0.4893753892447799
1761299310291677000,0.615677001953125,0.6156605397939682,-0.09769552733749151,-0.318564941335842
1761299310311800000,0.635800048828125,0.8783025914430618,0.01939005238562822,0.007375497204065323
1761299310331923000,0.6559228515625,1.1082008958756924,0.17879501692205665,0.24792525177150962
1761299310352046800,0.676046875,1.2010422611802816,0.0901128171235323,0.5074256443940103
1761299310372170000,0.696169921875,0.7872124537199735,-0.13865063806027172,0.5643981892641633
1761299310392292900,0.71629296875,0.07191255904436111,-0.27331659039855,0.5658375013522804
1761299310412417000,0.7364169921875,-0.6753402247309684,-0.33128508750349284,0.49386217927001413
1761299310432540000,0.756539794921875,-1.1485334907859563,-0.3376046459138393,0.3284073401100933
1761299310452663000,0.7766630859375,-1.326453770700097,-0.1930219874560833,0.25091347380205986
1761299310472787000,0.796786865234375,-1.3995920721471309,-0.10335983670949936,0.22753099077939987
1761299310492909800,0.816909912109375,-1.2200684486895799,-0.03838613701760769,-0.02905103017836809
1761299310513033000,0.837032958984375,-0.9484311896800994,-0.07681377508938313,-0.24401670002564788
1761299310533156900,0.857156982421875,-0.3421200775116682,-0.031151217328011988,-0.30657449768222866
1761299310553280000,0.877280029296875,0.3207733381003141,0.06814122381210327,-0.3469287929676473
1761299310573403000,0.89740283203125,0.7360130123585462,0.0540881485402584,-0.2882239444121718
1761299310593526800,0.91752685546875,0.7847457713454962,0.08644523452669381,-0.10093684734627605
1761299310613650000,0.93764990234375,0.635856940126419,0.24049860890209673,0.0053641573816537854
1761299310633772800,0.957772705078125,0.46515024485290046,0.22458003201931714,-0.12029190148375928
1761299310653897000,0.97789697265625,0.31088965746760366,0.04232698359787464,-0.35064540233798325
1761299310674020000,0.99802001953125,0.047393034815788264,-0.00048310734182596205,-0.2405172405373305
1761299310694144000,1.01814404296875,0.020718962901830673,0.1177557340696454,-0.18226013574935496
1761299310714267100,1.03826708984375,-0.15645429803729055,0.05284399369806051,-0.22980784967020151
1761299310734390000,1.05839013671875,-0.2721656667977571,0.01978226657360792,-0.18657865653559563
1761299310754514000,1.078513916015625,-0.3428530679613352,0.16443535991907118,-0.04879537589438259
1761299310774637000,1.098636962890625,-0.2446522214502096,0.33224458018541336,0.08130005365796386
1761299310794760000,1.118760009765625,-0.05928513266146183,0.3391580128356814,0.01981938371360302
1761299310814883800,1.1388837890625,0.07419044084846974,0.13492372649163006,-0.03432436747141182
1761299310835007000,1.159007080078125,0.04580021266639232,0.029516894124448297,0.011066826002672314
1761299310855129900,1.1791298828125,-0.07877075437605381,0.1586453783407807,-0.10257350863739848
1761299310875254000,1.19925390625,-0.016357845082879064,0.16349749454706905,-0.12954933997690676
1761299310895377000,1.219376953125,0.1918190414071083,0.046966626097261904,0.024190511469915507
1761299310915500000,1.2395,0.28200784637629983,0.028098844020068642,0.056331653150729834
1761299310935624000,1.2596240234375,0.10404314279854297,-0.13474281696677207,-0.0962407254192978
1761299310955746800,1.279746826171875,-0.11041267783045768,-0.2760308177933097,-0.32060411901324987
1761299310975870000,1.299869873046875,-0.29114333899021144,-0.27409984973073004,-0.4127320022862404
1761299310995993900,1.319993896484375,-0.38894203444123265,-0.20379677170962093,-0.30952837905175984
1761299311016116700,1.34011669921875,-0.3387257588982582,-0.12389467521607875,-0.15677688105516135
1761299311036241200,1.3602412109375,-0.0719178197413683,0.005209843602776527,-0.10131364476941525
1761299311056363800,1.38036376953125,0.08202712582349776,0.11470803693681955,0.0076793755214661355
1761299311076487000,1.40048681640625,0.21883096697330473,0.11652414644807577,0.22402115602754055
1761299311096611000,1.420611083984375,0.16106968287825582,-0.021441139696538446,0.16371500975526868
1761299311116734000,1.44073388671875,0.19123159690797328,-0.17280512885749338,0.007033405768126249
1761299311136857000,1.460857177734375,0.2262789448916912,-0.1427738554701209,0.01769165096990764
1761299311156981000,1.48098095703125,0.21658991004824638,-0.025267127725481984,0.22612284101452676
1761299311177104000,1.501103759765625,0.10209083968698977,0.12497341036349534,0.50232404693868
1761299311197227000,1.52122705078125,-0.0007213000118732452,0.1947328830271959,0.5846416436087339
1761299311217351000,1.541350830078125,-0.1583750369668007,0.05810410618335008,0.44701384579017756
1761299311237474000,1.56147412109375,-0.17211071685254573,-0.033279461528360844,0.19481022257972508
1761299311257597000,1.581596923828125,-0.1645738916069269,-0.0125613754093647,0.17689743967242538
1761299311277720800,1.601720947265625,-0.2844891417980194,0.016627017413079738,0.2088635901125148
1761299311297844000,1.621843994140625,-0.2649386381536722,0.031711189298331735,0.09939524392746388
1761299311317966800,1.641966796875,-0.07677168951332569,0.0673582567408681,-0.06244962457437068
1761299311338091000,1.662091064453125,0.19510113181769848,0.05877747540026903,0.05591675220690667
1761299311358214000,1.6822138671875,0.44881753421127796,0.09774901109039782,0.04546469710171223
1761299311378337000,1.7023369140625,0.5957791967600584,0.009883388371765613,-0.05407273177541792
1761299311398461000,1.7224609375,0.4864502225130796,-0.06516922226399183,-0.008197846437618136
1761299311418583800,1.742583740234375,0.33305297395884986,0.03348725906014442,0.21414503764677792
1761299311438707700,1.762707763671875,0.2571966457247734,0.1383425950244069,0.23226412024851886
1761299311458830800,1.782830810546875,0.19093641335368156,0.04046908077150583,0.22331552850883452
1761299311478953700,1.80295361328125,-0.02314940491914749,-0.08839929120391607,0.3019935265675187
1761299311499078000,1.823077880859375,-0.33220074104368685,-0.18988456621319055,0.20946984890997408
1761299311519200800,1.84320068359375,-0.4689607430517673,-0.1877186203509569,0.10126790593154728
1761299311539324000,1.863323974609375,-0.5020844294965267,-0.22155600802302358,0.041247152471914884
1761299311559448000,1.883447998046875,-0.5210498267292976,-0.2946864184245467,-0.010530454103648662
1761299311579571000,1.903571044921875,-0.5508639502346515,-0.3385819665133953,-0.03003620529081672
1761299311599693800,1.92369384765625,-0.46404959013462066,-0.18210078046917913,0.012861746595427393
1761299311619818000,1.94381787109375,-0.3672556878119707,-0.03410188382714987,0.03369176865629852
1761299311639940900,1.96394091796875,-0.13860942926704883,-0.0236348503485322,0.01840750762168318
1761299311660064000,1.98406396484375,0.05240297193229198,-0.05972673894912004,-0.058470784071274096
1761299311680188000,2.00418798828125,0.34923137082159517,-0.030536592561006545,0.036344146328605706
1761299311700311000,2.02431103515625,0.5536556267797946,0.10347235717326402,0.21564999884963035
1761299311720434000,2.044433837890625,0.7071013906508684,0.1441287772104144,0.41178891274984925
1761299311740557800,2.064557861328125,0.5648994898498058,0.13668985938131809,0.4443447727113962
1761299311760681000,2.084680908203125,0.2424690321922302,0.09792816704958676,0.3788958932558074
1761299311780804900,2.104804931640625,-0.06817512608170509,0.11643266877233982,0.26851488920524713
1761299311800928000,2.124927978515625,-0.18530279138088226,0.07005553300082683,0.2034874134995043
1761299311821051000,2.14505078125,-0.27668694361448287,-0.07203793898969889,0.13607465009242295
1761299311841174800,2.1651748046875,-0.49852235310077664,-0.0879775586605072,0.09020560997352003
1761299311861298000,2.1852978515625,-0.6187152511894702,-0.041514205910265445,0.12178235923722386
1761299311881420800,2.2054208984375,-0.5226707059293985,0.015123919373750686,0.13455525850541888
1761299311901544700,2.225544677734375,-0.33057518566846844,0.022860651105642317,0.145881246900931
1761299311921667800,2.245667724609375,-0.05597966137528419,0.033110242441296574,0.0514039509575814
1761299311941790700,2.265790771484375,0.25496260306239127,-0.03287731046825647,0.021872918709926307
1761299311961915000,2.285914794921875,0.5179191274881363,-0.05693301657736301,0.08710859380625188
1761299311982037800,2.306037841796875,0.6209937175154686,-0.09332885656058788,0.11677059548981487
1761299312002161000,2.326160888671875,0.4462877234727144,-0.16520722107440233,0.0693808486096561
1761299312022285000,2.34628515625,0.10791384675204753,-0.141686352494359,0.11192958519943058
1761299312042408000,2.366407958984375,-0.1653811163365841,-0.04187923983037471,0.15753778242506086
1761299312062531000,2.386531005859375,-0.27070786920487877,-0.031898820824921126,0.23327808306403458
1761299312082655000,2.406655029296875,-0.3603653437763452,-0.0899880217000842,0.1762750699903816
1761299312102777900,2.42677783203125,-0.433412459808588,-0.15554390519410372,0.008190905240178108
1761299312122901000,2.44690087890625,-0.5238648841500282,-0.02346621578335762,0.09713745506331324
1761299312143025000,2.46702490234375,-0.7723112371861934,-0.14618804782778025,-0.13852861911579967
1761299312163148000,2.48714794921875,-0.6411860261946917,-0.06185469088852405,-0.25852270669676364
1761299312183272000,2.50727197265625,-0.22354045983850954,0.12550737110972404,-0.3440207965664565
1761299312203394800,2.527394775390625,0.20916297491788863,0.11879618303328751,-0.07104892795234918
1761299312223518200,2.547518310546875,0.5542062463998795,0.14461656072735785,0.14487659990303217
1761299312243642000,2.56764208984375,0.7380676068007945,0.19142302782684564,0.171995054583624
1761299312263765000,2.587764892578125,0.736572984328866,0.12805121037364006,0.07341039638668298
1761299312283888000,2.60788818359375,0.5433890843093395,0.10583177978098392,0.18054200671985746
1761299312304012000,2.628011962890625,0.371207055786252,0.2271121808454394,0.21111169783286748
1761299312324135200,2.64813525390625,0.2087976487368345,0.0962602338373661,0.0906150675572455
1761299312344258000,2.668258056640625,-0.06693477063179015,-0.09578998597711325,-0.04877893621623516
1761299312364382000,2.6883818359375,-0.3732862001478672,-0.13011135777384042,-0.0820199654303491
1761299312384505000,2.708505126953125,-0.464382767611742,-0.048960138002038,-0.13887261024788022
1761299312404628000,2.7286279296875,-0.4179699760049581,0.0011260814204812049,-0.036543724021315574
1761299312424751900,2.748751953125,-0.18300503583252428,-0.01977759039849043,0.09461962702348828
1761299312444875000,2.768875,0.02530745973587036,-0.0239528302565217,0.15445274895653127
1761299312464998000,2.788997802734375,0.17999533262252806,-0.001602174499630928,0.1682064759556204
1761299312485122000,2.8091220703125,0.1144897180110216,-0.044617140361666675,0.16782938627153635
1761299312505245000,2.829244873046875,0.12155658765733242,-0.008534604111313819,0.12913257586956023
1761299312525368800,2.849368896484375,0.09782909058928489,0.006600713439285755,0.1067194493357092
1761299312545492000,2.869491943359375,0.13716215306818486,-0.09355682009756565,0.05122347982414067
1761299312565614800,2.88961474609375,0.020340777239203453,-0.1559036784172058,0.037407647374272344
1761299312585739000,2.909739013671875,-0.1921931354165077,-0.10843173314630984,0.13312566409371793
1761299312605862000,2.92986181640625,-0.3173047852069139,-0.027060148622095583,0.1313763362083584
1761299312625985000,2.949985107421875,-0.2887012065351009,-0.06997223863154649,0.09551642973273992
1761299312646109200,2.970109130859375,-0.21359715797305107,-0.14641981075704097,0.005548208711668849
1761299312666232000,2.990232177734375,-0.2738847456753254,-0.06208440799117088,0.0112280809789896
1761299312686355200,3.010355224609375,-0.3078302698969841,0.034683483107388016,0.020404051733762026
1761299312706479000,3.03047900390625,-0.2578507257193327,0.08452946403324603,-0.034997882818803186
1761299312726602000,3.05060205078125,0.025568741020560264,0.09399696508049965,-0.020307459491491316
1761299312746725000,3.07072509765625,0.29709844800233837,0.1726020075008273,-0.015312866074591874
1761299312766849000,3.09084912109375,0.5125386034935713,0.1576905618339777,0.051776437531784174
1761299312786972200,3.11097216796875,0.6456038426369428,0.11609043120592832,0.07054061310403048
1761299312807095000,3.131094970703125,0.6263011762738228,0.0832499456167221,0.18817542420774697
1761299312827219000,3.151218994140625,0.40293782656788824,0.1040419737547636,0.1620650505911559
1761299312847342000,3.171342041015625,-0.05030103121697902,-0.011037819103896618,0.08082819836251437
1761299312867465000,3.19146484375,-0.4039905504912138,-0.04878565821796656,0.02691262991018593
1761299312887588900,3.2115888671875,-0.5564940650761128,-0.0745224492818117,0.07233283028304577
1761299312907712000,3.2317119140625,-0.5338403347194195,-0.13852028967887162,0.07627389605902135
1761299312927836000,3.2518359375,-0.5096878902375698,-0.2002636291474104,0.04262940061055123
1761299312947959000,3.271958984375,-0.4419856423646211,-0.15692717624604702,-0.005897898932173848
1761299312968082000,3.29208203125,-0.38819443094432354,-0.09019114305675029,-0.00210566704235971
1761299312988205800,3.312205810546875,-0.24295476988255976,-0.05502133773714304,-0.07400836227983236
1761299313008329000,3.332328857421875,0.04419686912298202,-0.032901568126678465,-0.07094744033925235
1761299313028451800,3.352451904296875,0.33192250862419603,0.06907265944331883,0.07624488916024565
1761299313048576000,3.372575927734375,0.5207289242118597,0.2110118176549673,0.1708339018497616
1761299313068699100,3.39269921875,0.6556184561729431,0.13953911133259533,0.0739512252651155
1761299313088822000,3.412822021484375,0.705311584624648,0.045861295203864574,-0.02231244263835251
1761299313108946200,3.4329462890625,0.4328425509661436,0.004102174621820449,0.14853183447495102
1761299313129069000,3.453069091796875,0.17609481805264948,0.1407411805987358,0.17585297212079165
1761299313149192200,3.473192138671875,-0.10181026917994022,0.09272387640476226,0.1391716662596911
1761299313169316000,3.493316162109375,-0.5250017792254686,-0.0800540721848607,0.12107333418503403
1761299313189439000,3.51343896484375,-0.6827607301205396,-0.15795271990150211,-0.02259717786386609
1761299313209563100,3.533563232421875,-0.6001917525053024,-0.17208002945333717,-0.17434125238358975
1761299313229686000,3.55368603515625,-0.5247071801930666,-0.2318456391081214,-0.21261150793656705
1761299313249809200,3.57380908203125,-0.49031449672579763,-0.23030162453651426,-0.22375198369733987
1761299313269933000,3.59393310546875,-0.48997781211733815,-0.1435293500125408,-0.2707861951380968
1761299313290056000,3.614055908203125,-0.3343050198465585,-0.03715776426643133,-0.25179683250784873
1761299313310179000,3.634178955078125,-0.059842766544222825,0.1117076860770583,-0.2593686560016125
1761299313330303000,3.654302978515625,0.23919804769754408,0.18228870425671337,-0.16172675854749977
1761299313350425900,3.67442578125,0.6487187597870826,0.2626440974757075,-0.07299019821323453
1761299313370549000,3.694549072265625,0.8635843302607535,0.244918178910017,-0.03760737119745463
1761299313390673200,3.714673095703125,0.8260282143265009,0.24356004229933023,0.05940485005099326
1761299313410796300,3.73479638671875,0.4843897828519344,0.2414814824596047,0.15484967585224657
1761299313430919200,3.754919189453125,-0.05259001893699169,0.28578970300257206,0.24196090000700204
1761299313451043000,3.77504296875,-0.23785247830748557,0.23921178396195172,0.13308394384384153
1761299313471166200,3.795166259765625,-0.09751227972507476,-0.01125993742197752,-0.008446670099534094
1761299313491289000,3.8152890625,-0.299963774305582,-0.26520956404954193,-0.04545888841543346
1761299313511413000,3.8354130859375,-0.47354807084202766,-0.244565712210536,-0.02036412158217281
1761299313531536100,3.8555361328125,-0.4066261596918106,-0.14651771817356346,-0.06551383445058018
1761299313551660000,3.875659912109375,-0.13622633352279662,-0.20383330432772634,-0.11212580189127475
1761299313571783200,3.895783203125,0.22844635205864905,-0.2698769713386893,-0.062293301501497624
1761299313591906000,3.915906005859375,0.41393092974722384,-0.23166794445365665,0.053679896532930434
1761299313612030000,3.936030029296875,0.4114490498036146,-0.14741291344761848,0.18644034404344856
1761299313632153000,3.956153076171875,0.34313363846838474,-0.15200725550055502,0.26505535986851897
1761299313652276000,3.97627587890625,0.10585282256901264,-0.15302315454483031,0.36959662491492923
1761299313672400000,3.99639990234375,-0.13453531169593333,-0.07336977211534977,0.39307420234251766
1761299313692523000,4.01652294921875,-0.4383662828236818,-0.05730418797731399,0.3339424701444805
1761299313712646000,4.03664599609375,-0.6148468853235244,-0.07875877167731524,0.3112981286706403
1761299313732770000,4.05677001953125,-0.640698534938693,-0.07134644959419965,0.24667590929754077
1761299313752893000,4.076892822265625,-0.5302087002187967,-0.062414370597898956,0.17104411053434013
1761299313773016000,4.09701611328125,-0.23865970303714273,-0.11936755318045615,0.005110328751057386
1761299313793140200,4.11714013671875,-0.01876315265893936,-0.14517127200067043,0.027137670837715268
1761299313813263000,4.13726318359375,0.10369710583984851,0.05030775321871042,0.16898476685173808
1761299313833387300,4.15738720703125,0.1995131030410528,0.23476941760033368,0.17618213100992142
1761299313853510100,4.17751025390625,0.42345045324265956,0.1730029895171523,0.03408412897475063
1761299313873633000,4.197633056640625,0.6278887377262116,0.03955693436264991,-0.006293145327456295
1761299313893757200,4.217757080078125,0.6130068104147911,0.0469578582689166,0.14408544952534139
1761299313913880000,4.237880126953125,0.3789852885723114,0.19748218173533677,0.34028285214714704
1761299313934003200,4.258003173828125,0.11213526383936405,0.18968758233636618,0.3004973331930116
1761299313954127000,4.278127197265625,-0.05655483091473579,0.008926818299293518,0.16692122191805392
1761299313974250000,4.29825,-0.26945406975150105,-0.13522154039442538,0.05526837130077183
1761299313994373000,4.318373046875,-0.5117050752788782,-0.1278258771851659,0.10653748036492615
1761299314014497000,4.3384970703125,-0.6122545307427645,-0.1176058042049408,0.10836623016204684
1761299314034620200,4.3586201171875,-0.5660258635312319,-0.15850889247953892,0.012519399431161581
1761299314054744000,4.378744140625,-0.39294367129802704,-0.17122312036305665,-0.038104689727723594
1761299314074867000,4.398866943359375,-0.1943371617078781,-0.0857949539244175,0.027828319982998072
1761299314094990800,4.418990966796875,0.12447335188686846,-0.029772914712131022,0.05236592785753309
1761299314115114000,4.439114013671875,0.5002963770359754,-0.027530104221403597,0.05016107475701719
1761299314135238100,4.459238037109375,0.6829366712093353,-0.037355332665145395,0.10484960034321993
1761299314155361300,4.479361328125,0.5426882425636053,0.040938744109869,0.19518888316638766
1761299314175484000,4.49948388671875,0.27709318632781504,0.08704787659496069,0.12793836111631243
1761299314195608000,4.519608154296875,-0.09508534483909606,0.03733808926939964,0.10109086886420846
1761299314215730400,4.53973046875,-0.41671500750780105,0.05362053102850914,0.17281393321845678
1761299314235853300,4.559853271484375,-0.47928456866741176,0.08239625139683485,0.062247014674358066
1761299314255977500,4.5799775390625,-0.4350456139683723,-0.01127425820827484,-0.0430288482569158
1761299314276100400,4.600100341796875,-0.45871232075989243,-0.06418897905498742,0.03824870130829513
1761299314296223500,4.620223388671875,-0.3012280951529741,0.021276889045536516,0.13654931839946657
1761299314316347400,4.640347412109375,-0.008563830205798149,0.08015987064689398,0.13354757930021732
1761299314336470300,4.66047021484375,0.27377076390683647,-0.007257131521403789,0.035237061869539316
1761299314356593400,4.680593505859375,0.3469429676234722,-0.01985416276603937,0.04786372106745839
1761299314376717300,4.70071728515625,0.2108113266468048,0.09541150805354118,0.052144540191814304
1761299314396840400,4.72084033203125,0.13015665822029113,0.0742550305172801,0.03751417648866773
1761299314416963300,4.74096337890625,0.19878011259138584,0.025599136158823966,0.11484525345042347
1761299314437087500,4.76108740234375,0.19710779546499252,0.10708061079829931,0.2891359081579372
1761299314457210600,4.781210693359375,0.1411339793086052,0.08208499349057674,0.2902005417147651
1761299314477334500,4.80133447265625,-0.008174538627266883,-0.029882512566447257,0.15077263567168264
1761299314497457400,4.82145751953125,-0.32556057237684727,-0.14413725277781486,0.06978913714960217
1761299314517580500,4.84158056640625,-0.5083206935375929,-0.1021402317866683,0.027598018358461558
1761299314537704400,4.861704345703125,-0.41632279331982136,-0.05899608658701181,0.006077237554453313
1761299314557827600,4.88182763671875,-0.23666356078386305,-0.13902677789628504,0.020469043261371552
1761299314577950500,4.901950439453125,-0.10018938997983932,-0.237307119384408,-0.028452187502384183
1761299314598074400,4.922074462890625,0.09274725728034973,-0.09168635005056858,-0.0792945955870673
1761299314618197500,4.942197509765625,0.11728957786262034,-0.03150017689615488,-0.018624438307993114
1761299314638320400,4.9623203125,0.0984516064018011,-0.10421879162639379,0.1353526924934238
1761299314658444300,4.9824443359375,0.06875204918682574,0.005736205564439297,0.05347695783935487
1761299314678567400,5.0025673828125,0.17655308321416377,0.0004158873245120048,-0.004716689790971577
1761299314698690300,5.022690185546875,0.2620411631464958,-0.03679769878238439,0.04789185118339956
1761299314718814500,5.042814453125,-0.02408697803020477,0.019339491242170333,0.2031977098379284
1761299314738937300,5.062937255859375,-0.35771395248472687,0.14728461089283226,0.1541357554292306
1761299314759060500,5.083060546875,-0.34801264268159865,0.16250702220499513,0.039063561355136334
1761299314779184400,5.103184326171875,-0.23367840749323368,-0.0019204466685652732,-0.05477054131384938
1761299314799307300,5.123307373046875,-0.1929080056875944,-0.07714110734760761,-0.07073810843750834
1761299314819431400,5.143431396484375,-0.0568202038526535,0.028666999296844003,-0.07436517636086791
1761299314839554600,5.163554443359375,0.112368488073349,0.07273907299637794,-0.07471190743930638
1761299314859677400,5.183677490234375,0.27368893084228035,-0.01263414838463068,-0.05603274326939135
1761299314879801600,5.203801513671875,0.23748130690753458,-0.051509237962961196,0.021248795462213456
1761299314899924500,5.223924560546875,0.14109247825443744,0.0231555423989892,-0.03595580459814519
1761299314920047600,5.244047607421875,0.17684943581223486,0.04689414538294077,-0.00024509733486920593
1761299314940171500,5.264171630859375,0.30207682093679905,0.05664835441708564,0.0845879527548328
1761299314960294400,5.28429443359375,0.252518132519722,0.022737316986918447,0.18255458865128457
1761299314980417500,5.30441748046875,0.03083645229041576,-0.0351046311289072,0.1250352235533297
1761299315000541400,5.32454150390625,-0.11002747790515423,-0.04344108231961727,0.1654102693658322
1761299315020664600,5.34466455078125,-0.20754501832723615,-0.05054711493253707,0.23010982829146087
1761299315040787500,5.364787353515625,-0.1314256552428007,-0.09642740709781646,0.18231442321985958
1761299315060911400,5.384911376953125,-0.17221476174890993,-0.12203297299742698,0.08458893913552165
1761299315081034500,5.405034423828125,-0.280994869941473,-0.12228373288810253,0.114118327415362
1761299315101157400,5.425157470703125,-0.2989320931702852,-0.025792612904310223,0.2213981871128082
1761299315121281300,5.44528125,-0.12803659732639788,0.0545633648365736,0.24233751476705073
1761299315141404400,5.465404296875,0.05301788896024227,0.03766775961518287,0.21086152246408163
1761299315161528300,5.4855283203125,0.1477870074570179,0.045241702000796795,0.12596746290214358
1761299315181651500,5.5056513671875,0.14111410556435583,0.06388941158652305,0.09062365272250025
1761299315201774300,5.5257744140625,0.1510854644805193,0.08852759375870227,0.10549315894376486
1761299315221899000,5.54589892578125,0.25276596980094906,0.11711743616610765,0.18248608999233693
1761299315242022100,5.566022216796875,0.4083773872733116,0.0922252792328596,0.19812661711871624
1761299315262145000,5.58614501953125,0.2541325819790363,0.009312602746486664,0.09263060863073914
1761299315282269000,5.60626904296875,-0.21563830841183662,-0.05192658659219741,-0.029997078856825826
1761299315302392000,5.62639208984375,-0.47666766416728495,-0.012234043151140211,-0.0667892977464944
1761299315322515000,5.646514892578125,-0.4381839119940996,0.04706541029661893,-0.10964695415496825
1761299315342638800,5.666638916015625,-0.21179916864037512,-0.09776800805181264,-0.156328991157189
1761299315362762000,5.686761962890625,-0.06616846243441105,-0.19368658884465692,-0.21548837854713201
1761299315382886100,5.70688623046875,0.02406710428595543,-0.12340776848196983,-0.12510394140798597
1761299315403009300,5.72700927734375,0.07876315559148787,0.02295417460799217,-0.02171078695077449
1761299315423132000,5.7471318359375,0.18943010044395922,-0.0053352235481143,0.03803129569794982
1761299315443256000,5.767256103515625,0.21907529712319374,-0.10074088638275862,0.03413461705297231
1761299315463379200,5.787379150390625,0.11930500933825969,-0.06317921749055386,0.001589388083294034
1761299315483502000,5.807502197265625,-0.12555121025145052,0.0072039400294423095,0.02539393244292587
1761299315503626000,5.8276259765625,-0.18263444895446299,0.0170905432716012,0.12179375741407275
1761299315523749000,5.8477490234375,0.004468669846653938,0.10164601852893829,0.06929528921805322
1761299315543872000,5.8678720703125,0.02709609671831131,-0.0052484220474958414,0.16595957381166518
1761299315563996200,5.88799609375,-0.14709551806151866,-0.01941021839082241,0.1897026703076437
1761299315584119000,5.908119140625,-0.2294458844900131,0.04406827430725097,0.05147497036717832
1761299315604242200,5.9282421875,-0.12830313930809498,0.010695581537485122,0.0862197186751291
1761299315624366000,5.948365966796875,0.06530804621279239,0.04201455664783716,0.09947620020918548
1761299315644489000,5.968489013671875,0.21120003370344637,0.05197539416998624,0.06931823170222341
1761299315664612000,5.988612060546875,0.16721183889508245,-0.0425616691365838,0.016433029210940003
1761299315684736000,6.008736083984375,0.11300503241121768,-0.03337619990110397,-0.06954122680313884
1761299315704859100,6.028859130859375,0.10902736095190048,0.044072950482368464,-0.05216196625065058
1761299315724983000,6.048983154296875,-0.024604279902577398,0.038243221415579315,0.06987922658585012
1761299315745106000,6.06910595703125,-0.12385025155246257,0.05942220304459333,0.10664331535957754
1761299315765229000,6.08922900390625,-0.062362640410661696,0.060442486003041265,-0.03964311480876058
1761299315785353000,6.10935302734375,0.0521405216038227,-0.021666472885012625,0.061646637628413735
1761299315805475800,6.129475830078125,0.05432429538369178,-0.019826690237224102,0.14787234765291213
1761299315825599000,6.149598876953125,-0.046133390143513676,-0.023903145895898342,0.13213460722975431
1761299315845723100,6.16972314453125,-0.03880173208117485,-0.05504997930973768,0.02812182303685695
1761299315865846300,6.18984619140625,-0.11493395464718341,-0.10668810434937477,0.06245897692460566
1761299315885969200,6.20996923828125,-0.07985504248142242,-0.057659869547188276,0.05295980209745466
1761299315906093000,6.230093017578125,-0.03828443020880222,-0.06560527559369803,-0.05991966770533472
1761299315926216200,6.25021630859375,-0.07648293569982051,-0.1427341079816222,-0.10564970121234654
1761299315946340000,6.270340087890625,-0.24095044432282448,-0.13254267657399177,0.07778554273098706
1761299315966463000,6.290462890625,-0.0027969372421503065,0.05187631770968437,0.00881908360850066
1761299315986586000,6.310586181640625,0.1704214485913515,0.03311345731168985,0.0697009474094957
1761299316006710000,6.3307099609375,0.13528934493362904,-0.04100450282245874,0.17318970772828907
1761299316026833200,6.350833251953125,-0.006688099461793899,-0.04319616764783859,0.15893570305686444
1761299316046956000,6.3709560546875,-0.20550094527900217,0.054615387284755706,0.20404128452260045
1761299316067080000,6.391079833984375,-0.12134674429893492,0.10482260273844003,0.17257395045012236
1761299316087203000,6.411203125,0.10575637645721435,0.0445201097279787,0.10080503766015171
1761299316107326000,6.431325927734375,0.020270634612441062,-0.0321659473285079,0.12793240629956126
1761299316127450000,6.4514501953125,-0.14894786792993545,0.030975860761106012,0.134643667441234
1761299316147573000,6.471572998046875,-0.06628770489990711,0.08437339668869971,0.10170593202263116
1761299316167696000,6.49169580078125,0.18729718006849289,0.004942717099189758,0.09237550135850905
1761299316187820000,6.511820068359375,0.30270342840254305,-0.03767038996368646,0.008475348204746842
1761299316207943000,6.53194287109375,0.028148820641636846,-0.06241729320734739,0.11970858517047017
1761299316228066600,6.552066650390625,-0.25344401519298554,0.03453735263496637,0.10754139671046287
1761299316248189400,6.572189453125,-0.17264964603483676,0.08844225356280803,0.062421165664866565
1761299316268312600,6.5923125,0.04119827182888985,-0.055929100231826304,-0.020648491481505334
1761299316288436500,6.6124365234375,0.0705406861692667,-0.18698796798884867,0.030000768651254475
1761299316308559400,6.632559326171875,-0.07507891412079334,-0.009186053757369517,0.08124152840375899
1761299316328682500,6.6526826171875,-0.14094868586957454,0.11469576197713613,0.13354166101608425
1761299316348806400,6.672806396484375,0.07892682172060013,-0.017740239351987836,0.015045264646969734
1761299316368929300,6.69292919921875,0.20190847374498844,-0.20979893473386763,-0.023081308118999003
1761299316389052400,6.713052490234375,0.03728840490877628,-0.1807043576747179,0.09856416339818387
1761299316409176300,6.73317626953125,-0.3603729425609112,0.0010223287850618362,0.2540871354021132
1761299316429299500,6.753299560546875,-0.5736784241110086,0.1588011534243822,0.14728216320741921
1761299316449422300,6.77342236328125,-0.5000684134989977,0.07939502375423908,-0.0494779513310641
1761299316469546200,6.793546142578125,-0.22573592405617235,-0.09644552727639674,-0.12326032283529638
1761299316489669400,6.81366943359375,0.1574894863039255,-0.13365765207856892,-0.07514120223466307
1761299316509793300,6.833793212890625,0.2580810273438692,-0.03920388314127922,-0.0024014351185411213
1761299316529916200,6.853916259765625,0.18972411495447158,0.018859306509792804,0.11174955245740711
1761299316550039300,6.874039306640625,0.1597381420135498,0.054907648229598996,0.02300042490251362
1761299316570163500,6.89416357421875,0.17873977960348128,-0.03901595935374498,0.0012478446366265415
1761299316590286600,6.91428662109375,0.1722287902742624,-0.019683190113306045,-0.004067030243203044
1761299316610409500,6.934409423828125,0.0012684125006198882,0.09425824636518955,0.15856029387321321
1761299316630533400,6.954533447265625,-0.1276437986165285,0.0920315102264285,0.15694010879285633
1761299316650656500,6.974656494140625,-0.1964104608505964,0.03790478324145079,0.0216966853601858
1761299316670779400,6.994779296875,-0.1691097814708948,-0.0014811784684658049,0.010886318336613476
1761299316690903600,7.014903564453125,0.10398352156579493,0.06937661082595586,0.23396964552477
1761299316711026400,7.0350263671875,0.34539223105013367,0.07743103020489216,0.24055698802582917
1761299316731150300,7.055150390625,0.28879239194989204,-0.021940613651275632,0.131250737067312
1761299316751273500,7.0752734375,-0.06311433556079864,-0.10452420431375503,0.02589000886417925
1761299316771396400,7.095396240234375,-0.4284416856586933,-0.10220949763059616,-0.044959597123786804
1761299316791520300,7.115520263671875,-0.5036760826021432,-0.08336363512426614,-0.09209412713386118
1761299316811643400,7.135643310546875,-0.5310726235717534,-0.02999532529115677,0.025747604718804357
1761299316831766300,7.155766357421875,-0.1599304497152567,-0.0805550074443221,-0.1574482409780845
1761299316851890400,7.175890380859375,0.22757833705246447,-0.17275719806253909,-0.07511939226165414
1761299316872013300,7.196013427734375,0.23287585893869397,-0.09664689506739377,0.10691226849406957
1761299316892136400,7.216136474609375,0.06826514245271682,0.005950725097954273,0.11150482044871896
1761299316912260400,7.23626025390625,-0.020566402688622473,0.07447305718213319,0.0751083594109863
1761299316932383200,7.25638330078125,0.0020166005194187163,0.03270312294512987,0.13818459145110099
1761299316952506400,7.27650634765625,0.0935632498383522,0.000015489830076694487,0.11974833265896886
1761299316972630500,7.296630615234375,-0.02873860322833061,0.037786125297844406,0.1293929073061794
1761299316992753400,7.31675341796875,-0.04133388090729713,0.053795303073525425,0.15695863083023576
1761299317012877600,7.336877685546875,-0.07911796037852764,0.07323883921205997,0.19957626793775707
1761299317033000400,7.35700048828125,-0.20725743355751036,0.05863923597335815,0.04367850780468434
1761299317053123600,7.37712353515625,-0.10063187305033207,-0.06564414629936217,-0.13626301227137447
1761299317073247500,7.39724755859375,0.16276479635834692,-0.05295037668198347,-0.19375158037226645
1761299317093370400,7.417370361328125,0.22748422902822493,-0.06000351006388664,-0.016215587067976593
1761299317113493500,7.437493408203125,0.17527824097275732,-0.0395662867128849,0.09454594073276966
1761299317133617400,7.457617431640625,0.03741583068072796,-0.07630319521874189,0.048249395916797215
1761299317153740300,7.477740234375,0.041054479444026945,-0.02876782932281494,0.017442060123011468
1761299317173863400,7.497863525390625,0.04090893349349498,-0.052990124170482156,0.06322908451426774
1761299317193987300,7.5179873046875,-0.01410685128569603,-0.08032733616828917,0.0686936335304752
1761299317214110500,7.5381103515625,-0.28594986200034617,-0.010608195514976977,0.19627565548978745
1761299317234234400,7.558234375,-0.40625265020430085,0.10668956565409898,0.23226327999830246
1761299317254357200,7.578357177734375,0.16894728438556195,0.14129735317677258,0.1244520168378949
1761299317274480400,7.59848046875,0.6003495734155178,-0.12120382869690656,0.04867880031000822
1761299317294604300,7.618604248046875,0.6075906305849552,-0.05024257902801037,0.1687857736809179
1761299317314727400,7.6387275390625,0.09064064038991927,0.049369887846708295,0.2527222037244588
1761299317334850300,7.658850341796875,-0.3601636837244034,0.04685059850215911,0.28819979635160414
1761299317354974500,7.678974365234375,-0.3194359520167112,0.09539368013590574,0.1925894412577152
