time,seconds_elapsed,z,y,x
1761396014246289000,0.248288818359375,-0.14159536361694336,0.20541048049926758,0.0794687271118164
1761396014265666800,0.267666748046875,-0.1678619384765625,0.17832326889038086,0.15678882598876953
1761396014285044500,0.28704443359375,-0.038959503173828125,0.1304163932800293,0.17580938339233398
1761396014304422400,0.30642236328125,0.06925773620605469,0.10239839553833008,0.20815038681030273
1761396014323800300,0.32580029296875,0.0320134162902832,0.0648488998413086,0.2912888526916504
1761396014343178200,0.34517822265625,-0.15851736068725586,0.15682744979858398,0.2731447219848633
1761396014362556000,0.364555908203125,-0.3864173889160156,0.2366166114807129,0.24221229553222656
1761396014381933800,0.383933837890625,-0.4453763961791992,0.2688431739807129,0.14070653915405273
1761396014401311700,0.403311767578125,-0.24599123001098633,0.22252607345581055,0.1520228385925293
1761396014420689700,0.422689697265625,-0.02469158172607422,0.19176959991455078,0.26531410217285156
1761396014440067300,0.4420673828125,0.11631631851196289,0.18689680099487305,0.25417232513427734
1761396014459445200,0.4614453125,0.2278447151184082,0.13144540786743164,0.14279794692993164
1761396014478823200,0.4808232421875,0.08536767959594727,0.13605546951293945,0.0899806022644043
1761396014498200800,0.500200927734375,-0.024229049682617188,0.16219377517700195,0.07868623733520508
1761396014517578800,0.519578857421875,-0.11420011520385742,0.16566848754882812,0.11611175537109375
1761396014536956700,0.538956787109375,-0.05825662612915039,0.1179800033569336,0.09854316711425781
1761396014556334600,0.55833447265625,-0.10254621505737305,0.12003755569458008,0.15446901321411133
1761396014575712300,0.577712158203125,-0.11992931365966797,0.13445234298706055,0.21820068359375
1761396014595090200,0.597090087890625,-0.13218021392822266,0.1560831069946289,0.1210641860961914
1761396014614468000,0.616468017578125,-0.08660125732421875,0.17203855514526367,0.04957437515258789
1761396014633846000,0.635845947265625,-0.014866828918457031,0.15911865234375,0.16063928604125977
1761396014653224000,0.655223876953125,0.006482124328613281,0.17384576797485352,0.2351069450378418
1761396014672601600,0.6746015625,-0.05264472961425781,0.15667486190795898,0.2703399658203125
1761396014691979500,0.6939794921875,-0.20827484130859375,0.17490577697753906,0.16696596145629883
1761396014711357400,0.713357421875,-0.18416118621826172,0.1493854522705078,0.16769695281982422
1761396014730735000,0.732735107421875,-0.15806913375854492,0.1697373390197754,0.19865798950195312
1761396014750113000,0.752113037109375,-0.20823240280151367,0.13751554489135742,0.15109825134277344
1761396014769491000,0.771490966796875,-0.13740777969360352,0.12824583053588867,0.06913280487060547
1761396014788868900,0.790868896484375,-0.12083721160888672,0.11833333969116211,0.16675424575805664
1761396014808246500,0.81024658203125,-0.11400175094604492,0.16097211837768555,0.21947336196899414
1761396014827624400,0.82962451171875,-0.0885462760925293,0.16189241409301758,0.18877935409545898
1761396014847002400,0.84900244140625,-0.08659934997558594,0.20320796966552734,0.19832324981689453
1761396014866380300,0.86838037109375,-0.01157999038696289,0.19733476638793945,0.24292612075805664
1761396014885758000,0.887758056640625,0.06176424026489258,0.17166423797607422,0.25808286666870117
1761396014905135900,0.907135986328125,0.031681060791015625,0.22481107711791992,0.18871116638183594
1761396014924513800,0.926513671875,-0.003635883331298828,0.21650409698486328,0.2164907455444336
1761396014943891700,0.9458916015625,-0.0050334930419921875,0.19288301467895508,0.3690004348754883
1761396014963269400,0.965269287109375,0.004790782928466797,0.23324108123779297,0.28002405166625977
1761396014982647300,0.984647216796875,-0.02450275421142578,0.17057085037231445,0.12899160385131836
1761396015002025200,1.004025146484375,-0.16971778869628906,0.2114567756652832,0.04497480392456055
1761396015021403100,1.023403076171875,-0.2663688659667969,0.1717982292175293,0.11242246627807617
1761396015040780800,1.04278076171875,-0.037644386291503906,0.11503744125366211,0.10161542892456055
1761396015060158700,1.06215869140625,0.1440744400024414,0.07165002822875977,0.14586639404296875
1761396015079536600,1.08153662109375,0.08864927291870117,0.1260390281677246,0.2053217887878418
1761396015098914600,1.10091455078125,-0.04997396469116211,0.1686081886291504,0.17254638671875
1761396015118292200,1.120292236328125,-0.13014888763427734,0.1825251579284668,0.13569021224975586
1761396015137670100,1.139670166015625,-0.19951200485229492,0.1902918815612793,0.10361957550048828
1761396015157048000,1.159048095703125,-0.1283431053161621,0.16473817825317383,0.08827495574951172
1761396015176425700,1.17842578125,0.008563041687011719,0.10088443756103516,0.10336780548095703
1761396015195803600,1.1978037109375,0.05337667465209961,0.1238088607788086,0.06506586074829102
1761396015215181600,1.217181640625,0.011312007904052734,0.15543317794799805,0.1404123306274414
1761396015234559500,1.2365595703125,-0.13280916213989258,0.17602014541625977,0.25110626220703125
1761396015253937200,1.255937255859375,-0.1331772804260254,0.18807649612426758,0.14449214935302734
1761396015273315000,1.275315185546875,-0.08304023742675781,0.12659025192260742,0.13405275344848633
1761396015292693000,1.29469287109375,-0.10519075393676758,0.15125560760498047,0.1083674430847168
1761396015312071000,1.31407080078125,-0.2334308624267578,0.14821243286132812,0.09295320510864258
1761396015331448600,1.333448486328125,-0.14615154266357422,0.14141368865966797,0.07774829864501953
1761396015350826500,1.352826416015625,0.005019187927246094,0.10142087936401367,0.1096658706665039
1761396015370204400,1.372204345703125,-0.03564167022705078,0.12769746780395508,0.105316162109375
1761396015389582300,1.391582275390625,-0.08325576782226562,0.166168212890625,0.0823521614074707
1761396015408960000,1.4109599609375,-0.04844331741333008,0.15396928787231445,0.09877538681030273
1761396015428338000,1.430337890625,-0.1946101188659668,0.16003704071044922,0.08551168441772461
1761396015447715800,1.4497158203125,-0.11557435989379883,0.15639781951904297,0.08318901062011719
1761396015467093800,1.46909375,0.1287989616394043,0.15293598175048828,0.11445808410644531
1761396015486471400,1.488471435546875,0.10950946807861328,0.1321859359741211,0.1429576873779297
1761396015505849300,1.507849365234375,-0.10713624954223633,0.15438318252563477,0.20832300186157227
1761396015525227300,1.527227294921875,-0.17998504638671875,0.17248249053955078,0.1827530860900879
1761396015544605200,1.546605224609375,-0.055203914642333984,0.15766191482543945,0.20443391799926758
1761396015563982800,1.56598291015625,0.03511190414428711,0.16424083709716797,0.19194602966308594
1761396015583360800,1.58536083984375,-0.09490585327148438,0.17193031311035156,0.22659063339233398
1761396015602738700,1.60473876953125,-0.1973104476928711,0.1440906524658203,0.19385910034179688
1761396015622116400,1.624116455078125,-0.18978643417358398,0.15846776962280273,0.1346120834350586
1761396015641494300,1.643494384765625,-0.08372783660888672,0.13592529296875,0.17832565307617188
1761396015660872200,1.6628720703125,-0.013984203338623047,0.12217521667480469,0.2006382942199707
1761396015680250000,1.68225,-0.01614665985107422,0.14713382720947266,0.12504243850708008
1761396015699627800,1.701627685546875,-0.12247276306152344,0.20343637466430664,0.13160943984985352
1761396015719005700,1.721005615234375,-0.20191669464111328,0.23937749862670898,0.19166326522827148
1761396015738383600,1.740383544921875,-0.029055118560791016,0.18154048919677734,0.1492915153503418
1761396015757761500,1.759761474609375,0.10128068923950195,0.1474761962890625,0.12222862243652344
1761396015777139200,1.77913916015625,-0.009186744689941406,0.14403772354125977,0.14583635330200195
1761396015796517000,1.79851708984375,-0.09869241714477539,0.12657928466796875,0.12447261810302734
1761396015815895000,1.81789501953125,-0.10765600204467773,0.11444473266601562,0.06530427932739258
1761396015835273000,1.83727294921875,-0.09515714645385742,0.16402244567871094,0.11197376251220703
1761396015854650600,1.856650634765625,-0.06952714920043945,0.1513690948486328,0.19809246063232422
1761396015874028500,1.876028564453125,-0.034151554107666016,0.1361246109008789,0.14556360244750977
1761396015893406500,1.895406494140625,-0.030887603759765625,0.1751079559326172,0.13890409469604492
1761396015912784400,1.914784423828125,-0.055623531341552734,0.16395998001098633,0.19529962539672852
1761396015932162000,1.934162109375,-0.06578826904296875,0.12599802017211914,0.15776300430297852
1761396015951540000,1.9535400390625,-0.050746917724609375,0.10744810104370117,0.056502342224121094
1761396015970918000,1.97291796875,-0.031008243560791016,0.11151409149169922,0.047322750091552734
1761396015990295800,1.9922958984375,-0.10101318359375,0.11434602737426758,0.12593936920166016
1761396016009673500,2.011673583984375,-0.16028261184692383,0.1620025634765625,0.12963008880615234
1761396016029051400,2.031051513671875,-0.06088542938232422,0.16709136962890625,0.1366138458251953
1761396016048429300,2.05042919921875,-0.04903459548950195,0.1936202049255371,0.20972967147827148
1761396016067807000,2.069806884765625,-0.13621234893798828,0.18965768814086914,0.18148183822631836
1761396016087185000,2.089184814453125,-0.14322566986083984,0.13703536987304688,0.13739252090454102
1761396016106562800,2.108562744140625,-0.016355037689208984,0.13011932373046875,0.08502483367919922
1761396016125940700,2.127940673828125,0.11703014373779297,0.13982105255126953,0.1583857536315918
1761396016145318400,2.147318359375,0.12111425399780273,0.15812158584594727,0.27587461471557617
1761396016164696300,2.1666962890625,-0.08153915405273438,0.23187541961669922,0.24533367156982422
1761396016184074200,2.18607421875,-0.2839975357055664,0.23515033721923828,0.23180866241455078
1761396016203452200,2.2054521484375,-0.2637629508972168,0.18793201446533203,0.14032459259033203
1761396016222830000,2.224830078125,-0.06031608581542969,0.1293177604675293,0.07779884338378906
1761396016242207700,2.244207763671875,0.13177871704101562,0.13093233108520508,0.10454416275024414
1761396016261585700,2.263585693359375,0.13653945922851562,0.1311478614807129,0.19108343124389648
1761396016280963600,2.282963623046875,-0.05670356750488281,0.16571426391601562,0.1751093864440918
1761396016300341200,2.30234130859375,-0.18472719192504883,0.15905475616455078,0.1586475372314453
1761396016319719200,2.32171923828125,-0.1996464729309082,0.14763307571411133,0.10002756118774414
1761396016339097000,2.34109716796875,-0.0680532455444336,0.07477521896362305,0.08388185501098633
1761396016358475000,2.36047509765625,-0.010289669036865234,0.057294368743896484,0.11974287033081055
1761396016377852700,2.379852783203125,-0.11298799514770508,0.13151931762695312,0.0625753402709961
1761396016397230600,2.399230712890625,-0.0962367057800293,0.13676834106445312,0.12494039535522461
1761396016416608500,2.4186083984375,-0.08458948135375977,0.15243911743164062,0.18617677688598633
1761396016435986400,2.437986328125,-0.02363872528076172,0.13688039779663086,0.21087646484375
1761396016455364000,2.457364013671875,0.05180978775024414,0.15532779693603516,0.147369384765625
1761396016474742000,2.476741943359375,-0.018949508666992188,0.1513667106628418,0.06478261947631836
1761396016494120000,2.496119873046875,-0.07557821273803711,0.14598560333251953,0.10072851181030273
1761396016513497600,2.51549755859375,-0.05162239074707031,0.18674612045288086,0.2089557647705078
1761396016532875500,2.53487548828125,-0.09209012985229492,0.19152545928955078,0.25174427032470703
1761396016552253400,2.55425341796875,-0.14080381393432617,0.21085214614868164,0.18993568420410156
1761396016571631400,2.57363134765625,-0.13576030731201172,0.1429300308227539,0.18809843063354492
1761396016591009300,2.59300927734375,-0.2024235725402832,0.1228327751159668,0.14834165573120117
1761396016610387000,2.612386962890625,-0.12862300872802734,0.12856197357177734,0.12137174606323242
1761396016629764900,2.631764892578125,-0.03458404541015625,0.13389873504638672,0.10453462600708008
1761396016649142800,2.651142822265625,-0.04417896270751953,0.15479755401611328,0.1191563606262207
1761396016668520400,2.6705205078125,-0.0770421028137207,0.13367414474487305,0.13500547409057617
1761396016687898400,2.6898984375,-0.06327247619628906,0.1398787498474121,0.11727619171142578
1761396016707276300,2.7092763671875,-0.013026237487792969,0.12595415115356445,0.17043209075927734
1761396016726654200,2.728654296875,0.08250284194946289,0.13560867309570312,0.14864730834960938
1761396016746031900,2.748031982421875,0.15522193908691406,0.15061521530151367,0.12259149551391602
1761396016765409800,2.767409912109375,-0.05287981033325195,0.16735029220581055,0.1200876235961914
1761396016784787700,2.78678759765625,-0.24294662475585938,0.18093490600585938,0.12097930908203125
1761396016804165600,2.80616552734375,-0.10990047454833984,0.11301136016845703,0.19257354736328125
1761396016823543300,2.825543212890625,0.021326065063476562,0.1438150405883789,0.187591552734375
1761396016842921200,2.844921142578125,-0.0452723503112793,0.1773843765258789,0.18390130996704102
1761396016862299100,2.864299072265625,-0.1508030891418457,0.16268205642700195,0.1617412567138672
1761396016881677000,2.883677001953125,-0.12809085845947266,0.13026666641235352,0.11427068710327148
1761396016901054700,2.9030546875,-0.04046297073364258,0.12286758422851562,0.1370992660522461
1761396016920432600,2.9224326171875,0.0704498291015625,0.14622974395751953,0.1464700698852539
1761396016939810600,2.941810546875,0.03552675247192383,0.1685957908630371,0.12611722946166992
1761396016959188200,2.961188232421875,-0.07214117050170898,0.19145441055297852,0.17705440521240234
1761396016978566100,2.980566162109375,-0.08869647979736328,0.1510920524597168,0.19205427169799805
1761396016997944000,2.999944091796875,-0.1842350959777832,0.12739944458007812,0.12170696258544922
1761396017017322000,3.019322021484375,-0.08534479141235352,0.09847116470336914,0.0784449577331543
1761396017036699600,3.03869970703125,-0.01207876205444336,0.08786296844482422,0.08446121215820312
1761396017056077600,3.05807763671875,-0.09563302993774414,0.10343360900878906,0.11779117584228516
1761396017075455500,3.07745556640625,-0.20026254653930664,0.14733552932739258,0.17025184631347656
1761396017094833400,3.09683349609375,-0.09766769409179688,0.16933202743530273,0.12162256240844727
1761396017114211000,3.116211181640625,0.0168609619140625,0.1287531852722168,0.127349853515625
1761396017133589000,3.135589111328125,-0.07306814193725586,0.19243240356445312,0.1396331787109375
1761396017152967000,3.154966796875,-0.027173519134521484,0.14813566207885742,0.23583507537841797
1761396017172344800,3.1743447265625,0.04971456527709961,0.16816425323486328,0.14149999618530273
1761396017191722500,3.193722412109375,0.019579410552978516,0.17055606842041016,0.10750102996826172
1761396017211100400,3.213100341796875,-0.03600025177001953,0.10915899276733398,0.20489788055419922
1761396017230478300,3.232478271484375,-0.15626001358032227,0.1282052993774414,0.16235017776489258
1761396017249856300,3.251856201171875,-0.10355663299560547,0.13950443267822266,0.15361261367797852
1761396017269234000,3.27123388671875,0.03287458419799805,0.14532804489135742,0.22023868560791016
1761396017288611800,3.29061181640625,-0.0851144790649414,0.1735529899597168,0.16585731506347656
1761396017307989800,3.30998974609375,-0.1892852783203125,0.16309356689453125,0.12695646286010742
1761396017327367700,3.32936767578125,-0.07760429382324219,0.14142084121704102,0.15131282806396484
1761396017346745300,3.348745361328125,0.0478520393371582,0.10703039169311523,0.11564970016479492
1761396017366123300,3.368123291015625,0.061278343200683594,0.12639141082763672,0.05296468734741211
1761396017385501200,3.387501220703125,0.023908615112304688,0.13089799880981445,0.09737730026245117
1761396017404878800,3.40687890625,-0.04428863525390625,0.13906192779541016,0.11117839813232422
1761396017424256800,3.4262568359375,-0.081390380859375,0.12845706939697266,0.13778257369995117
1761396017443634700,3.445634765625,-0.1341862678527832,0.11538124084472656,0.16222810745239258
1761396017463012600,3.4650126953125,-0.1722278594970703,0.1523146629333496,0.15477752685546875
1761396017482390300,3.484390380859375,-0.11090707778930664,0.11650514602661133,0.15991449356079102
1761396017501768200,3.503768310546875,-0.0929269790649414,0.13913440704345703,0.12291193008422852
1761396017521146000,3.52314599609375,-0.10637140274047852,0.1212763786315918,0.17442989349365234
1761396017540524000,3.54252392578125,-0.05389404296875,0.11117410659790039,0.16657209396362305
1761396017559901700,3.561901611328125,-0.01387166976928711,0.17606163024902344,0.17101430892944336
1761396017579279600,3.581279541015625,-0.07297945022583008,0.2007155418395996,0.19448614120483398
1761396017598657500,3.600657470703125,-0.10723400115966797,0.2088632583618164,0.05595111846923828
1761396017618035200,3.62003515625,0.054935455322265625,0.11901617050170898,0.06504678726196289
1761396017637413000,3.6394130859375,0.09019231796264648,0.1059579849243164,0.18130731582641602
1761396017656791000,3.658791015625,-0.13268804550170898,0.15758132934570312,0.23345232009887695
1761396017676169000,3.6781689453125,-0.17236089706420898,0.1730818748474121,0.1409916877746582
1761396017695546600,3.697546630859375,-0.12172746658325195,0.14484357833862305,0.13650798797607422
1761396017714924500,3.716924560546875,0.018462181091308594,0.11339378356933594,0.13544368743896484
1761396017734302500,3.736302490234375,-0.03484535217285156,0.0850667953491211,0.1606616973876953
1761396017753680400,3.755680419921875,-0.10090065002441406,0.09919261932373047,0.12239885330200195
1761396017773058000,3.77505810546875,-0.06122636795043945,0.10591554641723633,0.05591917037963867
1761396017792436000,3.79443603515625,0.007175445556640625,0.14110183715820312,0.10154008865356445
1761396017811814000,3.81381396484375,0.024812698364257812,0.12865877151489258,0.22707700729370117
1761396017831191800,3.83319189453125,0.08774566650390625,0.10328197479248047,0.15940189361572266
1761396017850569500,3.852569580078125,0.007690906524658203,0.11553239822387695,0.05692481994628906
1761396017869947400,3.871947509765625,-0.1762065887451172,0.15048933029174805,0.10667133331298828
1761396017889325300,3.8913251953125,-0.21960830688476562,0.1524806022644043,0.1657423973083496
1761396017908703200,3.910703125,-0.13754844665527344,0.15570878982543945,0.15456247329711914
1761396017928081000,3.930080810546875,-0.11852693557739258,0.15251636505126953,0.1702566146850586
1761396017947458800,3.949458740234375,-0.04971027374267578,0.17127275466918945,0.15669870376586914
1761396017966836700,3.968836669921875,-0.035834312438964844,0.1450204849243164,0.21420574188232422
1761396017986214700,3.988214599609375,-0.0440974235534668,0.15603876113891602,0.1798415184020996
1761396018005592300,4.00759228515625,-0.05306529998779297,0.15537500381469727,0.12198448181152344
1761396018024970200,4.02697021484375,0.008508682250976562,0.15019989013671875,0.07307052612304688
1761396018044348200,4.04634814453125,0.053650856018066406,0.11825895309448242,0.13263511657714844
1761396018063725800,4.065725830078125,0.0031342506408691406,0.09581518173217773,0.15616607666015625
1761396018083103700,4.085103759765625,-0.05779886245727539,0.11873674392700195,0.07587337493896484
1761396018102481700,4.104481689453125,-0.00089263916015625,0.0922555923461914,0.10020160675048828
1761396018121859300,4.123859375,-0.054431915283203125,0.13469409942626953,0.17592334747314453
1761396018141237200,4.1432373046875,-0.1083230972290039,0.13188838958740234,0.13937664031982422
1761396018160615200,4.162615234375,-0.167205810546875,0.12945985794067383,0.0659031867980957
1761396018179993000,4.1819931640625,-0.22380638122558594,0.09959554672241211,0.09233856201171875
1761396018199371000,4.20137109375,-0.095001220703125,0.10841703414916992,0.056838035583496094
1761396018218748700,4.220748779296875,0.01329183578491211,0.11390018463134766,0.1188054084777832
1761396018238126600,4.240126708984375,0.06429910659790039,0.13969945907592773,0.1887798309326172
1761396018257504500,4.25950439453125,0.07475090026855469,0.16925954818725586,0.14163780212402344
1761396018276882400,4.27888232421875,0.018407344818115234,0.12865352630615234,0.13360261917114258
1761396018296260000,4.298260009765625,-0.12756109237670898,0.1407160758972168,0.1361675262451172
1761396018315638000,4.317637939453125,-0.14087533950805664,0.13612699508666992,0.15243148803710938
1761396018335016000,4.337015869140625,-0.03054666519165039,0.10387134552001953,0.1512465476989746
1761396018354393600,4.3563935546875,-0.013304710388183594,0.09708690643310547,0.1366443634033203
1761396018373771500,4.375771484375,-0.19163274765014648,0.15224790573120117,0.1327071189880371
1761396018393149400,4.3951494140625,-0.19952058792114258,0.13308334350585938,0.21033668518066406
1761396018412527400,4.41452734375,-0.03719186782836914,0.14105653762817383,0.12966346740722656
1761396018431905000,4.433905029296875,0.029603004455566406,0.10405158996582031,0.08557796478271484
1761396018451283000,4.453282958984375,-0.044976234436035156,0.12495803833007812,0.07695436477661133
1761396018470660900,4.472660888671875,-0.02563619613647461,0.1130056381225586,0.21618270874023438
1761396018490038800,4.492038818359375,-0.030337810516357422,0.1681985855102539,0.1555938720703125
1761396018509416400,4.51141650390625,-0.1164999008178711,0.1681661605834961,0.10408496856689453
1761396018528794400,4.53079443359375,-0.08926868438720703,0.10991525650024414,0.13069820404052734
1761396018548172300,4.55017236328125,-0.024046897888183594,0.09633636474609375,0.1265120506286621
1761396018567550200,4.56955029296875,-0.014460563659667969,0.13376331329345703,0.027758121490478516
1761396018586927900,4.588927978515625,-0.027794361114501953,0.13958978652954102,0.1283864974975586
1761396018606305800,4.608305908203125,-0.1455988883972168,0.15683937072753906,0.19585847854614258
1761396018625683700,4.62768359375,-0.13248682022094727,0.1450810432434082,0.0865316390991211
1761396018645061600,4.6470615234375,-0.012161731719970703,0.08533954620361328,0.06410884857177734
1761396018664439300,4.666439208984375,0.07960033416748047,0.08675193786621094,0.19658756256103516
1761396018683817200,4.685817138671875,0.04663801193237305,0.14142942428588867,0.1881856918334961
1761396018703195100,4.705195068359375,-0.09872007369995117,0.16202688217163086,0.1099238395690918
1761396018722573000,4.724572998046875,-0.10766077041625977,0.11852359771728516,0.038863182067871094
1761396018741950700,4.74395068359375,-0.024930477142333984,0.08077812194824219,0.0762791633605957
1761396018761328600,4.76332861328125,-0.1603231430053711,0.12033653259277344,0.08573389053344727
1761396018780706600,4.78270654296875,-0.18331241607666016,0.12633180618286133,0.13894891738891602
1761396018800084200,4.802084228515625,-0.029920578002929688,0.140716552734375,0.16006708145141602
1761396018819462100,4.821462158203125,-0.014679908752441406,0.15094566345214844,0.1545848846435547
1761396018838840000,4.840840087890625,0.02000570297241211,0.11561393737792969,0.13314104080200195
1761396018858218000,4.860218017578125,-0.007911205291748047,0.10724782943725586,0.1495065689086914
1761396018877595600,4.879595703125,0.0024247169494628906,0.11395072937011719,0.10508394241333008
1761396018896973600,4.8989736328125,-0.062221527099609375,0.12859725952148438,0.10611724853515625
1761396018916351500,4.9183515625,-0.2039966583251953,0.16928911209106445,0.0822591781616211
1761396018935729400,4.9377294921875,-0.07283353805541992,0.13627004623413086,0.16890430450439453
1761396018955107000,4.957107177734375,-0.03135871887207031,0.16870450973510742,0.1395740509033203
1761396018974485000,4.976485107421875,-0.010480880737304688,0.13193130493164062,0.1532430648803711
1761396018993863000,4.99586279296875,-0.0045986175537109375,0.12988042831420898,0.09506893157958984
1761396019013240600,5.015240478515625,0.05961799621582031,0.0891275405883789,0.04425048828125
1761396019032618500,5.034618408203125,0.0027990341186523438,0.12384843826293945,0.16444110870361328
1761396019051996400,5.053996337890625,-0.13341093063354492,0.1434621810913086,0.18636178970336914
1761396019071374300,5.073374267578125,-0.11948251724243164,0.12620973587036133,0.15403127670288086
1761396019090752000,5.092751953125,-0.025891780853271484,0.07188224792480469,0.10640716552734375
1761396019110130000,5.1121298828125,-0.11262178421020508,0.06778717041015625,0.049565792083740234
1761396019129507800,5.1315078125,-0.0972299575805664,0.09284067153930664,0.09485769271850586
1761396019148885800,5.1508857421875,0.02884387969970703,0.14368820190429688,0.18545818328857422
1761396019168263400,5.170263427734375,0.07776880264282227,0.113983154296875,0.20348691940307617
1761396019187641300,5.189641357421875,-0.005412578582763672,0.114501953125,0.059284210205078125
1761396019207019300,5.209019287109375,-0.1317882537841797,0.10385465621948242,0.09941577911376953
1761396019226397000,5.22839697265625,-0.21591949462890625,0.1350560188293457,0.11051464080810547
1761396019245774800,5.24777490234375,-0.08716440200805664,0.11651420593261719,0.15863275527954102
1761396019265152800,5.26715283203125,0.026192188262939453,0.12937545776367188,0.1247396469116211
1761396019284530700,5.28653076171875,0.045506954193115234,0.13713312149047852,0.201629638671875
1761396019303908400,5.305908447265625,0.03186368942260742,0.1576213836669922,0.1444239616394043
1761396019323286300,5.325286376953125,-0.07611942291259766,0.13654708862304688,0.11941957473754883
1761396019342664200,5.344664306640625,-0.14783525466918945,0.13263607025146484,0.09337711334228516
1761396019362042000,5.3640419921875,-0.07568645477294922,0.12741422653198242,0.13988256454467773
1761396019381419800,5.383419677734375,0.11035680770874023,0.10172748565673828,0.11899805068969727
1761396019400797700,5.402797607421875,0.008513450622558594,0.12532949447631836,0.15969181060791016
1761396019420175600,5.422175537109375,-0.08153915405273438,0.13402938842773438,0.13317060470581055
1761396019439553300,5.44155322265625,-0.08171463012695312,0.12500238418579102,0.11298799514770508
1761396019458931200,5.46093115234375,-0.029716014862060547,0.11066627502441406,0.1496443748474121
1761396019478309000,5.48030908203125,-0.10701227188110352,0.11534690856933594,0.19848060607910156
1761396019497687000,5.49968701171875,-0.053078651428222656,0.09582996368408203,0.13664674758911133
1761396019517064700,5.519064697265625,-0.04938936233520508,0.1110687255859375,0.09913063049316406
1761396019536442600,5.538442626953125,-0.13638877868652344,0.11869478225708008,0.1304316520690918
1761396019555820500,5.557820556640625,-0.10201406478881836,0.1118326187133789,0.11555624008178711
1761396019575198500,5.577198486328125,0.016170024871826172,0.08761453628540039,0.06964683532714844
1761396019594576100,5.596576171875,0.03752470016479492,0.11928033828735352,0.09284543991088867
1761396019613954000,5.6159541015625,-0.0019469261169433594,0.12324810028076172,0.11523056030273438
1761396019633332000,5.63533203125,-0.009835243225097656,0.1136631965637207,0.09134721755981445
1761396019652709600,5.654709716796875,0.03264808654785156,0.11721181869506836,0.11038398742675781
1761396019672087600,5.674087646484375,0.009968757629394531,0.1040349006652832,0.14039897918701172
1761396019691465500,5.693465576171875,-0.042252540588378906,0.10558271408081055,0.10950756072998047
1761396019710843400,5.712843505859375,-0.02024221420288086,0.11375999450683594,0.16092443466186523
1761396019730221000,5.732220947265625,-0.08320951461791992,0.13454294204711914,0.20240449905395508
1761396019749599000,5.751598876953125,-0.2584648132324219,0.15720844268798828,0.15114355087280273
1761396019768977000,5.770976806640625,-0.2168111801147461,0.12011098861694336,0.1137094497680664
1761396019788354800,5.790354736328125,0.013358116149902344,0.08713817596435547,0.13968563079833984
1761396019807732500,5.809732421875,0.1261444091796875,0.09137344360351562,0.10463190078735352
1761396019827110400,5.8291103515625,0.021780014038085938,0.14398193359375,0.09576606750488281
1761396019846488300,5.84848828125,-0.11350727081298828,0.13680696487426758,0.19612407684326172
1761396019865866000,5.867865966796875,-0.1249856948852539,0.11561393737792969,0.16646242141723633
1761396019885244000,5.887243896484375,-0.07282638549804688,0.0951695442199707,0.053795814514160156
1761396019904621800,5.906621826171875,0.0473942756652832,0.08044862747192383,-0.02007007598876953
1761396019923999700,5.925999755859375,0.000980377197265625,0.09401369094848633,0.0749979019165039
1761396019943377400,5.94537744140625,-0.1132059097290039,0.11346769332885742,0.15038204193115234
1761396019962755300,5.96475537109375,-0.08138084411621094,0.0997304916381836,0.1392669677734375
1761396019982133200,5.98413330078125,0.07947969436645508,0.07981348037719727,0.07727527618408203
1761396020001511200,6.00351123046875,0.04495382308959961,0.08872175216674805,0.08674955368041992
1761396020020888800,6.022888916015625,-0.10075569152832031,0.11081695556640625,0.0966787338256836
1761396020040266800,6.042266845703125,-0.12552309036254883,0.13999319076538086,0.1582794189453125
1761396020059644700,6.061644775390625,-0.10947895050048828,0.15041208267211914,0.2186269760131836
1761396020079022300,6.081022216796875,-0.03664731979370117,0.1675877571105957,0.16731929779052734
1761396020098400300,6.100400146484375,0.048253536224365234,0.1280193328857422,0.09792232513427734
1761396020117778200,6.119778076171875,0.0620121955871582,0.10052633285522461,0.0842132568359375
1761396020137156000,6.139156005859375,-0.051568031311035156,0.11325311660766602,0.09942054748535156
1761396020156533800,6.15853369140625,-0.0842442512512207,0.1574101448059082,0.1326451301574707
1761396020175911700,6.17791162109375,-0.035756587982177734,0.1260695457458496,0.18295049667358398
1761396020195289600,6.19728955078125,-0.009250164031982422,0.11752605438232422,0.17975187301635742
1761396020214667300,6.216667236328125,-0.05572366714477539,0.07804107666015625,0.1325078010559082
1761396020234045200,6.236045166015625,-0.0794210433959961,0.06837892532348633,0.03971385955810547
1761396020253423000,6.255423095703125,-0.01615762710571289,0.05450868606567383,0.023320674896240234
1761396020272801000,6.274801025390625,-0.06575965881347656,0.07680320739746094,0.07628583908081055
1761396020292178700,6.2941787109375,-0.11891412734985352,0.1044154167175293,0.09941720962524414
1761396020311556600,6.313556640625,-0.06715250015258789,0.11931800842285156,0.14607667922973633
1761396020330934500,6.3329345703125,-0.05533313751220703,0.09532642364501953,0.14753103256225586
1761396020350312200,6.352312255859375,-0.05426502227783203,0.08696365356445312,0.1006917953491211
1761396020369690000,6.371690185546875,-0.03403043746948242,0.06895923614501953,0.07083654403686523
1761396020389068000,6.391068115234375,0.0009121894836425781,0.08308696746826172,0.03376340866088867
1761396020408446000,6.410446044921875,0.0041751861572265625,0.12004232406616211,0.036180973052978516
1761396020427823600,6.42982373046875,-0.07066869735717773,0.14760684967041016,0.12863826751708984
1761396020447201500,6.449201416015625,-0.05648660659790039,0.15667152404785156,0.18885469436645508
1761396020466579500,6.468579345703125,-0.02144622802734375,0.14291620254516602,0.11675405502319336
1761396020485957400,6.487957275390625,0.05200052261352539,0.09906673431396484,0.050853729248046875
1761396020505335000,6.5073349609375,0.012567996978759766,0.0446171760559082,0.061482906341552734
1761396020524713000,6.526712890625,-0.10920190811157227,0.0585484504699707,0.05484724044799805
1761396020544091000,6.5460908203125,-0.19071722030639648,0.08154296875,0.10097503662109375
1761396020563468500,6.565468505859375,-0.0791635513305664,0.0891575813293457,0.09576940536499023
1761396020582846500,6.584846435546875,0.035019874572753906,0.08033037185668945,0.08393144607543945
1761396020602224400,6.604224365234375,-0.016132831573486328,0.10463428497314453,0.11454153060913086
1761396020621602300,6.623602294921875,-0.1266794204711914,0.12345552444458008,0.18884897232055664
1761396020640980000,6.64297998046875,-0.07122659683227539,0.15181255340576172,0.15776729583740234
1761396020660358000,6.66235791015625,0.0532536506652832,0.12729597091674805,0.11696624755859375
1761396020679735800,6.68173583984375,0.044135093688964844,0.08423852920532227,0.104248046875
1761396020699113700,6.70111376953125,-0.07549858093261719,0.07695674896240234,0.09675931930541992
1761396020718491400,6.720491455078125,-0.1113743782043457,0.07483196258544922,0.08669519424438477
1761396020737869300,6.739869384765625,-0.06119823455810547,0.11760902404785156,0.09984636306762695
1761396020757247200,6.759247314453125,-0.08267021179199219,0.14305782318115234,0.13593244552612305
1761396020776625000,6.778625,-0.08097982406616211,0.11948585510253906,0.130767822265625
1761396020796002800,6.7980029296875,-0.036350250244140625,0.10138130187988281,0.054105281829833984
1761396020815380700,6.817380615234375,0.005344390869140625,0.09546089172363281,0.07898092269897461
1761396020834758400,6.83675830078125,0.05463886260986328,0.10578107833862305,0.1648244857788086
1761396020854136300,6.85613623046875,0.03892326354980469,0.10392141342163086,0.15421342849731445
1761396020873514200,6.87551416015625,-0.028749465942382812,0.10261201858520508,0.09312057495117188
1761396020892892200,6.89489208984375,-0.03860664367675781,0.08599185943603516,0.10996580123901367
1761396020912269800,6.914269775390625,-0.09557771682739258,0.09990787506103516,0.15721893310546875
1761396020931647700,6.933647705078125,-0.10397768020629883,0.0992732048034668,0.08664417266845703
1761396020951025700,6.953025634765625,-0.029551982879638672,0.08219289779663086,0.08478975296020508
1761396020970403300,6.9724033203125,-0.04586935043334961,0.07188081741333008,0.12270450592041016
1761396020989781200,6.99178125,-0.06025218963623047,0.09043169021606445,0.13376569747924805
1761396021009159200,7.0111591796875,-0.0207061767578125,0.13962364196777344,0.15332412719726562
1761396021028537000,7.030537109375,0.0010161399841308594,0.15470266342163086,0.13966035842895508
1761396021047914800,7.049914794921875,-0.07778120040893555,0.13981103897094727,0.05188703536987305
1761396021067292700,7.069292724609375,-0.11962699890136719,0.09761953353881836,-0.002910137176513672
1761396021086670600,7.088670654296875,-0.014599800109863281,0.06580543518066406,0.04087257385253906
1761396021106048500,7.108048583984375,0.09718942642211914,0.0785679817199707,0.07831764221191406
1761396021125426200,7.12742626953125,0.12276792526245117,0.07735586166381836,0.09931325912475586
1761396021144804000,7.14680419921875,-0.04586172103881836,0.08756875991821289,0.12809133529663086
1761396021164182000,7.16618212890625,-0.10632562637329102,0.10602855682373047,0.1355113983154297
1761396021183559700,7.1855595703125,-0.04023933410644531,0.08499336242675781,0.15219783782958984
1761396021202937600,7.2049375,-0.10787105560302734,0.08600521087646484,0.11677360534667969
1761396021222315500,7.2243154296875,-0.09624481201171875,0.08141279220581055,0.053689002990722656
1761396021241693400,7.243693359375,-0.08373689651489258,0.04431915283203125,0.0956263542175293
1761396021261071000,7.263071044921875,-0.11501169204711914,0.0803217887878418,0.11783361434936523
1761396021280449000,7.282448974609375,0.02345418930053711,0.09622001647949219,0.14829635620117188
1761396021299827000,7.301826904296875,-0.035130977630615234,0.11665487289428711,0.12337923049926758
1761396021319204600,7.32120458984375,-0.12714767456054688,0.1424551010131836,0.06536388397216797
1761396021338582500,7.34058251953125,-0.03721284866333008,0.11506080627441406,0.09072256088256836
1761396021357960400,7.35996044921875,0.10606098175048828,0.08859443664550781,0.14029407501220703
1761396021377338400,7.37933837890625,0.08077335357666016,0.08708429336547852,0.05429363250732422
1761396021396716000,7.398716064453125,-0.050708770751953125,0.12222814559936523,0.005051136016845703
1761396021416094000,7.418093994140625,-0.1480398178100586,0.12244892120361328,0.09577226638793945
1761396021435472000,7.437471923828125,-0.0817103385925293,0.07939910888671875,0.15065336227416992
1761396021454849500,7.456849609375,0.0498356819152832,0.07554388046264648,0.08977222442626953
1761396021474227500,7.4762275390625,0.04258537292480469,0.0633401870727539,0.0720682144165039
1761396021493605400,7.49560546875,-0.08172369003295898,0.07857990264892578,0.07849740982055664
1761396021512983300,7.5149833984375,-0.13351011276245117,0.09446001052856445,0.06855440139770508
1761396021532361000,7.53436083984375,-0.0009694099426269531,0.09024906158447266,0.11149263381958008
1761396021551739000,7.55373876953125,-0.011970043182373047,0.09288883209228516,0.19433927536010742
1761396021571116800,7.57311669921875,-0.1524667739868164,0.11801624298095703,0.15885400772094727
1761396021590494700,7.59249462890625,-0.0887303352355957,0.09893369674682617,0.06284618377685547
1761396021609872400,7.611872314453125,0.04014873504638672,0.08243131637573242,0.03681755065917969
1761396021629250300,7.631250244140625,0.0688028335571289,0.08874130249023438,0.1061100959777832
1761396021648628000,7.6506279296875,-0.025499820709228516,0.09926319122314453,0.1475687026977539
1761396021668006000,7.670005859375,-0.11075019836425781,0.11333560943603516,0.11998319625854492
1761396021687383800,7.6893837890625,-0.07465982437133789,0.10872697830200195,0.09959650039672852
1761396021706761700,7.70876171875,0.016785144805908203,0.08443737030029297,0.08040428161621094
1761396021726139400,7.728139404296875,-0.009587287902832031,0.0870509147644043,0.06761980056762695
1761396021745517300,7.747517333984375,-0.09729290008544922,0.08644819259643555,0.04705476760864258
1761396021764895200,7.766895263671875,-0.10765409469604492,0.09289693832397461,0.09474611282348633
1761396021784273200,7.786273193359375,-0.040975093841552734,0.06131172180175781,0.09235143661499023
1761396021803650800,7.80565087890625,0.0011897087097167969,0.07648944854736328,0.009647846221923828
1761396021823028700,7.82502880859375,0.06986570358276367,0.08590364456176758,0.07612895965576172
1761396021842406700,7.84440673828125,0.0734248161315918,0.11406564712524414,0.15886783599853516
1761396021861784300,7.863784423828125,0.08581304550170898,0.12715768814086914,0.14218473434448242
1761396021881162200,7.883162353515625,0.030296802520751953,0.11853551864624023,0.10137128829956055
1761396021900540200,7.9025400390625,-0.11530780792236328,0.10660934448242188,0.10157489776611328
1761396021919918000,7.92191796875,-0.21145868301391602,0.06712627410888672,0.10524320602416992
1761396021939295700,7.941295654296875,-0.16010761260986328,0.047959327697753906,0.08382272720336914
1761396021958673700,7.960673583984375,-0.04625844955444336,0.058031558990478516,0.10675907135009766
1761396021978051600,7.980051513671875,-0.061975955963134766,0.08356475830078125,0.0890645980834961
1761396021997429200,7.99942919921875,-0.05967426300048828,0.0957937240600586,0.028017520904541016
1761396022016807200,8.01880712890625,-0.042330265045166016,0.08896064758300781,0.06569910049438477
1761396022036185000,8.03818505859375,0.05083656311035156,0.07672977447509766,0.09712743759155273
1761396022055562800,8.057562744140625,0.07690811157226562,0.05496788024902344,0.06379556655883789
1761396022074940700,8.076940673828124,0.012604236602783203,0.07380867004394531,0.031430721282958984
1761396022094318600,8.096318603515625,0.005881786346435547,0.08683443069458008,0.06804227828979492
1761396022113696500,8.115696533203124,-0.015277862548828125,0.0937047004699707,0.06787395477294922
1761396022133074200,8.13507421875,-0.1047968864440918,0.0989999771118164,0.10881185531616211
1761396022152452000,8.1544521484375,-0.14165925979614258,0.08831262588500977,0.16504716873168945
1761396022171830000,8.173830078125,-0.09897518157958984,0.10532617568969727,0.15109539031982422
1761396022191207700,8.193207763671875,-0.032575130462646484,0.08550453186035156,0.10664844512939453
1761396022210585600,8.212585693359374,0.015320301055908203,0.052507877349853516,0.07532644271850586
1761396022229963500,8.231963623046875,0.01316690444946289,0.04397106170654297,0.09282541275024414
1761396022249341400,8.251341552734376,-0.0014958381652832031,0.07602787017822266,0.10330581665039062
1761396022268719000,8.270718994140625,0.009884834289550781,0.09839105606079102,0.1098031997680664
1761396022288097000,8.290096923828125,-0.08194112777709961,0.10389232635498047,0.09425067901611328
1761396022307475000,8.309474853515624,-0.08779478073120117,0.09697103500366211,0.06454133987426758
1761396022326852600,8.3288525390625,-0.05562877655029297,0.08116388320922852,0.0071239471435546875
1761396022346230500,8.34823046875,0.0653848648071289,0.062384605407714844,-0.016791820526123047
1761396022365608400,8.3676083984375,0.16587400436401367,0.07509946823120117,0.04264354705810547
1761396022384986400,8.386986328125,0.14313316345214844,0.07832670211791992,0.05976104736328125
1761396022404364000,8.406364013671874,0.013175487518310547,0.07770967483520508,0.05889129638671875
1761396022423742000,8.425741943359375,-0.1957569122314453,0.10050630569458008,0.09603261947631836
1761396022443119900,8.445119873046876,-0.19225692749023438,0.08172845840454102,0.08629179000854492
1761396022462497500,8.46449755859375,0.0049610137939453125,0.0604705810546875,0.10941791534423828
1761396022481875500,8.48387548828125,0.13368797302246094,0.04576444625854492,0.12760257720947266
1761396022501253400,8.50325341796875,0.04597282409667969,0.07763528823852539,0.14270734786987305
1761396022520631000,8.522631103515625,-0.12196779251098633,0.08463764190673828,0.12288951873779297
1761396022540009000,8.542009033203126,-0.16690397262573242,0.08773994445800781,0.1114964485168457
1761396022559387000,8.561386962890625,-0.07353639602661133,0.07530975341796875,0.14603519439697266
1761396022578764800,8.580764892578125,-0.009206771850585938,0.11632061004638672,0.1411457061767578
1761396022598142500,8.600142578125,-0.00060272216796875,0.10810089111328125,0.1522083282470703
1761396022617520400,8.619520263671875,0.0032672882080078125,0.09832239151000977,0.09174966812133789
1761396022636898300,8.638898193359376,-0.03438425064086914,0.05830860137939453,0.0914454460144043
1761396022656276000,8.65827587890625,-0.0885167121887207,0.062184810638427734,0.04693460464477539
1761396022675654000,8.67765380859375,-0.07971858978271484,0.08085298538208008,0.006968975067138672
1761396022695031800,8.69703173828125,0.0567164421081543,0.11747598648071289,0.0010933876037597656
1761396022714409500,8.716409423828125,0.10644674301147461,0.09512710571289062,0.1131448745727539
1761396022733787400,8.735787353515626,-0.030755043029785156,0.0519709587097168,0.11542415618896484
1761396022753165300,8.755165283203125,-0.010480880737304688,0.06502914428710938,-0.046402931213378906
1761396022772543200,8.774543212890626,-0.050206661224365234,0.047809600830078125,-0.031168460845947266
1761396022791921000,8.7939208984375,-0.1341385841369629,0.08867692947387695,0.11497926712036133
1761396022811298800,8.813298828125,-0.04030942916870117,0.11261892318725586,0.2071080207824707
1761396022830676700,8.8326767578125,0.03635883331298828,0.05159425735473633,0.09051895141601562
1761396022850054700,8.8520546875,-0.036982059478759766,0.006824016571044922,0.004885196685791016
1761396022869432300,8.871432373046876,-0.07984638214111328,0.061232566833496094,0.1983332633972168
1761396022888810200,8.890810302734375,0.18013477325439453,0.1305098533630371,0.11448049545288086
1761396022908188200,8.910188232421875,0.12153148651123047,0.08109283447265625,0.19948720932006836
1761396022927565800,8.92956591796875,-0.1340012550354004,0.14307928085327148,0.2415919303894043
1761396022946943700,8.94894384765625,0.09842538833618164,0.07677698135375977,0.004038333892822266
1761396022966321700,8.96832177734375,0.15363740921020508,0.007586956024169922,0.12942790985107422
1761396022985699300,8.98769921875,-0.019285202026367188,0.09102392196655273,-0.002048492431640625
1761396023005077200,9.0070771484375,-0.29028940200805664,0.12182998657226562,-0.0332636833190918
1761396023024455200,9.026455078125,-0.5206789970397949,0.064605712890625,0.013866901397705078
1761396023043833000,9.0458330078125,-0.4741239547729492,-0.019774913787841797,-0.15230607986450195
1761396023063210800,9.065210693359376,-0.24344301223754883,0.0750894546508789,0.19057989120483398
1761396023082588700,9.084588623046875,0.44251203536987305,0.17540693283081055,0.34877800941467285
1761396023101966600,9.103966552734375,0.37291669845581055,0.08961915969848633,0.42625927925109863
1761396023121344300,9.12334423828125,0.1109776496887207,0.1771526336669922,0.12095832824707031
1761396023140722200,9.14272216796875,-0.1722702980041504,0.1141815185546875,0.022743701934814453
1761396023160100000,9.16210009765625,-0.22968053817749023,0.08132791519165039,-0.0458674430847168
1761396023179477800,9.181477783203125,-0.12822580337524414,0.1008901596069336,0.0019750595092773438
1761396023198855700,9.200855712890625,0.04986572265625,0.11996603012084961,0.18795299530029297
1761396023218233600,9.220233642578124,0.05874490737915039,0.17684364318847656,0.41753458976745605
1761396023237611300,9.239611328125,0.08580827713012695,0.16024017333984375,0.18720674514770508
1761396023256989200,9.2589892578125,-0.2984471321105957,0.08376455307006836,-0.038805484771728516
1761396023276367000,9.2783671875,-0.4587898254394531,0.024727821350097656,-0.10803461074829102
1761396023295745000,9.2977451171875,-0.21659612655639648,0.13592100143432617,-0.053266048431396484
1761396023315122700,9.317122802734374,0.6456089019775391,-0.11379528045654297,0.17358827590942383
1761396023334500600,9.33650048828125,0.11237144470214844,0.16667842864990234,-0.07370901107788086
1761396023353878500,9.35587841796875,-0.5140433311462402,0.15084171295166016,0.20894861221313477
1761396023373256200,9.375256103515625,-0.21080446243286133,0.08744287490844727,0.21690654754638672
1761396023392634000,9.394634033203126,0.289884090423584,0.0602874755859375,0.20629644393920898
1761396023412012000,9.414011962890624,0.3571329116821289,0.05213212966918945,0.25334644317626953
1761396023431389700,9.4333896484375,0.5725569725036621,-0.056754112243652344,0.15675067901611328
