time,seconds_elapsed,z,y,x
1761396014139710700,0.141710693359375,5.395216941833496,6.708278179168701,-4.7371907234191895
1761396014178466300,0.18046630859375,5.920441627502441,6.656832695007324,-4.559523582458496
1761396014197844200,0.19984423828125,5.785246849060059,6.784250259399414,-4.720440864562988
1761396014217222100,0.21922216796875,5.707480430603027,6.794419765472412,-4.691128730773926
1761396014236599800,0.238599853515625,5.456233978271484,6.888936519622803,-4.60139799118042
1761396014255977700,0.257977783203125,5.292923450469971,6.899106025695801,-4.446462631225586
1761396014275355600,0.277355712890625,5.395814895629883,6.871588230133057,-4.429114818572998
1761396014294733600,0.296733642578125,5.4897332191467285,6.839883327484131,-4.399204254150391
1761396014314111500,0.316111572265625,5.551946640014648,6.819544315338135,-4.30588436126709
1761396014333489200,0.3354892578125,5.412564754486084,6.854838848114014,-4.281357765197754
1761396014352867000,0.3548671875,5.142175674438477,6.990631580352783,-4.2825541496276855
1761396014372245000,0.374244873046875,4.983053207397461,7.052246570587158,-4.336392879486084
1761396014391622700,0.39362255859375,5.057828903198242,7.058826923370361,-4.409972190856934
1761396014411000600,0.41300048828125,5.314459323883057,7.004390239715576,-4.291527271270752
1761396014430378500,0.43237841796875,5.502893924713135,6.99541711807251,-4.220340728759766
1761396014449756400,0.45175634765625,5.630311489105225,6.9684977531433105,-4.314857482910156
1761396014469134000,0.471134033203125,5.617151260375977,6.919445037841797,-4.393820762634277
1761396014488512000,0.490511962890625,5.445466041564941,6.971488952636719,-4.448855400085449
1761396014507890000,0.509889892578125,5.336592674255371,6.989434719085693,-4.417150497436523
1761396014527267800,0.529267822265625,5.3078789710998535,6.966702938079834,-4.411766529083252
1761396014546645500,0.5486455078125,5.325825214385986,6.9475603103637695,-4.411168575286865
1761396014566023400,0.5680234375,5.258825778961182,6.966104984283447,-4.320241451263428
1761396014585401300,0.5874013671875,5.257031440734863,6.994818687438965,-4.343571186065674
1761396014604779300,0.606779296875,5.224728107452393,7.023532867431641,-4.457230567932129
1761396014624157000,0.626156982421875,5.3312087059021,7.029514789581299,-4.418346881866455
1761396014643534800,0.645534912109375,5.335994720458984,7.047461032867432,-4.308875560760498
1761396014662912800,0.664912841796875,5.334199905395508,7.056434154510498,-4.24367094039917
1761396014682290700,0.684290771484375,5.171487808227539,7.054041385650635,-4.293920040130615
1761396014701668400,0.70366845703125,5.090131759643555,7.073183536529541,-4.377668857574463
1761396014721046300,0.72304638671875,5.122435092926025,7.061219692230225,-4.346562385559082
1761396014740424200,0.742424072265625,5.109274387359619,7.063612461090088,-4.350151538848877
1761396014759802000,0.761802001953125,5.103292465209961,7.043871879577637,-4.450051784515381
1761396014779179800,0.7811796875,5.136193752288818,7.021139621734619,-4.43330192565918
1761396014798557700,0.8005576171875,5.172684192657471,7.055237770080566,-4.333401679992676
1761396014817935600,0.819935546875,5.172684192657471,7.071987152099609,-4.332205295562744
1761396014837313300,0.839313232421875,5.193023204803467,7.094718933105469,-4.357329845428467
1761396014856691200,0.858691162109375,5.200799942016602,7.128218650817871,-4.309473514556885
1761396014876069000,0.878069091796875,5.32821798324585,7.09711217880249,-4.281956195831299
1761396014895447000,0.897447021484375,5.32403039932251,7.110272407531738,-4.299304008483887
1761396014914824700,0.91682470703125,5.284548759460449,7.146164894104004,-4.366302967071533
1761396014934202600,0.93620263671875,5.260620594024658,7.117451190948486,-4.232903480529785
1761396014953580500,0.95558056640625,5.242674350738525,7.133602619171143,-4.205385684967041
1761396014972958500,0.97495849609375,5.247459888458252,7.128218650817871,-4.361517429351807
1761396014992336400,0.99433642578125,5.14875602722168,7.10847806930542,-4.511068820953369
1761396015011714000,1.013714111328125,4.980660438537598,7.1234331130981445,-4.508078098297119
1761396015031092000,1.033092041015625,5.057828903198242,7.061817646026611,-4.468596458435059
1761396015050470000,1.052469970703125,5.303691387176514,6.996613502502441,-4.463810443878174
1761396015069847600,1.07184765625,5.389832973480225,7.0169525146484375,-4.398007869720459
1761396015089225500,1.0912255859375,5.236093997955322,7.066603660583496,-4.384249210357666
1761396015108603400,1.110603271484375,5.128417015075684,7.107879638671875,-4.435096740722656
1761396015127981300,1.129981201171875,5.0356950759887695,7.113861560821533,-4.46979284286499
1761396015147359000,1.14935888671875,5.0225348472595215,7.112665176391602,-4.500899314880371
1761396015166737000,1.16873681640625,5.1667022705078125,7.051050186157227,-4.503890514373779
1761396015186114800,1.18811474609375,5.247459888458252,7.024130821228027,-4.522434711456299
1761396015205492700,1.20749267578125,5.248656272888184,7.068996429443359,-4.5236310958862305
1761396015224870400,1.226870361328125,5.144568920135498,7.100701332092285,-4.386044025421143
1761396015244248300,1.246248291015625,5.033302307128906,7.110272407531738,-4.403990268707275
1761396015263626200,1.265626220703125,5.073980331420898,7.105486869812012,-4.464408874511719
1761396015283004000,1.28500390625,5.129613399505615,7.0546393394470215,-4.499104976654053
1761396015302381800,1.3043818359375,4.990231513977051,7.089933395385742,-4.500899314880371
1761396015321759700,1.323759765625,4.97348165512085,7.081558704376221,-4.542175769805908
1761396015341137700,1.3431376953125,5.133800983428955,7.0462646484375,-4.519443988800049
1761396015360515600,1.362515625,5.205585479736328,7.025327205657959,-4.501497745513916
1761396015379893200,1.381893310546875,5.1188459396362305,7.083353042602539,-4.517050743103027
1761396015399271200,1.401271240234375,5.1427741050720215,7.090531826019287,-4.525425910949707
1761396015418649000,1.420649169921875,5.091328144073486,7.0785675048828125,-4.506283283233643
1761396015438027000,1.440027099609375,4.9986066818237305,7.0887370109558105,-4.5200419425964355
1761396015457404700,1.45940478515625,5.231308460235596,7.077371120452881,-4.497908592224121
1761396015476782600,1.478782470703125,5.3802618980407715,7.0648088455200195,-4.470989227294922
1761396015496160500,1.498160400390625,5.206183910369873,7.071389198303223,-4.404588222503662
1761396015515538200,1.5175380859375,5.044070243835449,7.105486869812012,-4.386044025421143
1761396015534916000,1.536916015625,5.069792747497559,7.10429048538208,-4.384847640991211
1761396015554294000,1.5562939453125,5.233701229095459,7.087540626525879,-4.385445594787598
1761396015573672000,1.575671875,5.181657314300537,7.121040344238281,-4.376472473144531
1761396015593049600,1.595049560546875,5.047659397125244,7.089933395385742,-4.343571186065674
1761396015612427500,1.614427490234375,5.000999450683594,7.1024956703186035,-4.4243292808532715
1761396015631805400,1.633805419921875,5.065007209777832,7.081558704376221,-4.4243292808532715
1761396015651183400,1.653183349609375,5.179862976074219,7.066005229949951,-4.371686935424805
1761396015670561000,1.67256103515625,5.2109694480896,7.073183536529541,-4.396213531494141
1761396015689939000,1.69193896484375,5.163711071014404,7.11146879196167,-4.456034183502197
1761396015709316900,1.71131689453125,5.0255255699157715,7.176673412322998,-4.387240409851074
1761396015728694500,1.730694580078125,5.102694511413574,7.151548862457275,-4.380061626434326
1761396015748072400,1.750072509765625,5.2971110343933105,7.091728210449219,-4.42193603515625
1761396015767450400,1.769450439453125,5.301896572113037,7.083353042602539,-4.426722049713135
1761396015786828300,1.788828369140625,5.160720348358154,7.067201614379883,-4.401597023010254
1761396015806206200,1.808206298828125,5.134997367858887,7.057032108306885,-4.47278356552124
1761396015825583900,1.827583984375,5.122435092926025,7.063014030456543,-4.46560525894165
1761396015844961800,1.8469619140625,5.165505886077881,7.109076023101807,-4.383052825927734
1761396015864339700,1.866339599609375,5.187041282653809,7.0755767822265625,-4.362115859985352
1761396015883717600,1.885717529296875,5.208576679229736,7.085147857666016,-4.4189453125
1761396015903095300,1.90509521484375,5.200799942016602,7.121040344238281,-4.3686957359313965
1761396015922473200,1.92447314453125,5.175076961517334,7.083951473236084,-4.350151538848877
1761396015941851100,1.94385107421875,5.1876397132873535,7.0462646484375,-4.435695171356201
1761396015961228800,1.963228759765625,5.2043890953063965,7.052246570587158,-4.508078098297119
1761396015980606700,1.982606689453125,5.1840500831604,7.052246570587158,-4.440480709075928
1761396015999984600,2.001984619140625,5.080560684204102,7.094718933105469,-4.3896331787109375
1761396016019362600,2.021362548828125,5.127819061279297,7.118647575378418,-4.396811485290527
1761396016038740200,2.040740234375,5.196014404296875,7.145566463470459,-4.342973232269287
1761396016058118100,2.0601181640625,5.148158073425293,7.156334400177002,-4.2987060546875
1761396016077496000,2.07949609375,5.077569484710693,7.124031066894531,-4.359723091125488
1761396016096874000,2.0988740234375,5.152345180511475,7.082755088806152,-4.3998026847839355
1761396016116251600,2.118251708984375,5.3078789710998535,7.09292459487915,-4.4135613441467285
1761396016135629600,2.137629638671875,5.3904314041137695,7.0923261642456055,-4.270590305328369
1761396016155007500,2.157007568359375,5.274977684020996,7.160521984100342,-4.241278171539307
1761396016174385400,2.176385498046875,5.039284706115723,7.211967468261719,-4.268197536468506
1761396016193763000,2.19576318359375,4.9154558181762695,7.183253765106201,-4.304687976837158
1761396016213141000,2.21514111328125,5.0811591148376465,7.1162543296813965,-4.409972190856934
1761396016232519000,2.234518798828125,5.291727066040039,7.080960273742676,-4.4374895095825195
1761396016251896800,2.253896728515625,5.422136306762695,7.083353042602539,-4.3411784172058105
1761396016271274500,2.2732744140625,5.285745143890381,7.109674453735352,-4.322634220123291
1761396016290652400,2.29265234375,5.107480049133301,7.121040344238281,-4.330410957336426
1761396016310030300,2.3120302734375,5.031507968902588,7.130013465881348,-4.3758745193481445
1761396016329408300,2.331408203125,5.085346221923828,7.074379920959473,-4.4243292808532715
1761396016348786000,2.350785888671875,5.233103275299072,7.017550468444824,-4.395017147064209
1761396016368163800,2.370163818359375,5.1774702072143555,7.052246570587158,-4.420141696929932
1761396016387541800,2.389541748046875,5.124827861785889,7.115057945251465,-4.41475772857666
1761396016406919400,2.40891943359375,5.143372058868408,7.109076023101807,-4.339384078979492
1761396016426297300,2.42829736328125,5.1876397132873535,7.1132636070251465,-4.277170658111572
1761396016445675300,2.44767529296875,5.268397331237793,7.113861560821533,-4.318446636199951
1761396016465053200,2.46705322265625,5.267200946807861,7.118647575378418,-4.386641979217529
1761396016484430800,2.486430908203125,5.1906304359436035,7.115057945251465,-4.432105541229248
1761396016503808800,2.505808837890625,5.158925533294678,7.143772125244141,-4.338187217712402
1761396016523186700,2.525186767578125,5.1840500831604,7.159923553466797,-4.24785852432251
1761396016542564600,2.544564697265625,5.102096080780029,7.1856465339660645,-4.261018753051758
1761396016561942300,2.5639423828125,5.100899696350098,7.158727169036865,-4.311268329620361
1761396016581320200,2.5833203125,5.064409255981445,7.098906517028809,-4.314857482910156
1761396016600698000,2.602697998046875,5.0464630126953125,7.106084823608398,-4.359124660491943
1761396016620076000,2.622075927734375,5.176273345947266,7.094718933105469,-4.376472473144531
1761396016639453700,2.64145361328125,5.220541000366211,7.121040344238281,-4.393820762634277
1761396016658831600,2.66083154296875,5.170889854431152,7.113861560821533,-4.342973232269287
1761396016678209500,2.68020947265625,5.18105936050415,7.10429048538208,-4.369294166564941
1761396016697587500,2.69958740234375,5.212165832519531,7.107879638671875,-4.333401679992676
1761396016716965000,2.718965087890625,5.280361175537109,7.083951473236084,-4.31306266784668
1761396016736343000,2.738343017578125,5.400002479553223,7.120441913604736,-4.346562385559082
1761396016755721000,2.757720947265625,5.328815937042236,7.121040344238281,-4.357928276062012
1761396016775099000,2.777098876953125,5.065605640411377,7.164709091186523,-4.370490550994873
1761396016794476500,2.7964765625,5.047659397125244,7.11565637588501,-4.316053867340088
1761396016813854500,2.8158544921875,5.226522922515869,7.089933395385742,-4.277170658111572
1761396016833232400,2.835232421875,5.2630133628845215,7.136593341827393,-4.292723655700684
1761396016852610000,2.854610107421875,5.13739013671875,7.151548862457275,-4.302295207977295
1761396016871988000,2.873988037109375,5.0907301902771,7.125227451324463,-4.338187217712402
1761396016891366000,2.893365966796875,5.163113117218018,7.0959153175354,-4.356133460998535
1761396016910743800,2.912743896484375,5.274379253387451,7.109076023101807,-4.315455436706543
1761396016930121500,2.93212158203125,5.322235584259033,7.137789726257324,-4.339982032775879
1761396016949499400,2.95149951171875,5.216353416442871,7.16949462890625,-4.3178486824035645
1761396016968877300,2.970877197265625,5.162514686584473,7.165905475616455,-4.281956195831299
1761396016988255200,2.990255126953125,5.0979084968566895,7.114459991455078,-4.292125701904297
1761396017007633000,3.0096328125,5.087141036987305,7.100701332092285,-4.395615100860596
1761396017027010800,3.0290107421875,5.213362216949463,7.070790767669678,-4.387838363647461
1761396017046388700,3.048388671875,5.194219589233398,7.081558704376221,-4.377070903778076
1761396017065766400,3.067766357421875,5.077569484710693,7.106683254241943,-4.314259052276611
1761396017085144300,3.087144287109375,5.063212871551514,7.168298244476318,-4.322634220123291
1761396017104522200,3.106522216796875,5.224728107452393,7.125825881958008,-4.342374801635742
1761396017123900200,3.125900146484375,5.213960647583008,7.154539585113525,-4.3417768478393555
1761396017143278000,3.145278076171875,5.167898654937744,7.159923553466797,-4.2622151374816895
1761396017162655700,3.16465576171875,5.264209747314453,7.138986587524414,-4.260420799255371
1761396017182033700,3.18403369140625,5.284548759460449,7.1748785972595215,-4.367499351501465
1761396017201411600,3.20341162109375,5.234299659729004,7.11984395980835,-4.303491592407227
1761396017220789500,3.22278955078125,5.143372058868408,7.103692054748535,-4.261018753051758
1761396017240167200,3.242167236328125,5.073980331420898,7.135995388031006,-4.332205295562744
1761396017259545000,3.261545166015625,5.213960647583008,7.127620220184326,-4.261617183685303
1761396017278923000,3.280923095703125,5.234299659729004,7.156334400177002,-4.266402721405029
1761396017298300700,3.30030078125,5.064409255981445,7.17069149017334,-4.332803726196289
1761396017317678600,3.3196787109375,5.073980331420898,7.149155616760254,-4.329214572906494
1761396017337056500,3.339056396484375,5.229514122009277,7.112665176391602,-4.329812526702881
1761396017356434400,3.358434326171875,5.291129112243652,7.101299285888672,-4.404588222503662
1761396017375812000,3.37781201171875,5.267200946807861,7.113861560821533,-4.4189453125
1761396017395190000,3.39718994140625,5.213960647583008,7.135396957397461,-4.376472473144531
1761396017414568000,3.41656787109375,5.134997367858887,7.131807804107666,-4.363312244415283
1761396017433945900,3.43594580078125,5.107480049133301,7.116852760314941,-4.325624942779541
1761396017453323500,3.455323486328125,5.044668197631836,7.141977310180664,-4.325624942779541
1761396017472701400,3.474701416015625,5.048257350921631,7.140780925750732,-4.319643020629883
1761396017492079400,3.494079345703125,5.114658355712891,7.127620220184326,-4.348955154418945
1761396017511457000,3.51345703125,5.0979084968566895,7.147959232330322,-4.336990833282471
1761396017530835000,3.5328349609375,5.119443893432617,7.110870838165283,-4.295714855194092
1761396017550212900,3.552212890625,5.1840500831604,7.143772125244141,-4.326223373413086
1761396017569590800,3.5715908203125,5.178666591644287,7.199405193328857,-4.272983074188232
1761396017588968400,3.590968505859375,5.0949177742004395,7.215556621551514,-4.346562385559082
1761396017608346400,3.610346435546875,5.1768717765808105,7.168896675109863,-4.439284324645996
1761396017627724300,3.629724365234375,5.334199905395508,7.096513748168945,-4.355535507202148
1761396017647102200,3.649102294921875,5.19242525100708,7.135995388031006,-4.252644062042236
1761396017666479900,3.66847998046875,5.0362935066223145,7.174280643463135,-4.283750534057617
1761396017685857800,3.68785791015625,5.042275428771973,7.153941631317139,-4.350749969482422
1761396017705235700,3.707235595703125,5.178068161010742,7.128218650817871,-4.357329845428467
1761396017724613600,3.726613525390625,5.226522922515869,7.086344242095947,-4.334598064422607
1761396017743991300,3.7459912109375,5.139184951782227,7.083951473236084,-4.3310089111328125
1761396017763369200,3.765369140625,5.117649555206299,7.0887370109558105,-4.414159774780273
1761396017782747100,3.7847470703125,5.199005603790283,7.118647575378418,-4.423730850219727
1761396017802125000,3.804125,5.234299659729004,7.136593341827393,-4.31306266784668
1761396017821502700,3.823502685546875,5.271986484527588,7.107879638671875,-4.264009952545166
1761396017840880600,3.842880615234375,5.289932727813721,7.0995049476623535,-4.398606300354004
1761396017860258600,3.862258544921875,5.108676433563232,7.137789726257324,-4.412963390350342
1761396017879636500,3.881636474609375,4.978865623474121,7.161718368530273,-4.331607341766357
1761396017899014100,3.90101416015625,5.018347263336182,7.164709091186523,-4.3208394050598145
1761396017918392000,3.92039208984375,5.089533805847168,7.159923553466797,-4.311268329620361
1761396017937770000,3.93977001953125,5.112864017486572,7.174280643463135,-4.305285930633545
1761396017957147600,3.959147705078125,5.1876397132873535,7.165905475616455,-4.2987060546875
1761396017976525600,3.978525634765625,5.162514686584473,7.147959232330322,-4.246662139892578
1761396017995903500,3.997903564453125,5.161318302154541,7.165905475616455,-4.3310089111328125
1761396018015281400,4.017281494140625,5.186442852020264,7.155735969543457,-4.391427993774414
1761396018034659000,4.0366591796875,5.243870735168457,7.133004188537598,-4.3794636726379395
1761396018054037000,4.056037109375,5.269593715667725,7.100701332092285,-4.326821327209473
1761396018073415000,4.075414794921875,5.169095039367676,7.105486869812012,-4.353740692138672
1761396018092792800,4.094792724609375,5.18105936050415,7.105486869812012,-4.417748928070068
1761396018112170500,4.11417041015625,5.193621635437012,7.106683254241943,-4.339384078979492
1761396018131548400,4.13354833984375,5.120640277862549,7.143173694610596,-4.308875560760498
1761396018150926300,4.15292626953125,5.07517671585083,7.131209850311279,-4.390829563140869
1761396018170304000,4.172303955078125,4.994419097900391,7.1228346824646,-4.4135613441467285
1761396018189682000,4.191681884765625,5.0225348472595215,7.0995049476623535,-4.400400638580322
1761396018209059800,4.211059814453125,5.18105936050415,7.11984395980835,-4.411766529083252
1761396018228437800,4.230437744140625,5.264209747314453,7.1162543296813965,-4.301098823547363
1761396018247815400,4.2498154296875,5.276174068450928,7.167101860046387,-4.313661098480225
1761396018267193300,4.269193359375,5.277370452880859,7.148557662963867,-4.339982032775879
1761396018286571300,4.2885712890625,5.144568920135498,7.151548862457275,-4.34536600112915
1761396018305949200,4.30794921875,5.044668197631836,7.139584541320801,-4.325624942779541
1761396018325326800,4.327326904296875,5.108676433563232,7.141977310180664,-4.322634220123291
1761396018344704800,4.346704833984375,5.2109694480896,7.098308563232422,-4.336990833282471
1761396018364082700,4.366082763671875,5.093122959136963,7.149155616760254,-4.344169616699219
1761396018383460600,4.385460693359375,4.9776692390441895,7.1509504318237305,-4.295714855194092
1761396018402838300,4.40483837890625,5.066802024841309,7.157530784606934,-4.277768611907959
1761396018422216200,4.42421630859375,5.251049518585205,7.131807804107666,-4.3794636726379395
1761396018441594000,4.443593994140625,5.167300701141357,7.137789726257324,-4.402793884277344
1761396018460972000,4.462971923828125,5.1768717765808105,7.118647575378418,-4.314259052276611
1761396018480349700,4.482349609375,5.170889854431152,7.16231632232666,-4.256233215332031
1761396018499727600,4.5017275390625,5.13739013671875,7.180262565612793,-4.353740692138672
1761396018519105500,4.52110546875,5.067399978637695,7.179066181182861,-4.35673189163208
1761396018538483500,4.5404833984375,5.160720348358154,7.0959153175354,-4.320241451263428
1761396018557861000,4.559861083984375,5.175675392150879,7.147959232330322,-4.398606300354004
1761396018577239000,4.579239013671875,5.1840500831604,7.146164894104004,-4.412963390350342
1761396018596617000,4.598616943359375,5.123631477355957,7.17069149017334,-4.270590305328369
1761396018615995000,4.617994873046875,5.012365341186523,7.189235687255859,-4.304089546203613
1761396018635372500,4.63737255859375,5.1529436111450195,7.133004188537598,-4.405784606933594
1761396018654750500,4.65675048828125,5.242076396942139,7.101897716522217,-4.319045066833496
1761396018674128400,4.67612841796875,5.295316696166992,7.138986587524414,-4.232903480529785
1761396018693506000,4.695506103515625,5.172684192657471,7.189833641052246,-4.293920040130615
1761396018712884000,4.714884033203125,5.0638108253479,7.174280643463135,-4.380061626434326
1761396018732262000,4.734261962890625,5.157729148864746,7.1270222663879395,-4.395615100860596
1761396018751639800,4.753639892578125,5.109872817993164,7.138986587524414,-4.348955154418945
1761396018771017500,4.773017578125,4.995615482330322,7.16231632232666,-4.3208394050598145
1761396018790395400,4.7923955078125,5.098506927490234,7.179066181182861,-4.277768611907959
1761396018809773300,4.811773193359375,5.197809219360352,7.179066181182861,-4.256233215332031
1761396018829151200,4.831151123046875,5.202594757080078,7.1850481033325195,-4.296313285827637
1761396018848529000,4.85052880859375,5.221138954162598,7.140780925750732,-4.268795490264893
1761396018867906800,4.86990673828125,5.196014404296875,7.15513801574707,-4.295116424560547
1761396018887284700,4.88928466796875,5.217549800872803,7.159923553466797,-4.315455436706543
1761396018906662400,4.908662353515625,5.031507968902588,7.206583499908447,-4.324428558349609
1761396018926040300,4.928040283203125,5.0602216720581055,7.196413993835449,-4.289732933044434
1761396018945418200,4.947418212890625,5.173880577087402,7.195217609405518,-4.2346978187561035
1761396018964796200,4.966796142578125,5.179862976074219,7.206583499908447,-4.276572227478027
1761396018984173800,4.986173828125,5.207978248596191,7.173084259033203,-4.251447677612305
1761396019003551700,5.0055517578125,5.2283172607421875,7.171289443969727,-4.365106582641602
1761396019022929700,5.0249296875,5.278566837310791,7.137789726257324,-4.292723655700684
1761396019042307600,5.0443076171875,5.128417015075684,7.203592777252197,-4.214358806610107
1761396019061685200,5.063685302734375,5.059025287628174,7.190432071685791,-4.214957237243652
1761396019081063200,5.083063232421875,5.151148796081543,7.16231632232666,-4.2723846435546875
1761396019100441000,5.102441162109375,5.143372058868408,7.116852760314941,-4.303491592407227
1761396019119818800,5.12181884765625,5.088337421417236,7.133602619171143,-4.350151538848877
1761396019139196700,5.14119677734375,5.151148796081543,7.194619655609131,-4.231108665466309
1761396019158574600,5.16057470703125,5.3078789710998535,7.183851718902588,-4.173680782318115
1761396019177952500,5.179952392578125,5.233701229095459,7.187440872192383,-4.256831645965576
1761396019197330200,5.199330078125,5.148158073425293,7.1611199378967285,-4.322634220123291
1761396019216708000,5.2187080078125,4.990231513977051,7.208378314971924,-4.268795490264893
1761396019236086000,5.2380859375,5.042873859405518,7.183253765106201,-4.238885402679443
1761396019255464000,5.2574638671875,5.185844898223877,7.208378314971924,-4.238286972045898
1761396019274841600,5.276841552734375,5.25762939453125,7.179066181182861,-4.207778453826904
1761396019294219500,5.296219482421875,5.25045108795166,7.237092018127441,-4.195216178894043
1761396019313597400,5.315597412109375,5.193023204803467,7.210771083831787,-4.240679740905762
1761396019332975000,5.33497509765625,5.074578762054443,7.219145774841309,-4.271786689758301
1761396019352353000,5.35435302734375,5.073382377624512,7.195217609405518,-4.249054908752441
1761396019371731000,5.37373095703125,5.224130153656006,7.198208808898926,-4.240081787109375
1761396019391108900,5.39310888671875,5.3078789710998535,7.174280643463135,-4.2209391593933105
1761396019410486500,5.412486572265625,5.14157772064209,7.221538543701172,-4.228715896606445
1761396019429864400,5.431864501953125,5.105685234069824,7.201199531555176,-4.235894203186035
1761396019449242400,5.451242431640625,5.1667022705078125,7.2059855461120605,-4.257429599761963
1761396019468620300,5.470620361328125,5.1188459396362305,7.1856465339660645,-4.165306091308594
1761396019487998000,5.489998046875,5.121238708496094,7.191628456115723,-4.201198577880859
1761396019507375900,5.5093759765625,5.152345180511475,7.179066181182861,-4.250251293182373
1761396019526753800,5.52875390625,5.1188459396362305,7.201199531555176,-4.253840446472168
1761396019546131500,5.54813134765625,5.061418056488037,7.200003147125244,-4.231706619262695
1761396019565509400,5.56750927734375,5.154737949371338,7.17786979675293,-4.275375843048096
1761396019584887300,5.58688720703125,5.258825778961182,7.174280643463135,-4.2831525802612305
1761396019604265200,5.60626513671875,5.216951370239258,7.210172653198242,-4.2550368309021
1761396019623643000,5.625642822265625,5.194219589233398,7.1886372566223145,-4.250251293182373
1761396019643020800,5.645020751953125,5.216951370239258,7.204190731048584,-4.274777889251709
1761396019662398700,5.664398681640625,5.237290382385254,7.186244487762451,-4.215555191040039
1761396019681776600,5.683776611328125,5.183452129364014,7.194619655609131,-4.238286972045898
1761396019701154300,5.703154296875,5.159523963928223,7.190432071685791,-4.226323127746582
1761396019720532200,5.7225322265625,5.161916732788086,7.215556621551514,-4.166502475738525
1761396019739910100,5.74191015625,5.020740032196045,7.246065139770508,-4.164707660675049
1761396019759287800,5.761287841796875,4.906482696533203,7.237690448760986,-4.23649263381958
1761396019778665700,5.780665771484375,5.102096080780029,7.187440872192383,-4.227519512176514
1761396019798043600,5.800043701171875,5.2941203117370605,7.174280643463135,-4.229313850402832
1761396019817421600,5.819421630859375,5.294718265533447,7.198208808898926,-4.267599105834961
1761396019836799200,5.83879931640625,5.14576530456543,7.238288402557373,-4.213162422180176
1761396019856177200,5.85817724609375,5.050052165985107,7.21316385269165,-4.151547431945801
1761396019875555000,5.87755517578125,5.099703311920166,7.189833641052246,-4.238286972045898
1761396019894933000,5.89693310546875,5.182853698730469,7.178467750549316,-4.3788652420043945
1761396019914310700,5.916310546875,5.248656272888184,7.165307521820068,-4.3310089111328125
1761396019933688600,5.9356884765625,5.136792182922363,7.194619655609131,-4.244269371032715
1761396019953066500,5.95506640625,5.074578762054443,7.201199531555176,-4.194618225097656
1761396019972444200,5.974444091796875,5.19541597366333,7.176673412322998,-4.2556352615356445
1761396019991822000,5.993822021484375,5.2977094650268555,7.164709091186523,-4.277170658111572
1761396020011200000,6.013199951171875,5.163113117218018,7.187440872192383,-4.267001152038574
1761396020030578000,6.032577880859375,5.056034088134766,7.22034215927124,-4.23649263381958
1761396020049955600,6.05195556640625,5.0811591148376465,7.23170804977417,-4.155136585235596
1761396020069333500,6.07133349609375,5.1182475090026855,7.255038261413574,-4.156930923461914
1761396020088711400,6.09071142578125,5.205585479736328,7.238288402557373,-4.219144344329834
1761396020108089000,6.110089111328125,5.274379253387451,7.202994346618652,-4.285545349121094
1761396020127467000,6.129467041015625,5.200201988220215,7.187440872192383,-4.252644062042236
1761396020146845000,6.148844970703125,5.111069202423096,7.225128173828125,-4.250251293182373
1761396020166222800,6.168222900390625,5.125426292419434,7.240681171417236,-4.196412563323975
1761396020185600500,6.1876005859375,5.1774702072143555,7.2095746994018555,-4.17726993560791
1761396020204978400,6.206978515625,5.170291423797607,7.190432071685791,-4.198805332183838
1761396020224356400,6.2263564453125,5.095515727996826,7.157530784606934,-4.286143779754639
1761396020243734000,6.245734130859375,5.144568920135498,7.149155616760254,-4.353740692138672
1761396020263112000,6.26511181640625,5.1529436111450195,7.15513801574707,-4.320241451263428
1761396020282489900,6.28448974609375,5.078167915344238,7.1718878746032715,-4.284946918487549
1761396020301867800,6.30386767578125,5.085346221923828,7.214360237121582,-4.2454657554626465
1761396020321245400,6.323245361328125,5.1320061683654785,7.196413993835449,-4.216751575469971
1761396020340623400,6.342623291015625,5.120042324066162,7.18086051940918,-4.2454657554626465
1761396020360001300,6.362001220703125,5.142175674438477,7.163512706756592,-4.290929317474365
1761396020379379200,6.381379150390625,5.162514686584473,7.159923553466797,-4.319045066833496
1761396020398756900,6.4007568359375,5.19541597366333,7.193423271179199,-4.346562385559082
1761396020418134800,6.420134765625,5.161916732788086,7.218547821044922,-4.292723655700684
1761396020437512700,6.4395126953125,5.103890895843506,7.258029460906982,-4.194019794464111
1761396020456890400,6.458890380859375,5.143372058868408,7.239484786987305,-4.190430641174316
1761396020476268300,6.478268310546875,5.200201988220215,7.218547821044922,-4.310669898986816
1761396020495646200,6.497646240234375,5.236692428588867,7.152745246887207,-4.30588436126709
1761396020515024100,6.517024169921875,5.133800983428955,7.141977310180664,-4.322634220123291
1761396020534401800,6.53640185546875,5.007579803466797,7.162914752960205,-4.286143779754639
1761396020553779700,6.55577978515625,5.017749309539795,7.190432071685791,-4.266402721405029
1761396020573157600,6.57515771484375,5.173880577087402,7.176673412322998,-4.281956195831299
1761396020592535600,6.59453564453125,5.208576679229736,7.191030025482178,-4.268795490264893
1761396020611913200,6.613913330078125,5.0907301902771,7.214360237121582,-4.2000017166137695
1761396020631291100,6.633291015625,5.064409255981445,7.24008321762085,-4.177868366241455
1761396020650669000,6.6526689453125,5.175675392150879,7.245467185974121,-4.219144344329834
1761396020670046700,6.672046630859375,5.256433010101318,7.198208808898926,-4.254438877105713
1761396020689424600,6.691424560546875,5.1667022705078125,7.17786979675293,-4.261018753051758
1761396020708802600,6.710802490234375,5.07218599319458,7.172485828399658,-4.263411521911621
1761396020728180500,6.730180419921875,5.090131759643555,7.192824840545654,-4.264608383178711
1761396020747558100,6.74955810546875,5.121238708496094,7.238288402557373,-4.233501434326172
1761396020766936000,6.76893603515625,5.088337421417236,7.246663570404053,-4.204189300537109
1761396020786314000,6.78831396484375,5.123631477355957,7.204789161682129,-4.259822368621826
1761396020805691600,6.807691650390625,5.18105936050415,7.1958160400390625,-4.299902439117432
1761396020825069600,6.827069580078125,5.2109694480896,7.197610378265381,-4.22512674331665
1761396020844447500,6.846447509765625,5.251647472381592,7.2059855461120605,-4.17009162902832
1761396020863825400,6.865825439453125,5.187041282653809,7.203592777252197,-4.229912281036377
1761396020883203000,6.885203125,5.149952411651611,7.203592777252197,-4.264608383178711
1761396020902581000,6.9045810546875,5.124827861785889,7.183253765106201,-4.196412563323975
1761396020921959000,6.923958984375,5.066203594207764,7.21316385269165,-4.227519512176514
1761396020941336600,6.943336669921875,5.114060401916504,7.194619655609131,-4.277768611907959
1761396020960714500,6.962714599609375,5.159523963928223,7.180262565612793,-4.244269371032715
1761396020980092400,6.982092529296875,5.112864017486572,7.178467750549316,-4.205984115600586
1761396020999470300,7.00147021484375,5.144568920135498,7.219145774841309,-4.213162422180176
1761396021018848000,7.020847900390625,5.175675392150879,7.262216567993164,-4.190430641174316
1761396021038226000,7.040225830078125,5.1565327644348145,7.255038261413574,-4.243072986602783
1761396021057603800,7.059603759765625,5.0638108253479,7.225128173828125,-4.334000110626221
1761396021076981500,7.0789814453125,5.105685234069824,7.180262565612793,-4.332803726196289
1761396021096359400,7.098359375,5.241477966308594,7.17069149017334,-4.286741733551025
1761396021115737300,7.1177373046875,5.314459323883057,7.179066181182861,-4.261617183685303
1761396021135115300,7.137115234375,5.234897613525391,7.1886372566223145,-4.225724697113037
1761396021154493000,7.156492919921875,5.075775146484375,7.207181930541992,-4.2209391593933105
1761396021173870800,7.175870849609375,5.100899696350098,7.2059855461120605,-4.203591346740723
1761396021193248800,7.195248779296875,5.110470771789551,7.191628456115723,-4.205984115600586
1761396021212626700,7.214626708984375,5.055436134338379,7.195217609405518,-4.278964996337891
1761396021232004400,7.23400439453125,5.097310543060303,7.173084259033203,-4.283750534057617
1761396021251382300,7.25338232421875,5.0566325187683105,7.1611199378967285,-4.238885402679443
1761396021270760200,7.27276025390625,5.12602424621582,7.207181930541992,-4.220340728759766
1761396021290137900,7.292137939453125,5.200201988220215,7.207181930541992,-4.191627025604248
1761396021309515800,7.311515869140625,5.079962253570557,7.244270324707031,-4.2693939208984375
1761396021328893700,7.330893798828125,5.069194793701172,7.232306480407715,-4.277768611907959
1761396021348271400,7.350271240234375,5.231308460235596,7.216155052185059,-4.233501434326172
1761396021367649300,7.369649169921875,5.2941203117370605,7.180262565612793,-4.225724697113037
1761396021387027200,7.389027099609375,5.208576679229736,7.206583499908447,-4.34536600112915
1761396021406405000,7.408405029296875,5.054837703704834,7.241877555847168,-4.307679176330566
1761396021425782800,7.42778271484375,5.045266628265381,7.202396392822266,-4.205385684967041
1761396021445160700,7.44716064453125,5.1667022705078125,7.1886372566223145,-4.228715896606445
1761396021464538600,7.46653857421875,5.247459888458252,7.175477027893066,-4.2723846435546875
1761396021483916500,7.48591650390625,5.161916732788086,7.175477027893066,-4.280161380767822
1761396021503294200,7.505294189453125,5.040481090545654,7.197610378265381,-4.2723846435546875
1761396021522672000,7.524672119140625,5.0949177742004395,7.202994346618652,-4.2693939208984375
1761396021542050000,7.544050048828125,5.207380294799805,7.201199531555176,-4.189234256744385
1761396021561427700,7.563427734375,5.072783946990967,7.22034215927124,-4.145565032958984
1761396021580805600,7.5828056640625,5.036891460418701,7.225128173828125,-4.241278171539307
1761396021600183600,7.60218359375,5.157131195068359,7.194619655609131,-4.311866283416748
1761396021619561500,7.6215615234375,5.25045108795166,7.198208808898926,-4.278367042541504
1761396021638939100,7.640939208984375,5.215754985809326,7.192226886749268,-4.202394962310791
1761396021658317000,7.660317138671875,5.093122959136963,7.229913711547852,-4.208376884460449
1761396021677695000,7.679695068359375,5.074578762054443,7.211967468261719,-4.226921081542969
1761396021697072600,7.69907275390625,5.154737949371338,7.214958667755127,-4.2693939208984375
1761396021716450600,7.718450439453125,5.19541597366333,7.189833641052246,-4.257429599761963
1761396021735828500,7.737828369140625,5.124827861785889,7.1958160400390625,-4.298107624053955
1761396021755206100,7.7572060546875,5.0566325187683105,7.204789161682129,-4.274179458618164
1761396021774584000,7.776583984375,5.100899696350098,7.186842918395996,-4.231706619262695
1761396021793962000,7.7959619140625,5.163711071014404,7.179066181182861,-4.292723655700684
1761396021813340000,7.81533984375,5.222933769226074,7.1958160400390625,-4.319045066833496
1761396021832717600,7.834717529296875,5.256433010101318,7.206583499908447,-4.2000017166137695
1761396021852095500,7.854095458984375,5.262415409088135,7.239484786987305,-4.174877166748047
1761396021871473400,7.873473388671875,5.252843856811523,7.240681171417236,-4.217947959899902
1761396021890851300,7.892851318359375,5.130809783935547,7.232306480407715,-4.2346978187561035
1761396021910229000,7.91222900390625,4.986642360687256,7.208378314971924,-4.229313850402832
1761396021929607000,7.93160693359375,4.968696117401123,7.1748785972595215,-4.24367094039917
1761396021948984800,7.95098486328125,5.074578762054443,7.171289443969727,-4.246662139892578
1761396021968362500,7.970362548828125,5.1188459396362305,7.190432071685791,-4.222733974456787
1761396021987740400,7.989740478515625,5.121238708496094,7.214360237121582,-4.286143779754639
1761396022007118300,8.009118408203125,5.1080780029296875,7.216753005981445,-4.295714855194092
1761396022026496000,8.02849609375,5.18105936050415,7.197610378265381,-4.2346978187561035
1761396022045874000,8.0478740234375,5.260022163391113,7.187440872192383,-4.247260093688965
1761396022065251800,8.067251953125,5.221138954162598,7.174280643463135,-4.2795634269714355
1761396022084629800,8.086629638671875,5.1774702072143555,7.207779884338379,-4.286741733551025
1761396022104007400,8.10600732421875,5.18105936050415,7.214360237121582,-4.250251293182373
1761396022123385300,8.12538525390625,5.1152567863464355,7.223931789398193,-4.243072986602783
1761396022142763300,8.14476318359375,5.036891460418701,7.223333358764648,-4.179064750671387
1761396022162141000,8.164140869140626,5.043471813201904,7.223333358764648,-4.146761417388916
1761396022181518800,8.183518798828125,5.1218366622924805,7.226324558258057,-4.188037872314453
1761396022200896800,8.202896728515626,5.172684192657471,7.1958160400390625,-4.23230504989624
1761396022220274700,8.222274658203125,5.216353416442871,7.164709091186523,-4.22512674331665
1761396022239652400,8.24165234375,5.18105936050415,7.182655334472656,-4.213162422180176
1761396022259030300,8.2610302734375,5.199005603790283,7.219145774841309,-4.195216178894043
1761396022278408200,8.280408203125,5.153541564941406,7.22871732711792,-4.204787731170654
1761396022297785900,8.299785888671876,5.0943193435668945,7.2335028648376465,-4.218546390533447
1761396022317163800,8.319163818359375,5.100899696350098,7.21316385269165,-4.2622151374816895
1761396022336541700,8.338541748046875,5.204987525939941,7.194619655609131,-4.326223373413086
1761396022355919600,8.357919677734374,5.309673309326172,7.1958160400390625,-4.278367042541504
1761396022375297300,8.37729736328125,5.368896007537842,7.204190731048584,-4.238885402679443
1761396022394675200,8.39667529296875,5.282754421234131,7.211369037628174,-4.237689018249512
1761396022414053000,8.41605322265625,5.071587562561035,7.231110095977783,-4.208376884460449
1761396022433430800,8.4354306640625,4.952544689178467,7.244868755340576,-4.205385684967041
1761396022452808700,8.45480859375,5.062016487121582,7.211967468261719,-4.183850288391113
1761396022472186600,8.4741865234375,5.2767720222473145,7.197012424468994,-4.171288013458252
1761396022491564300,8.493564208984376,5.286343574523926,7.207779884338379,-4.143770694732666
1761396022510942200,8.512942138671875,5.131408214569092,7.238288402557373,-4.1491546630859375
1761396022530320100,8.532320068359375,4.990829944610596,7.254439830780029,-4.165306091308594
1761396022549698000,8.551697998046874,5.039882659912109,7.232904434204102,-4.152743816375732
1761396022569075700,8.57107568359375,5.133800983428955,7.258029460906982,-4.121636867523193
1761396022588453600,8.59045361328125,5.157729148864746,7.27956485748291,-4.122833251953125
1761396022607831600,8.60983154296875,5.179264545440674,7.264609336853027,-4.156930923461914
1761396022627209200,8.629209228515625,5.151747226715088,7.239484786987305,-4.18145751953125
1761396022646587100,8.648587158203124,5.096114158630371,7.219145774841309,-4.201796531677246
1761396022665965000,8.667965087890625,5.06082010269165,7.2335028648376465,-4.23649263381958
1761396022685342700,8.6873427734375,5.148158073425293,7.2681989669799805,-4.2933220863342285
1761396022704720600,8.706720703125,5.265406131744385,7.271788120269775,-4.205385684967041
1761396022724098600,8.7260986328125,5.216353416442871,7.245467185974121,-4.141377925872803
1761396022743476500,8.7454765625,5.1152567863464355,7.221538543701172,-4.23230504989624
1761396022762854100,8.764854248046875,5.145166873931885,7.221538543701172,-4.3310089111328125
1761396022782232000,8.784232177734374,5.053641319274902,7.245467185974121,-4.23230504989624
1761396022801610000,8.80360986328125,5.055436134338379,7.27537727355957,-4.063611030578613
1761396022820987600,8.822987548828126,5.181657314300537,7.262814998626709,-4.096512317657471
1761396022840365600,8.842365478515624,5.183452129364014,7.191030025482178,-4.2454657554626465
1761396022859743500,8.861743408203125,5.0638108253479,7.183253765106201,-4.183850288391113
1761396022879121200,8.88112109375,5.203192710876465,7.27956485748291,-4.052245140075684
1761396022898499000,8.9004990234375,5.397609710693359,7.271788120269775,-4.193421840667725
1761396022917877000,8.919876953125,5.105685234069824,7.248457908630371,-3.9523448944091797
1761396022937255000,8.9392548828125,5.135595798492432,7.3022966384887695,-4.208376884460449
1761396022956632600,8.958632568359375,5.341976642608643,7.164709091186523,-4.2209391593933105
1761396022976010500,8.978010498046874,5.227719306945801,7.202994346618652,-4.207180500030518
1761396022995388400,8.997388427734375,5.020142078399658,7.269395351409912,-4.351347923278809
1761396023014766300,9.016766357421876,4.715056896209717,7.276573657989502,-4.281357765197754
1761396023034144000,9.03614404296875,4.625326156616211,7.157530784606934,-4.3483567237854
1761396023053522000,9.05552197265625,4.801796913146973,7.159325122833252,-4.329812526702881
1761396023072899600,9.074899658203124,5.269593715667725,7.2951178550720215,-3.8979079723358154
1761396023092277500,9.094277587890625,5.776872158050537,7.258029460906982,-3.8668015003204346
1761396023111655400,9.113655517578126,5.454439163208008,7.2574310302734375,-3.94097900390625
1761396023131033300,9.133033447265625,5.1804609298706055,7.296912670135498,-4.241278171539307
1761396023150411000,9.152410888671875,4.992624282836914,7.190432071685791,-4.240081787109375
1761396023169789000,9.171788818359374,5.055436134338379,7.204190731048584,-4.355535507202148
1761396023189166800,9.191166748046875,5.244469165802002,7.181458950042725,-4.209573268890381
1761396023208544800,9.210544677734376,5.330012321472168,7.203592777252197,-3.9589250087738037
1761396023227922400,9.22992236328125,5.426323413848877,7.221538543701172,-3.99900484085083
1761396023247300400,9.24930029296875,5.167300701141357,7.131209850311279,-4.244269371032715
1761396023266678000,9.268677978515624,4.965705394744873,7.029514789581299,-4.503292083740234
1761396023286056000,9.288055908203125,4.911866664886475,7.051648139953613,-4.449453830718994
1761396023305433900,9.307433837890626,5.615954875946045,6.9104719161987305,-4.34955358505249
1761396023324811800,9.326811767578125,5.894120216369629,6.952346324920654,-4.363312244415283
1761396023344189400,9.346189453125,5.044070243835449,7.110272407531738,-4.417150497436523
1761396023363567400,9.3655673828125,4.963312149047852,6.977470874786377,-4.171886444091797
1761396023382945300,9.3849453125,5.512465000152588,6.937989234924316,-4.270590305328369
1761396023402323200,9.4043232421875,5.790032386779785,6.8865437507629395,-4.216153621673584
1761396023421700900,9.423700927734375,5.904289722442627,6.8141608238220215,-4.222733974456787
1761396023441078800,9.443078857421876,6.166304111480713,6.732206344604492,-4.483551502227783
