time,seconds_elapsed,z,y,x
1761396721205934600,0.2579345703125,-1.4119577407836914,-0.8967742919921875,0.27743804454803467
1761396721225312000,0.27731201171875,-0.22392034530639648,-1.1318812370300293,0.5575411319732666
1761396721244689200,0.296689208984375,0.3116326332092285,-1.686678409576416,1.389635443687439
1761396721264066300,0.31606640625,0.8956437110900879,-2.406704902648926,2.1032564640045166
1761396721302820600,0.354820556640625,-1.8248605728149414,-3.397806167602539,0.8307197093963623
1761396721322197800,0.37419775390625,-2.922684669494629,-2.808541774749756,-0.12824678421020508
1761396721341561300,0.393561279296875,-3.850459098815918,-2.0490164756774902,-0.5180850028991699
1761396721360952000,0.4129521484375,-3.077662467956543,-1.3592071533203125,-0.8807892799377441
1761396721380329200,0.4323291015625,0.8145508766174316,-0.35274457931518555,-0.5782408714294434
1761396721399693000,0.451693115234375,5.505347728729248,2.579768180847168,-0.5810325145721436
1761396721419083800,0.471083740234375,8.247601509094238,3.7418041229248047,1.6111234426498413
1761396721438461000,0.4904609375,6.91641902923584,3.217142105102539,1.2224353551864624
1761396721457824500,0.509824462890625,3.091273307800293,5.242781162261963,-1.612661600112915
1761396721477215200,0.52921533203125,1.9749383926391602,6.839003086090088,-2.5108089447021484
1761396721496592400,0.54859228515625,5.7726545333862305,5.524298667907715,-1.035277009010315
1761396721515956200,0.567956298828125,7.611791610717773,4.452311038970947,0.9217795133590698
1761396721535347000,0.587346923828125,4.62107515335083,3.614596366882324,1.0689163208007812
1761396721554724000,0.60672412109375,1.8981513977050781,2.0728912353515625,1.3562437295913696
1761396721574087700,0.626087646484375,0.35811471939086914,-0.4850139617919922,2.9714343547821045
1761396721593478400,0.645478515625,-1.7608823776245117,-2.87445068359375,3.0647547245025635
1761396721612855600,0.66485546875,-2.380249500274658,-4.114563465118408,-0.27716386318206787
1761396721632219100,0.68421923828125,-2.59952974319458,-4.894484043121338,-1.9354523420333862
1761396721651609900,0.70360986328125,-2.919027328491211,-4.879720211029053,-0.291917085647583
1761396721670987000,0.722987060546875,-2.4139251708984375,-5.461673736572266,0.49608516693115234
1761396721690350800,0.742350830078125,-3.5428972244262695,-5.527198791503906,0.29337307810783386
1761396721709741600,0.761741455078125,-5.142645359039307,-5.110190391540527,0.40173208713531494
1761396721729118700,0.78111865234375,-7.62131929397583,-6.1449103355407715,2.01092267036438
1761396721748482300,0.800482421875,-10.007007598876953,-6.951513290405273,1.615859866142273
1761396721767873000,0.819873046875,-10.574233055114746,-6.180109024047852,0.07580545544624329
1761396721787250200,0.839250244140625,-12.18057918548584,-4.940695285797119,-2.5394287109375
1761396721806614000,0.858614013671875,-13.197174072265625,-3.5565130710601807,-3.3940377235412598
1761396721826004500,0.87800439453125,-7.641479015350342,-2.1025476455688477,-0.08585184812545776
1761396721845382000,0.8973818359375,7.277924537658691,2.0837931632995605,-2.1843204498291016
1761396721864745500,0.916745361328125,15.039106369018555,3.8663101196289062,3.031568765640259
1761396721884136200,0.93613623046875,23.548187255859375,2.746131420135498,11.741254806518555
1761396721903513300,0.955513427734375,29.04763412475586,2.1805577278137207,12.16879940032959
1761396721922877000,0.974876953125,25.18879508972168,3.271949291229248,3.854612350463867
1761396721942267600,0.994267578125,16.66379737854004,3.55031681060791,-0.30170464515686035
1761396721961644800,1.013644775390625,8.003857612609863,3.2113332748413086,-1.0456905364990234
1761396721981008600,1.033008544921875,1.248769760131836,2.241971969604492,-0.6099259853363037
1761396722000399000,1.052399169921875,-3.0609078407287598,0.4761471748352051,1.1696362495422363
1761396722019776500,1.071776611328125,-5.420042037963867,-1.1338324546813965,1.0627686977386475
1761396722039140000,1.09114013671875,-8.102288246154785,-3.0048179626464844,0.27547478675842285
1761396722058530800,1.11053076171875,-9.941129684448242,-3.7866220474243164,-2.1152901649475098
1761396722077908000,1.129907958984375,-10.812763214111328,-4.837207317352295,-3.0712525844573975
1761396722097271600,1.149271484375,-12.617279052734375,-6.138197422027588,-2.9353787899017334
1761396722116662300,1.168662353515625,-14.870210647583008,-6.5170698165893555,-4.2657790184021
1761396722136039400,1.188039306640625,-15.078001022338867,-5.863682746887207,-4.09010648727417
1761396722155403300,1.2074033203125,-15.082690238952637,-5.7147979736328125,-4.325296401977539
1761396722174793700,1.226793701171875,-13.85622787475586,-5.529672622680664,-4.288983345031738
1761396722194171100,1.246171142578125,-11.263211250305176,-3.9909043312072754,-3.017571210861206
1761396722213534700,1.26553466796875,-7.299069404602051,1.7071666717529297,-5.558042526245117
1761396722232925400,1.284925537109375,5.409388065338135,8.29236125946045,-7.298705577850342
1761396722252302600,1.304302490234375,33.973533630371094,7.684175968170166,11.926935195922852
1761396722271666200,1.323666259765625,42.103641510009766,0.7053189277648926,31.69839096069336
1761396722291057000,1.343056884765625,22.014629364013672,4.274074554443359,19.400226593017578
1761396722310434000,1.36243408203125,8.648770332336426,3.892110824584961,8.185099601745605
1761396722329798000,1.3817978515625,4.775052547454834,2.1691102981567383,2.1069672107696533
1761396722349188600,1.401188720703125,0.6220078468322754,1.267035961151123,-1.7463915348052979
1761396722368565800,1.420565673828125,-2.7157187461853027,-0.00812530517578125,-2.708289861679077
1761396722387929300,1.439929443359375,-5.52086877822876,-1.9778969287872314,-2.2982864379882812
1761396722407320000,1.459320068359375,-7.264430046081543,-3.572794198989868,-1.4614007472991943
1761396722426697200,1.478697265625,-7.487670421600342,-4.663078308105469,-0.6645550727844238
1761396722446061000,1.49806103515625,-7.593296527862549,-5.217441082000732,-1.086681842803955
1761396722465451800,1.51745166015625,-9.14578914642334,-5.7772698402404785,-2.3059380054473877
1761396722484829000,1.536828857421875,-10.822248458862305,-6.127706050872803,-4.004032135009766
1761396722504192500,1.556192626953125,-12.333892822265625,-6.081130027770996,-5.473325729370117
1761396722523583200,1.575583251953125,-13.397146224975586,-6.238223552703857,-6.150460243225098
1761396722542960400,1.59496044921875,-13.412330627441406,-5.844982624053955,-5.531500816345215
1761396722562324000,1.614323974609375,-12.481409072875977,-5.141570091247559,-2.9750895500183105
1761396722581714700,1.633714599609375,-9.91148853302002,-2.734684467315674,-1.7290143966674805
1761396722601091800,1.653091796875,-3.190612316131592,1.6834349632263184,-1.4853631258010864
1761396722620455700,1.67245556640625,17.689802169799805,7.522739887237549,-1.209730863571167
1761396722639846400,1.691846435546875,33.12429428100586,4.087577819824219,9.012289047241211
1761396722659223600,1.7112236328125,30.38759422302246,4.554037094116211,11.003085136413574
1761396722678587100,1.730587158203125,16.70855712890625,5.506272792816162,7.405006408691406
1761396722697977900,1.749977783203125,10.712782859802246,6.306998252868652,3.4910244941711426
1761396722717355000,1.76935498046875,6.386160850524902,5.115197658538818,-1.3269588947296143
1761396722736718800,1.78871875,4.082210063934326,2.2505359649658203,-2.8626456260681152
1761396722756109300,1.808109375,5.0533976554870605,-1.1362266540527344,1.5036697387695312
1761396722775486700,1.82748681640625,2.010528564453125,-2.5532655715942383,2.0439460277557373
1761396722794850300,1.846850341796875,-4.341989517211914,-3.908095359802246,-0.00531458854675293
1761396722814241000,1.866240966796875,-7.4647064208984375,-5.214597225189209,-0.5913877487182617
1761396722833618200,1.8856181640625,-8.688952445983887,-5.86384391784668,-0.5604541301727295
1761396722852981800,1.904981689453125,-9.273905754089355,-6.495560646057129,-0.7470753192901611
1761396722872372500,1.92437255859375,-10.488414764404297,-7.316373825073242,-1.6454336643218994
1761396722891749600,1.94374951171875,-11.839397430419922,-7.876036167144775,-2.684908390045166
1761396722911113500,1.963113525390625,-11.896220207214355,-7.890378952026367,-3.585062026977539
1761396722930504200,1.982504150390625,-10.337751388549805,-7.1229400634765625,-3.8363962173461914
1761396722949881300,2.00188134765625,-7.397497177124023,-5.8906426429748535,-2.5086913108825684
1761396722969245000,2.021244873046875,-2.3402891159057617,-3.4077401161193848,0.2552180290222168
1761396722988635600,2.0406357421875,5.960872650146484,0.3527235984802246,1.1564087867736816
1761396723008012800,2.0600126953125,13.041115760803223,3.0359244346618652,1.549814224243164
1761396723027376600,2.079376708984375,14.04007625579834,5.718478202819824,4.774309158325195
1761396723046767000,2.09876708984375,13.340877532958984,6.69974422454834,8.972908020019531
1761396723066144300,2.118144287109375,13.357177734375,5.81666898727417,9.623737335205078
1761396723085508000,2.137508056640625,10.531925201416016,4.3807573318481445,6.057509422302246
1761396723104898800,2.15689892578125,6.046426773071289,3.6450319290161133,1.932051420211792
1761396723124276000,2.17627587890625,2.8441452980041504,2.9783883094787598,-0.19201421737670898
1761396723143639600,2.1956396484375,0.6831297874450684,1.7665185928344727,-1.0284267663955688
1761396723163030300,2.2150302734375,-1.335181713104248,0.007430553436279297,-0.6014796495437622
1761396723182407400,2.234407470703125,-3.495894432067871,-2.002438545227051,-0.16084718704223633
1761396723201771300,2.253771240234375,-5.191320419311523,-3.906310558319092,-0.2801162004470825
1761396723221161700,2.27316162109375,-6.592015266418457,-5.4183454513549805,-0.3492884635925293
1761396723240539100,2.2925390625,-7.683539867401123,-6.321882247924805,-0.5516084432601929
1761396723259902700,2.31190283203125,-8.82818603515625,-6.49827241897583,-1.7895344495773315
1761396723279293400,2.33129345703125,-10.100722312927246,-6.942564010620117,-3.2467851638793945
1761396723298670600,2.350670654296875,-11.062265396118164,-6.964762210845947,-4.361696243286133
1761396723318047700,2.3700478515625,-11.365755081176758,-6.325681686401367,-3.3073930740356445
1761396723337425000,2.3894248046875,-9.040690422058105,-5.182744026184082,-1.6140941381454468
1761396723356802000,2.408802001953125,-6.585502624511719,-1.6088237762451172,-3.006247043609619
1761396723376166000,2.428165771484375,-4.367925643920898,5.0016374588012695,-3.8070764541625977
1761396723395556600,2.447556640625,9.075929641723633,9.421804428100586,1.7089428901672363
1761396723414933800,2.466933837890625,27.643272399902344,7.325805187225342,12.927282333374023
1761396723434297300,2.48629736328125,31.304332733154297,6.3833699226379395,15.878451347351074
1761396723453688000,2.50568798828125,23.81467056274414,5.036466121673584,13.05108642578125
1761396723473065200,2.525065185546875,14.497419357299805,3.0223398208618164,8.896358489990234
1761396723492429000,2.544428955078125,4.900815010070801,0.9680747985839844,3.8795433044433594
1761396723511819500,2.563819580078125,-2.077643394470215,-0.620335578918457,0.5284585952758789
1761396723531197000,2.583197021484375,-7.072897911071777,-2.46181058883667,-1.2895138263702393
1761396723550560500,2.602560546875,-10.12866497039795,-4.70585298538208,-1.8273546695709229
1761396723569951200,2.621951171875,-12.531277656555176,-6.593984127044678,-1.295285940170288
1761396723589328400,2.641328369140625,-14.268306732177734,-7.685673713684082,-1.8901143074035645
1761396723608692000,2.66069189453125,-14.845364570617676,-8.234413146972656,-2.9871296882629395
1761396723628082700,2.680082763671875,-14.455183029174805,-8.530834197998047,-4.27191162109375
1761396723647459800,2.6994599609375,-12.984004020690918,-8.757375717163086,-5.103208541870117
1761396723666823700,2.71882373046875,-10.212472915649414,-8.389473915100098,-5.431285858154297
1761396723686214100,2.738214111328125,-7.960048198699951,-7.875788688659668,-4.717075347900391
1761396723705591600,2.757591552734375,-5.932590484619141,-5.972169876098633,-4.236715316772461
1761396723724955100,2.776955078125,-2.9696478843688965,-2.3761959075927734,-2.6205286979675293
1761396723744345900,2.796345947265625,5.567427635192871,3.385787010192871,-1.8616275787353516
1761396723763723000,2.815722900390625,16.326881408691406,7.395954608917236,4.787936687469482
1761396723783086600,2.835086669921875,24.174121856689453,8.08350944519043,13.223479270935059
1761396723802477300,2.854477294921875,24.257553100585938,6.021681308746338,19.62954330444336
1761396723821854500,2.8738544921875,19.326908111572266,4.585596561431885,15.67133903503418
1761396723841218300,2.89321826171875,12.30050277709961,3.1491098403930664,7.162868976593018
1761396723860609000,2.912609130859375,6.684170722961426,2.2641725540161133,0.6834321022033691
1761396723879986200,2.931986083984375,3.951500415802002,1.8376059532165527,-2.4240267276763916
1761396723899349800,2.951349853515625,1.234492301940918,0.43592214584350586,-1.2974989414215088
1761396723918740500,2.970740478515625,-3.5152838230133057,-1.4213948249816895,-1.0081098079681396
1761396723938117600,2.99011767578125,-8.607659339904785,-2.6552305221557617,-2.4319117069244385
1761396723957481500,3.0094814453125,-12.219558715820312,-3.82186222076416,-3.6672487258911133
1761396723976872200,3.0288720703125,-14.604607582092285,-4.406760215759277,-4.94303560256958
1761396723996249300,3.048249267578125,-15.89427375793457,-4.638977527618408,-5.996127128601074
1761396724015613000,3.067613037109375,-15.608461380004883,-4.650985240936279,-6.635934829711914
1761396724035003600,3.087003662109375,-13.088113784790039,-4.717734336853027,-6.868993282318115
1761396724054380800,3.106380859375,-9.576757431030273,-4.822256565093994,-6.21310567855835
1761396724073744600,3.12574462890625,-7.050022602081299,-4.1756911277771,-4.873195648193359
1761396724093135000,3.145135009765625,-4.840491771697998,-2.3674209117889404,-2.8070507049560547
1761396724112512500,3.164512451171875,2.515895366668701,0.5584135055541992,-0.006446361541748047
1761396724131876000,3.1838759765625,13.46127700805664,4.764283180236816,4.705036640167236
1761396724151266800,3.203266845703125,21.69196891784668,7.873027801513672,7.949079513549805
1761396724170644000,3.22264404296875,30.924938201904297,8.360200881958008,13.172203063964844
1761396724190007600,3.242007568359375,31.126419067382812,5.882260799407959,18.109477996826172
1761396724209398300,3.261398193359375,16.76043701171875,5.063416004180908,15.090577125549316
1761396724228775400,3.280775390625,4.998593807220459,3.7191567420959473,10.470963478088379
1761396724248139300,3.30013916015625,0.5092401504516602,1.366990089416504,5.649783611297607
1761396724267530000,3.319530029296875,-0.8808326721191406,-1.2818012237548828,1.4887871742248535
1761396724286907100,3.3389072265625,-4.899550914764404,-3.7189385890960693,-0.5220327377319336
1761396724306270700,3.358270751953125,-7.873992919921875,-6.238534927368164,-0.2768893241882324
1761396724325661400,3.377661376953125,-9.224150657653809,-8.796891212463379,-0.5353841781616211
1761396724345038600,3.39703857421875,-9.774550437927246,-10.82429313659668,-1.4065064191818237
1761396724364402200,3.416402099609375,-10.407981872558594,-11.809972763061523,-2.619288921356201
1761396724383793000,3.43579296875,-11.166290283203125,-11.761932373046875,-4.261880874633789
1761396724403170000,3.455170166015625,-11.705551147460938,-10.904813766479492,-6.060741424560547
1761396724422534000,3.474533935546875,-12.124678611755371,-9.730497360229492,-6.726197242736816
1761396724441924600,3.493924560546875,-11.584192276000977,-8.466337203979492,-5.555323123931885
1761396724461301800,3.5133017578125,-10.218010902404785,-7.174382209777832,-4.060895919799805
1761396724480665300,3.532665283203125,-6.291223049163818,-2.7220802307128906,-5.8024725914001465
1761396724500056000,3.55205615234375,1.950338363647461,3.155348777770996,-4.991433620452881
1761396724519433200,3.57143310546875,18.64966583251953,8.391918182373047,2.922780752182007
1761396724538797000,3.590797119140625,28.875459671020508,9.797346115112305,12.705463409423828
1761396724558187800,3.610187744140625,19.904373168945312,10.868913650512695,14.665995597839355
1761396724577565000,3.62956494140625,11.684494018554688,9.437423706054688,11.696846008300781
1761396724596928500,3.648928466796875,10.481573104858398,5.559317111968994,7.220579147338867
1761396724616319200,3.6683193359375,6.113093852996826,2.4676895141601562,1.6597692966461182
1761396724635696400,3.6876962890625,1.0928850173950195,-0.34568166732788086,-1.5287590026855469
1761396724655060200,3.707060302734375,-1.7381782531738281,-2.7161614894866943,-2.445220470428467
1761396724674450700,3.72645068359375,-4.215149402618408,-4.375051498413086,-1.147430181503296
1761396724693828000,3.745828125,-8.103765487670898,-5.762147903442383,-0.21471309661865234
1761396724713191700,3.765191650390625,-11.288366317749023,-7.222046852111816,-0.44682884216308594
1761396724732582400,3.78458251953125,-11.813642501831055,-8.129180908203125,-1.702324628829956
1761396724751959600,3.80395947265625,-11.067882537841797,-8.489958763122559,-2.700300931930542
1761396724771336700,3.823336669921875,-10.662744522094727,-8.373790740966797,-2.9378464221954346
1761396724790713900,3.8427138671875,-11.0311279296875,-7.991122722625732,-2.9872541427612305
1761396724810091000,3.862091064453125,-10.761690139770508,-7.341344833374023,-3.120577812194824
1761396724829454800,3.881454833984375,-8.877750396728516,-5.542636394500732,-3.1789917945861816
1761396724848845600,3.900845458984375,-3.070437431335449,-2.662829875946045,-1.2443194389343262
1761396724868222700,3.92022265625,8.371318817138672,2.4030308723449707,1.4405267238616943
1761396724887586300,3.93958642578125,17.439992904663086,7.835763454437256,4.3145012855529785
1761396724906977000,3.95897705078125,18.60222053527832,10.93990707397461,5.319674491882324
1761396724926354200,3.978354248046875,18.60477638244629,10.023582458496094,7.207436561584473
1761396724945718000,3.997718017578125,21.04372215270996,6.363812446594238,8.215781211853027
1761396724965108500,4.0171083984375,17.422019958496094,3.7873950004577637,3.3506181240081787
1761396724984486000,4.03648583984375,10.359637260437012,2.279787540435791,-0.7160012722015381
1761396725003849500,4.055849365234375,3.3816046714782715,0.6346035003662109,-1.687295913696289
1761396725023240200,4.075240234375,-2.0557022094726562,-1.3942112922668457,-0.18654847145080566
1761396725042617300,4.094617431640625,-5.793333053588867,-3.574674606323242,2.177982807159424
1761396725061981000,4.11398095703125,-9.2554931640625,-5.436740398406982,2.6514334678649902
1761396725081371600,4.13337158203125,-11.00391960144043,-7.263523578643799,0.7976856231689453
1761396725100748800,4.152748779296875,-10.993230819702148,-9.093446731567383,-1.9003417491912842
1761396725120112600,4.172112548828125,-12.017374992370605,-9.783899307250977,-4.541057586669922
1761396725139503400,4.19150341796875,-14.70751667022705,-9.887794494628906,-5.90064001083374
1761396725158880500,4.210880615234375,-16.542755126953125,-10.013343811035156,-6.154448509216309
1761396725178244000,4.230244140625,-15.709442138671875,-10.269781112670898,-6.839000225067139
1761396725197634800,4.249634765625,-11.10101318359375,-9.085010528564453,-6.7930521965026855
1761396725217012000,4.269011962890625,-0.837766170501709,-6.925380706787109,-4.424449443817139
1761396725236375800,4.288375732421875,11.548263549804688,-2.7068405151367188,-0.5208921432495117
1761396725255766500,4.3077666015625,18.715744018554688,1.4996452331542969,6.3054986000061035
1761396725275143700,4.327143798828125,16.855533599853516,6.3787360191345215,6.070460319519043
1761396725294507300,4.34650732421875,13.581143379211426,9.405328750610352,9.184372901916504
1761396725313898000,4.36589794921875,12.84501838684082,8.47767448425293,18.773679733276367
1761396725333275100,4.385275146484375,11.623655319213867,6.227611541748047,19.388275146484375
1761396725352638700,4.404638671875,8.855955123901367,4.7650556564331055,7.744816303253174
1761396725372029400,4.424029541015625,9.232508659362793,3.645535469055176,-0.46067380905151367
1761396725391406600,4.443406494140625,8.086638450622559,2.5555319786071777,-1.084850788116455
1761396725410770400,4.4627705078125,1.1958322525024414,0.9527716636657715,-0.5993747711181641
1761396725430161200,4.4821611328125,-6.3941650390625,-0.408954381942749,-1.1257452964782715
1761396725449538300,4.501538330078125,-10.975802421569824,-1.3998386859893799,-1.5044379234313965
1761396725468902000,4.52090185546875,-12.985968589782715,-2.259700298309326,-2.5502352714538574
1761396725488292600,4.540292724609375,-13.7177734375,-2.726970911026001,-4.4549407958984375
1761396725507669800,4.559669677734375,-14.078027725219727,-3.1554150581359863,-5.452265739440918
1761396725527033600,4.57903369140625,-15.036518096923828,-2.925802707672119,-5.370575904846191
1761396725546424300,4.59842431640625,-15.358509063720703,-2.4466805458068848,-4.261660575866699
1761396725565801500,4.617801513671875,-11.065199851989746,-1.2512502670288086,-4.365145683288574
1761396725585165000,4.6371650390625,-1.9811906814575195,1.2957801818847656,-1.8149223327636719
1761396725604555800,4.6565556640625,13.500978469848633,2.090825080871582,7.601602077484131
1761396725623933000,4.675932861328125,21.718080520629883,3.124110221862793,11.560579299926758
1761396725643296500,4.695296630859375,19.32675552368164,4.436594009399414,10.773991584777832
1761396725662687200,4.714687255859375,16.84067153930664,4.694263935089111,8.051858901977539
1761396725682064400,4.734064453125,21.537267684936523,2.849721908569336,5.446749687194824
1761396725701428200,4.75342822265625,21.837539672851562,0.007449150085449219,6.082162380218506
1761396725720819000,4.77281884765625,17.06360626220703,-1.3141865730285645,4.552330017089844
1761396725740196000,4.792196044921875,8.509997367858887,-2.580571174621582,2.6963894367218018
1761396725759559700,4.8115595703125,-1.1628670692443848,-3.486997604370117,0.845463216304779
1761396725778950400,4.830950439453125,-7.6169328689575195,-4.119033336639404,-2.0374557971954346
1761396725798327600,4.85032763671875,-10.472539901733398,-4.859825134277344,-2.4163153171539307
1761396725817691400,4.86969140625,-12.337181091308594,-6.3651909828186035,-1.3470399379730225
1761396725837081900,4.889081787109375,-14.463523864746094,-8.131744384765625,-0.7529518604278564
1761396725856459300,4.908459228515625,-13.400418281555176,-8.953088760375977,-0.7342623472213745
1761396725875822800,4.92782275390625,-9.89124584197998,-8.348786354064941,-0.026234179735183716
1761396725895213600,4.947213623046875,-6.945753574371338,-7.5964765548706055,1.9276843070983887
1761396725914590700,4.9665908203125,-4.6555986404418945,-6.237631797790527,1.1677929162979126
1761396725933954300,4.985954345703125,-2.1101233959198,-5.218621253967285,-0.5202713012695312
1761396725953345000,5.005344970703125,0.3667430877685547,-4.459759712219238,0.3011133372783661
1761396725972722200,5.02472216796875,2.003385543823242,-2.683499336242676,1.0451583862304688
1761396725992086000,5.0440859375,4.132386207580566,-0.570556640625,-1.177939534187317
1761396726011476700,5.063476806640625,5.485104560852051,2.35921573638916,-1.12996506690979
1761396726030854000,5.08285400390625,1.8686957359313965,5.519327163696289,-0.013857454061508179
1761396726050217500,5.102217529296875,-1.755068302154541,6.566802024841309,-0.188240647315979
1761396726069608200,5.121608154296875,2.6006855964660645,6.179924964904785,-0.08339422941207886
1761396726088985300,5.1409853515625,8.180663108825684,4.6440606117248535,0.39682579040527344
1761396726108349200,5.16034912109375,11.252300262451172,3.6816163063049316,-0.18610966205596924
1761396726127740000,5.179739990234375,9.481607437133789,2.6236300468444824,1.5406982898712158
1761396726147117000,5.199116943359375,1.8914413452148438,1.2670998573303223,2.1387622356414795
1761396726166480600,5.218480712890625,-5.6610188484191895,-0.27153730392456055,0.5499618053436279
1761396726185871400,5.237871337890625,-8.142820358276367,-1.8656306266784668,-0.0176735520362854
1761396726205248500,5.25724853515625,-7.542355060577393,-3.708779811859131,0.0030671358108520508
1761396726224612400,5.2766123046875,-4.8816423416137695,-5.063141345977783,0.4341854453086853
1761396726244002800,5.2960029296875,-2.3224215507507324,-5.6824541091918945,1.782667875289917
1761396726263380200,5.315380126953125,-2.352264881134033,-5.73897647857666,1.9932101964950562
1761396726282757400,5.33475732421875,-4.111869812011719,-6.140384197235107,2.008516788482666
1761396726302134500,5.354134521484375,-2.1962971687316895,-5.755803108215332,2.1869475841522217
1761396726321511700,5.37351171875,-0.5307841300964355,-4.382024765014648,1.7063521146774292
1761396726340875300,5.392875244140625,-0.25900840759277344,-2.976731300354004,1.6327540874481201
1761396726360266000,5.412265869140625,0.4407048225402832,-0.795659065246582,1.5013368129730225
1761396726379643100,5.43164306640625,2.951554775238037,1.8718395233154297,0.6819345355033875
1761396726399007000,5.451007080078125,4.778001308441162,2.9139018058776855,1.2403826713562012
1761396726418397700,5.470397705078125,4.0460381507873535,3.2583847045898438,0.19622385501861572
1761396726437774800,5.48977490234375,1.5130972862243652,5.827950954437256,-2.8127803802490234
1761396726457138400,5.509138427734375,1.3817310333251953,5.851016521453857,-4.005332946777344
1761396726476529200,5.528529052734375,5.71919059753418,4.602875232696533,-3.521162748336792
1761396726495906300,5.54790625,9.521815299987793,2.706869125366211,-1.8296725749969482
1761396726515270100,5.567270263671875,9.10983657836914,0.9067521095275879,1.4909467697143555
1761396726534660600,5.58666064453125,3.8197126388549805,-0.840569019317627,3.3766889572143555
1761396726554038000,5.6060380859375,-1.9571895599365234,-1.8113069534301758,1.6519956588745117
1761396726573401600,5.625401611328125,-5.7576985359191895,-2.7152934074401855,0.25715747475624084
1761396726592792300,5.644792236328125,-6.318699359893799,-4.071247100830078,0.40532416105270386
1761396726612169500,5.66416943359375,-3.524770736694336,-5.174943923950195,0.7075226902961731
1761396726631533000,5.683532958984375,-0.357297420501709,-6.049061298370361,0.9519068002700806
1761396726650923800,5.702923828125,0.34973573684692383,-6.723759174346924,1.0492206811904907
1761396726670301000,5.722301025390625,-1.5301299095153809,-6.773402214050293,0.2050054967403412
1761396726689664800,5.741664794921875,-3.884542942047119,-6.495754241943359,-0.6705381274223328
1761396726709055500,5.761055419921875,-4.797530174255371,-5.781429290771484,-1.3269007205963135
1761396726728432600,5.7804326171875,-4.205359935760498,-4.542076587677002,-1.228345513343811
1761396726747796200,5.799796142578125,-1.3872618675231934,-3.4812474250793457,0.46533679962158203
1761396726767187000,5.81918701171875,2.515427589416504,-0.47899723052978516,-0.6740153431892395
1761396726786564000,5.838564208984375,3.230095386505127,3.0024452209472656,-2.9450604915618896
1761396726805928000,5.857927978515625,1.673539638519287,4.661049842834473,-0.5011831521987915
1761396726825318700,5.877318603515625,6.488205432891846,6.528620719909668,-0.053237199783325195
1761396726844695800,5.89669580078125,10.670496940612793,5.413023948669434,1.0809900760650635
1761396726864059400,5.916059326171875,14.321647644042969,4.655817031860352,1.2544126510620117
1761396726883450000,5.9354501953125,12.415972709655762,3.366093635559082,3.822491407394409
1761396726902827300,5.9548271484375,5.512767791748047,1.9037489891052246,4.13316535949707
1761396726922191000,5.974191162109375,-1.3768301010131836,1.1236214637756348,0.6773210763931274
1761396726941581600,5.99358154296875,-4.716825485229492,0.2631826400756836,-1.5945090055465698
1761396726960959000,6.012958984375,-6.035872936248779,-0.589167594909668,-1.8500703573226929
1761396726980322600,6.032322509765625,-6.959855556488037,-2.125680923461914,-1.0234127044677734
1761396726999713300,6.05171337890625,-7.66143798828125,-3.727632522583008,-0.5557448863983154
1761396727019090400,6.07109033203125,-7.236591339111328,-4.843317985534668,-1.0646228790283203
1761396727038454000,6.0904541015625,-6.847827911376953,-5.2077741622924805,-1.9416917562484741
1761396727057844700,6.1098447265625,-6.755904674530029,-5.416654586791992,-1.9468705654144287
1761396727077222000,6.129221923828125,-6.8438920974731445,-5.476807594299316,-1.1606489419937134
1761396727096599000,6.14859912109375,-7.380188941955566,-5.120149612426758,-1.1739293336868286
1761396727115976400,6.1679765625,-7.091780662536621,-4.46501350402832,-1.0830085277557373
1761396727135353600,6.187353515625,-4.85417366027832,-2.3187270164489746,-2.010640859603882
1761396727154717200,6.20671728515625,-1.3246898651123047,1.710604190826416,-4.1555070877075195
1761396727174108000,6.22610791015625,3.024536609649658,7.350451946258545,-5.654228210449219
1761396727193485000,6.245485107421875,6.8000168800354,11.163457870483398,-1.7613651752471924
1761396727212849000,6.264848876953125,13.5018892288208,7.074641227722168,6.254379749298096
1761396727232239400,6.2842392578125,21.36357879638672,-0.23759078979492188,10.666114807128906
1761396727251616800,6.30361669921875,16.690549850463867,-3.898533821105957,7.721315383911133
1761396727270980400,6.32298046875,11.921481132507324,-4.073892593383789,1.2194112539291382
1761396727290371000,6.34237109375,10.598713874816895,-4.572320938110352,-0.6835646629333496
1761396727309748200,6.361748291015625,7.999228477478027,-3.7439119815826416,-1.9367289543151855
1761396727329111800,6.38111181640625,3.89255428314209,-2.8837225437164307,-0.8125264048576355
1761396727348502500,6.40050244140625,-0.3427457809448242,-2.195861339569092,3.121143341064453
1761396727367879700,6.419879638671875,-4.113275527954102,-2.190323829650879,6.964436054229736
1761396727387243500,6.439243408203125,-8.624580383300781,-2.2942910194396973,6.9206461906433105
1761396727406634200,6.45863427734375,-11.364187240600586,-2.8582000732421875,5.281184673309326
1761396727426011400,6.478011474609375,-12.145561218261719,-2.9731640815734863,4.215391635894775
1761396727445375000,6.497375,-13.301440238952637,-3.34320068359375,4.1035919189453125
1761396727464765700,6.516765625,-13.915117263793945,-3.7690365314483643,4.157700538635254
1761396727484142800,6.536142822265625,-12.47641372680664,-3.2048702239990234,3.6306943893432617
1761396727503506700,6.555506591796875,-11.559277534484863,-1.3383121490478516,1.19075608253479
1761396727522897400,6.5748974609375,-11.457998275756836,2.00761079788208,-3.2621638774871826
1761396727542274600,6.594274658203125,-9.75285816192627,6.255245208740234,-6.951279640197754
1761396727561638100,6.61363818359375,4.059242248535156,5.545274257659912,1.8944263458251953
1761396727581028900,6.63302880859375,27.36857032775879,-1.243649959564209,12.041869163513184
1761396727600406000,6.652406005859375,36.78348159790039,-8.209842681884766,8.936480522155762
1761396727619769900,6.671769775390625,24.791213989257812,-1.9692180156707764,-6.671238422393799
1761396727639160300,6.691160400390625,17.864112854003906,-0.7629759311676025,-5.089688777923584
1761396727658537700,6.710537841796875,12.195268630981445,0.12985587120056152,-2.322742223739624
1761396727677901300,6.7299013671875,2.4164514541625977,0.34310007095336914,-1.480122447013855
1761396727697292000,6.7492919921875,-5.703141212463379,0.27886295318603516,-0.2071855664253235
1761396727716669200,6.768669189453125,-8.497193336486816,-0.5239412784576416,1.4749760627746582
1761396727736032800,6.78803271484375,-8.17487621307373,-1.600771427154541,3.707716226577759
1761396727755423500,6.807423583984375,-8.57956600189209,-1.961893081665039,2.6474900245666504
1761396727774800600,6.826800537109375,-9.262279510498047,-2.224097490310669,0.7881996631622314
1761396727794164500,6.84616455078125,-9.02171802520752,-2.4742908477783203,-0.29751574993133545
1761396727813555200,6.86555517578125,-9.252020835876465,-2.6843161582946777,-0.258248895406723
1761396727832932400,6.884932373046875,-9.26913833618164,-2.076756477355957,-0.8153188228607178
1761396727852296000,6.9042958984375,-8.770764350891113,-0.19895219802856445,-2.4160330295562744
1761396727871686700,6.923686767578125,-2.6417603492736816,1.2858085632324219,-3.153195858001709
1761396727891063800,6.943063720703125,9.208187103271484,3.3572492599487305,-4.510431289672852
1761396727910427400,6.962427490234375,14.450321197509766,5.935061931610107,-6.518662452697754
1761396727929818000,6.981818115234375,12.424488067626953,5.343933582305908,-3.2338900566101074
1761396727949195500,7.001195556640625,13.996857643127441,3.545742988586426,2.9898648262023926
1761396727968559000,7.02055908203125,15.51589298248291,0.5126786231994629,6.635013103485107
1761396727987949800,7.03994970703125,7.875557899475098,-1.2203235626220703,3.273159980773926
1761396728007327000,7.059326904296875,3.0140891075134277,-1.94417142868042,1.2711101770401
1761396728026690600,7.078690673828125,1.6798911094665527,-2.8121354579925537,2.4006199836730957
1761396728046081300,7.098081298828125,-0.18786382675170898,-3.103213310241699,1.16670560836792
1761396728065458400,7.11745849609375,-4.018195629119873,-3.8093276023864746,0.5368754863739014
1761396728084822300,7.136822265625,-7.143681049346924,-5.068026065826416,2.084568738937378
1761396728104213000,7.156212890625,-9.004063606262207,-6.0477471351623535,3.333662986755371
1761396728123590100,7.175590087890625,-10.195978164672852,-6.0533552169799805,2.7364702224731445
1761396728142953700,7.19495361328125,-10.52173900604248,-5.807446479797363,1.3002146482467651
1761396728162344400,7.214344482421875,-11.529885292053223,-5.143393516540527,0.5392298698425293
1761396728181721600,7.2337216796875,-12.090946197509766,-4.629904747009277,0.5241827368736267
1761396728201085400,7.25308544921875,-10.046268463134766,-4.253799915313721,-0.1861783266067505
1761396728220476000,7.272475830078125,-7.2928032875061035,-3.716362476348877,-1.1516661643981934
1761396728239853000,7.29185302734375,-3.2935338020324707,-1.7949752807617188,-2.1869795322418213
1761396728259217000,7.311216796875,4.471237659454346,1.1693406105041504,-1.6081032752990723
1761396728278607600,7.330607666015625,9.618705749511719,6.634944915771484,-0.6907970905303955
1761396728297984800,7.34998486328125,17.022319793701172,3.5910816192626953,7.106508255004883
1761396728317348400,7.369348388671875,27.43968391418457,2.103649139404297,6.240904808044434
1761396728336739000,7.388739013671875,25.67951011657715,2.3880562782287598,1.0455436706542969
1761396728356116200,7.4081162109375,17.53597068786621,3.6304492950439453,-0.5239994525909424
1761396728375480000,7.42747998046875,8.687667846679688,4.381821632385254,-0.4098777770996094
1761396728394870800,7.446870849609375,0.09113264083862305,3.6041674613952637,0.4732477068901062
1761396728414248000,7.466248046875,-5.600006103515625,1.4461979866027832,0.33150002360343933
1761396728433611500,7.485611572265625,-7.609251499176025,-0.8995270729064941,-0.8504475951194763
1761396728453002200,7.505002197265625,-9.981328964233398,-3.4086108207702637,0.3328477144241333
1761396728472379400,7.52437939453125,-11.667488098144531,-6.586843490600586,2.410349130630493
1761396728491743200,7.5437431640625,-10.453873634338379,-8.439987182617188,1.22538161277771
1761396728511133700,7.5631337890625,-8.413846969604492,-8.979728698730469,-0.805583655834198
1761396728530511000,7.582510986328125,-7.171866416931152,-9.039261817932129,-2.3452401161193848
1761396728549888300,7.60188818359375,-7.960537910461426,-8.288875579833984,-1.434600830078125
1761396728569265400,7.621265380859375,-9.89491081237793,-7.180000305175781,1.4370307922363281
1761396728588642600,7.640642578125,-10.105077743530273,-6.267638683319092,1.8410300016403198
1761396728608006100,7.660006103515625,-6.738253116607666,-4.839240074157715,-0.04133421182632446
1761396728627396900,7.67939697265625,0.573723316192627,-2.7527031898498535,0.4440300762653351
1761396728646774000,7.69877392578125,9.072248458862305,0.6603145599365234,-0.5380626320838928
1761396728666137900,7.718137939453125,12.495420455932617,5.157930374145508,-1.9877548217773438
1761396728685528600,7.737528564453125,12.740011215209961,7.790585994720459,1.7585740089416504
1761396728704905700,7.75690576171875,18.305522918701172,7.030416011810303,3.8307790756225586
1761396728724269300,7.776269287109375,22.88688850402832,4.947546005249023,4.236643314361572
1761396728743660000,7.795659912109375,21.8448486328125,3.2139339447021484,2.9790077209472656
1761396728763037200,7.815037109375,17.70255470275879,2.6372365951538086,-0.12965664267539978
1761396728782401000,7.834401123046875,9.194082260131836,1.541438102722168,-1.0678236484527588
1761396728801791500,7.85379150390625,0.46469593048095703,-0.4076876640319824,-0.6056535243988037
1761396728821169000,7.8731689453125,-3.9465134143829346,-2.9128122329711914,-0.5261256098747253
1761396728840532500,7.892532470703125,-6.293211460113525,-5.198492527008057,0.7847591042518616
1761396728859923200,7.911923095703125,-9.124732971191406,-7.010744094848633,1.9922411441802979
1761396728879300400,7.93130029296875,-12.446401596069336,-7.616167068481445,2.349038600921631
1761396728898664000,7.950663818359375,-14.08670425415039,-8.364035606384277,0.6110849380493164
1761396728918054700,7.9700546875,-13.610513687133789,-9.385772705078125,-1.2688651084899902
1761396728937431800,7.989431884765625,-11.815093994140625,-9.726625442504883,-2.708087205886841
1761396728956795600,8.008795654296875,-10.298175811767578,-9.537158966064453,-3.310016393661499
1761396728976186400,8.028186279296875,-8.918661117553711,-8.72420597076416,-3.9097235202789307
1761396728995563500,8.0475634765625,-7.884458065032959,-7.2807464599609375,-3.7429137229919434
1761396729014927000,8.066927001953125,-5.642601490020752,-4.045904636383057,-3.106353282928467
1761396729034317800,8.08631787109375,0.7989168167114258,0.2926449775695801,-2.2268357276916504
1761396729053695000,8.105695068359376,9.662984848022461,4.547664642333984,2.7585160732269287
1761396729073058800,8.125058837890625,20.615163803100586,6.625408172607422,9.877386093139648
1761396729092449300,8.14444921875,29.85016441345215,7.022391319274902,10.508407592773438
1761396729111826700,8.16382666015625,27.80950355529785,7.905182838439941,7.431715965270996
1761396729131190300,8.183190185546875,25.64734649658203,7.582674980163574,6.323403358459473
1761396729150581000,8.2025810546875,20.85563087463379,6.378044605255127,4.758562088012695
1761396729169958100,8.221958251953126,11.696670532226562,3.5359134674072266,3.583362340927124
1761396729189321700,8.24132177734375,3.3649144172668457,0.3961305618286133,3.581636667251587
1761396729208712400,8.26071240234375,-2.890017032623291,-3.004237174987793,2.9624946117401123
1761396729228089600,8.280089599609376,-7.890885353088379,-6.530692100524902,3.254302978515625
1761396729247453400,8.299453369140625,-12.528951644897461,-8.906397819519043,2.520843744277954
1761396729266844200,8.31884423828125,-16.061119079589844,-10.598241806030273,0.38362836837768555
1761396729286221300,8.33822119140625,-16.652727127075195,-11.338505744934082,-1.885777235031128
1761396729305585000,8.3575849609375,-15.833232879638672,-11.795417785644531,-3.6238596439361572
1761396729324975600,8.3769755859375,-15.157575607299805,-12.472314834594727,-4.108822345733643
1761396729344352800,8.396352783203126,-13.240532875061035,-12.856840133666992,-4.285942077636719
1761396729363716600,8.415716552734375,-11.910150527954102,-12.569987297058105,-4.5721611976623535
1761396729383107000,8.435107177734375,-11.037089347839355,-11.054832458496094,-6.212265968322754
1761396729402484500,8.454484375,-9.864901542663574,-8.914163589477539,-6.361903190612793
1761396729421848000,8.47384814453125,-5.225883483886719,-5.122053623199463,-5.008408546447754
1761396729441238800,8.49323876953125,1.874767780303955,1.4781246185302734,-2.2922959327697754
1761396729460616000,8.512615966796876,12.107699394226074,8.529519081115723,4.787878036499023
1761396729479979500,8.5319794921875,28.30111312866211,9.920148849487305,11.809792518615723
1761396729499370200,8.551370361328125,41.507633209228516,9.535904884338379,16.297121047973633
1761396729518747400,8.570747314453126,41.82109832763672,9.083942413330078,12.071019172668457
1761396729538111200,8.590111328125,33.35471725463867,9.055556297302246,4.1663126945495605
1761396729557502000,8.609501953125,24.08646011352539,7.030460357666016,2.219942092895508
1761396729576879000,8.628879150390626,11.999373435974121,3.29636812210083,5.953498840332031
1761396729596242700,8.64824267578125,-0.7698612213134766,-1.1734304428100586,8.413164138793945
1761396729615633400,8.66763330078125,-9.41350269317627,-6.041511535644531,7.209293842315674
1761396729635010600,8.687010498046876,-15.135246276855469,-11.359662055969238,3.95515513420105
1761396729654374400,8.70637451171875,-16.81772232055664,-14.425477981567383,-1.6693506240844727
1761396729673764900,8.725764892578125,-14.053150177001953,-15.735816955566406,-4.925782680511475
1761396729693142000,8.74514208984375,-10.091650009155273,-15.619705200195312,-6.237934589385986
1761396729712505900,8.764505859375,-8.73863410949707,-14.09177017211914,-6.625275135040283
1761396729731896600,8.783896484375,-9.117010116577148,-12.250936508178711,-6.3508501052856445
1761396729751273700,8.803273681640626,-9.517499923706055,-10.766199111938477,-3.0469439029693604
1761396729770637300,8.82263720703125,-8.54656982421875,-9.744686126708984,0.4461320638656616
1761396729790028000,8.842028076171875,-2.9728214740753174,-1.98101806640625,-6.265315055847168
1761396729809405200,8.8614052734375,-4.8284502029418945,-2.440275192260742,-1.2323174476623535
1761396729828769000,8.88076904296875,7.857549667358398,-2.010988712310791,5.665712833404541
1761396729848159700,8.90015966796875,20.34562110900879,0.023637771606445312,5.724603176116943
1761396729867537000,8.919536865234376,15.988445281982422,4.814332962036133,-0.23169147968292236
1761396729886900500,8.938900390625,7.959044456481934,6.41585636138916,-0.7550967931747437
1761396729906291200,8.958291259765625,8.744125366210938,7.940154075622559,-0.960944414138794
1761396729925668400,8.97766845703125,7.291001796722412,8.447299003601074,-3.4219045639038086
1761396729945032200,8.9970322265625,5.360818862915039,7.816644668579102,-4.634424209594727
1761396729964422700,9.016422607421875,3.8904972076416016,6.266925811767578,-5.532162666320801
1761396729983800000,9.035800048828126,4.379214763641357,2.6564693450927734,0.12187349796295166
1761396730003163600,9.05516357421875,2.398613929748535,-0.790400505065918,2.9398584365844727
1761396730022554400,9.074554443359375,0.0814204216003418,-3.513617515563965,1.8958542346954346
1761396730041931500,9.093931640625,1.26377534866333,-5.7190093994140625,0.9847938418388367
1761396730061295000,9.113295166015625,2.8674988746643066,-7.129866600036621,1.4836792945861816
1761396730080685800,9.132685791015625,-0.2667827606201172,-7.77495813369751,2.2036116123199463
1761396730100063000,9.15206298828125,-3.462395429611206,-7.382902145385742,2.7446632385253906
1761396730119426800,9.1714267578125,-5.396327018737793,-7.344135284423828,3.5636308193206787
1761396730138817500,9.190817626953125,-4.983908653259277,-6.28231143951416,2.338552236557007
1761396730158194700,9.210194580078126,-1.7983615398406982,-5.59110164642334,0.3182968497276306
1761396730177558300,9.229558349609375,-0.7491600513458252,-4.294952392578125,0.3762280344963074
1761396730196949000,9.248948974609375,-1.547658920288086,-3.2829341888427734,0.7620483636856079
1761396730216326100,9.268326171875,1.2986345291137695,-1.26239013671875,0.8114499449729919
1761396730235689700,9.287689697265625,2.3011488914489746,1.2690057754516602,-0.3813101649284363
1761396730255080400,9.30708056640625,1.6807408332824707,3.966899871826172,-1.0461164712905884
1761396730274457600,9.32645751953125,1.9150643348693848,4.682622909545898,2.304645538330078
1761396730293821400,9.345821533203125,4.370696067810059,5.284910202026367,2.4329097270965576
1761396730313212200,9.365212158203125,5.188743591308594,6.74580192565918,0.3015759587287903
1761396730332589300,9.38458935546875,3.087780714035034,7.75095272064209,-2.370649814605713
1761396730351953000,9.403952880859375,3.748889923095703,7.705691337585449,-2.085237741470337
1761396730371343600,9.423343505859375,5.710719108581543,5.410874366760254,3.0882978439331055
1761396730390720800,9.442720703125,2.4114019870758057,2.482272148132324,6.614882946014404
1761396730410084600,9.462084716796875,-2.895193099975586,-0.534846305847168,5.443466663360596
1761396730429475300,9.481475341796875,-5.304113864898682,-3.5745348930358887,3.443645477294922
1761396730448852500,9.5008525390625,-2.0613722801208496,-5.698408126831055,1.710331678390503
1761396730468216000,9.520216064453125,1.739206075668335,-7.287489414215088,0.3961848020553589
1761396730487606800,9.539606689453125,2.200458526611328,-7.8673787117004395,0.21129900217056274
1761396730506984000,9.55898388671875,-0.8891339302062988,-8.371849060058594,0.9696766138076782
1761396730526347800,9.57834765625,-2.6987967491149902,-8.491326332092285,0.9035660624504089
1761396730545738200,9.59773828125,-2.0268046855926514,-7.976560115814209,0.7759301662445068
1761396730565115600,9.61711572265625,-1.242926836013794,-7.175642967224121,0.7028110027313232
1761396730584479200,9.636479248046875,-0.5289199352264404,-5.600856781005859,-0.5651689767837524
1761396730603870000,9.655869873046875,0.5653235912322998,-3.609680652618408,-0.6068953275680542
1761396730623247000,9.6752470703125,1.4601314067840576,-0.6164026260375977,0.5993594527244568
1761396730642610700,9.694610595703125,1.5707082748413086,2.524571418762207,0.2891474962234497
1761396730662001400,9.71400146484375,0.7510586977005005,4.810843467712402,-3.1782772541046143
1761396730681378600,9.733378662109375,-1.8240002393722534,5.599108695983887,-2.9803881645202637
1761396730700742400,9.752742431640625,0.49970459938049316,7.603839874267578,-3.10113525390625
1761396730720133000,9.772133056640625,2.9590892791748047,7.336087226867676,-3.699453353881836
1761396730739510300,9.79151025390625,5.052381992340088,5.479333877563477,-2.6998274326324463
1761396730758873900,9.810873779296875,5.26824951171875,2.6734676361083984,-1.1013147830963135
1761396730778264600,9.8302646484375,4.969472885131836,0.32639598846435547,0.8505494594573975
1761396730797641700,9.849641845703125,1.3629016876220703,-1.9408807754516602,3.520036220550537
1761396730817005300,9.86900537109375,-3.6992857456207275,-3.908041477203369,3.961211919784546
1761396730836396000,9.88839599609375,-5.337568759918213,-5.773715972900391,3.1811647415161133
1761396730855773200,9.907773193359375,-1.2404475212097168,-6.583825588226318,1.3172447681427002
1761396730875137000,9.927136962890625,2.040515422821045,-7.092381477355957,0.7671777606010437
1761396730894527700,9.94652783203125,1.3423504829406738,-7.273499011993408,1.280250072479248
1761396730913905000,9.96590478515625,0.05420207977294922,-7.203530311584473,2.6248159408569336
1761396730933268500,9.9852685546875,-1.420348882675171,-6.599014759063721,3.645082473754883
1761396730952659200,10.0046591796875,-2.8027260303497314,-5.768007278442383,3.208547592163086
1761396730972036400,10.024036376953125,-0.8850646018981934,-4.749614238739014,2.1645455360412598
1761396730991400200,10.043400146484375,4.888534069061279,-2.795490264892578,-0.4016079902648926
1761396731010790700,10.062790771484375,5.101944446563721,0.6692056655883789,-1.9374456405639648
1761396731030168000,10.08216796875,-2.6386260986328125,5.529158592224121,-4.158709526062012
1761396731049531600,10.10153173828125,-9.114837646484375,8.051286697387695,-3.5074644088745117
1761396731068922400,10.12092236328125,-2.5851311683654785,8.704330444335938,-0.5349931716918945
1761396731088299500,10.140299560546875,9.335250854492188,9.04771614074707,-1.1942362785339355
1761396731107663000,10.1596630859375,15.599931716918945,10.200937271118164,-1.8858486413955688
1761396731127053800,10.1790537109375,9.747245788574219,9.809457778930664,-0.008776187896728516
1761396731146431000,10.198430908203125,3.6395668983459473,7.116669654846191,3.9692981243133545
1761396731165794800,10.217794921875,-0.287015438079834,3.589409828186035,3.5282018184661865
1761396731185185500,10.237185546875,-0.9059710502624512,0.7043561935424805,0.6471663117408752
1761396731204562700,10.256562744140625,-0.0647745132446289,-1.521979808807373,-0.09773313999176025
1761396731223926300,10.27592626953125,-0.13725996017456055,-3.1677684783935547,1.3192468881607056
1761396731243317000,10.29531689453125,-3.067169427871704,-4.596654891967773,2.585047483444214
1761396731262694100,10.314694091796875,-3.4086005687713623,-5.995115280151367,2.3287601470947266
1761396731282058000,10.33405810546875,-0.9184417724609375,-6.965097427368164,2.050217866897583
1761396731301448400,10.353448486328125,0.9019279479980469,-7.242679595947266,2.1910290718078613
1761396731320825900,10.372825927734375,0.42511844635009766,-6.860248565673828,2.1820931434631348
1761396731340189400,10.392189453125,-2.395915985107422,-6.035224914550781,1.9387627840042114
1761396731359580200,10.411580078125,-3.6764800548553467,-4.932671070098877,1.5682573318481445
1761396731378957300,10.430957275390625,-2.419565439224243,-2.8862714767456055,0.9319295883178711
1761396731398321000,10.45032080078125,-1.7321574687957764,-0.20458221435546875,-0.10237538814544678
1761396731417711600,10.469711669921875,1.6856374740600586,2.0554370880126953,-0.47711753845214844
1761396731437088800,10.4890888671875,6.223384380340576,4.08028507232666,-0.7828278541564941
1761396731456452600,10.50845263671875,4.303558349609375,4.913741111755371,-0.1893399953842163
1761396731475843300,10.52784326171875,0.8277091979980469,5.574002265930176,0.935477614402771
1761396731495220500,10.547220458984375,1.8198590278625488,6.661747932434082,-0.036232829093933105
1761396731514584000,10.566583984375,4.66856575012207,6.943011283874512,-1.8584624528884888
1761396731533974800,10.585974853515625,6.343523979187012,5.584493637084961,-0.6942852735519409
1761396731553352000,10.60535205078125,7.880868911743164,3.8506526947021484,0.25400757789611816
1761396731572715500,10.624715576171875,3.3567323684692383,0.8040552139282227,1.4719557762145996
1761396731592106200,10.644106201171875,-2.220507860183716,-1.1245765686035156,-0.2838137149810791
1761396731611483400,10.6634833984375,-3.5290324687957764,-2.104677200317383,-1.3216291666030884
1761396731630847200,10.68284716796875,-1.435102939605713,-4.034101486206055,0.21918821334838867
1761396731650238000,10.702238037109375,-0.1620922088623047,-5.466889381408691,1.8930208683013916
1761396731669615000,10.721614990234375,1.4482378959655762,-6.302474021911621,3.827846050262451
1761396731688978700,10.740978759765625,0.8930583000183105,-6.59118127822876,3.502009868621826
1761396731708369400,10.760369384765625,-0.8889956474304199,-6.847747802734375,2.09027099609375
1761396731727746600,10.77974658203125,-2.6478683948516846,-6.096571922302246,0.9529367685317993
1761396731747110100,10.799110107421875,-5.516047477722168,-5.24822998046875,1.0617669820785522
1761396731766500900,10.8185009765625,-4.778450012207031,-3.8886971473693848,0.8893913626670837
1761396731785878000,10.8378779296875,-0.07137250900268555,-1.8973917961120605,-0.04813671112060547
1761396731805241900,10.857241943359375,2.9707865715026855,0.7281866073608398,-1.0613553524017334
1761396731824632600,10.876632568359375,-1.3691504001617432,3.211711883544922,-2.7810254096984863
1761396731844009700,10.896009765625,-4.834822654724121,3.4185867309570312,0.38690078258514404
1761396731863373300,10.915373291015625,2.9609594345092773,4.089034080505371,1.0320336818695068
1761396731882764000,10.934763916015624,10.395651817321777,4.5572404861450195,-3.860759735107422
1761396731902141200,10.95414111328125,9.352076530456543,4.799990653991699,-4.333269119262695
1761396731921505000,10.973505126953125,5.018667221069336,5.562101364135742,-2.024670124053955
1761396731940895700,10.992895751953125,2.980534553527832,5.5840959548950195,0.7671664953231812
1761396731960273000,11.01227294921875,-0.4246039390563965,3.087322235107422,4.636864185333252
1761396731979636500,11.031636474609375,-1.442145824432373,-0.02751302719116211,4.458078861236572
1761396731999027200,11.051027099609374,1.7769179344177246,-1.4016227722167969,-0.9662086963653564
1761396732018404400,11.070404296875,2.413907527923584,-1.7635116577148438,-2.248155355453491
1761396732037768000,11.089767822265625,0.07517671585083008,-2.7545948028564453,2.286660671234131
1761396732057158700,11.10915869140625,-1.7899627685546875,-3.436966896057129,3.2983522415161133
1761396732076535800,11.128535888671875,-2.65976619720459,-3.8932089805603027,2.0001845359802246
1761396732095899600,11.147899658203125,-2.0990326404571533,-4.777352333068848,3.2753119468688965
1761396732115290400,11.167290283203124,1.260239601135254,-5.014554977416992,1.9055789709091187
1761396732134667500,11.18666748046875,0.7464942932128906,-4.651340961456299,-0.785707950592041
1761396732154031000,11.206031005859375,-1.342729091644287,-5.080564498901367,3.28121280670166
1761396732173421800,11.225421875,-1.4877533912658691,-4.971654891967773,2.5283284187316895
1761396732192799000,11.244799072265625,-0.9684247970581055,-4.21925687789917,0.23148632049560547
