time,seconds_elapsed,z,y,x
1761396721089671700,0.141671630859375,7.438687324523926,6.4187469482421875,-1.9992033243179321
1761396721109048800,0.161048828125,7.52423095703125,6.3601226806640625,-1.8083757162094116
1761396721128426000,0.180426025390625,6.856633186340332,6.3224358558654785,-1.6707884073257446
1761396721147803100,0.19980322265625,5.606383323669434,6.394818305969238,-1.8041882514953613
1761396721167180300,0.21918017578125,4.7611188888549805,6.448058605194092,-2.0273189544677734
1761396721186557400,0.238557373046875,4.572684288024902,6.306882381439209,-1.8478572368621826
1761396721205934600,0.2579345703125,5.096114158630371,6.1603217124938965,-1.7413766384124756
1761396721225312000,0.27731201171875,6.334399700164795,5.897111415863037,-1.3968101739883423
1761396721244689200,0.296689208984375,6.882954120635986,5.348556995391846,-0.49710890650749207
1761396721264066300,0.31606640625,7.419544696807861,4.680361270904541,0.24526432156562805
1761396721302820600,0.354820556640625,4.358526229858398,3.9212381839752197,-1.2741780281066895
1761396721322197800,0.37419775390625,3.0580272674560547,4.629513740539551,-2.396411895751953
1761396721341561300,0.393561279296875,2.002194404602051,5.450850009918213,-2.913261651992798
1761396721360952000,0.4129521484375,2.7355945110321045,6.1363935470581055,-3.3822548389434814
1761396721380329200,0.4323291015625,6.692126750946045,7.085147857666016,-3.1028928756713867
1761396721399693000,0.451693115234375,11.520244598388672,9.948160171508789,-2.982055187225342
1761396721419083800,0.471083740234375,14.398212432861328,11.066206932067871,-0.5700899958610535
1761396721438461000,0.4904609375,13.189836502075195,10.512866020202637,-0.6885347366333008
1761396721457824500,0.509824462890625,9.471988677978516,12.499506950378418,-3.303889751434326
1761396721477215200,0.52921533203125,8.493324279785156,13.992629051208496,-4.11505651473999
1761396721496592400,0.54859228515625,12.464811325073242,12.528221130371094,-2.5836503505706787
1761396721515956200,0.567956298828125,14.46461296081543,11.331212043762207,-0.47676992416381836
1761396721535347000,0.587346923828125,11.616556167602539,10.402796745300293,-0.03768695518374443
1761396721554724000,0.60672412109375,9.020941734313965,8.768498420715332,0.5377869009971619
1761396721574087700,0.626087646484375,7.625925540924072,6.064609050750732,2.2504496574401855
1761396721593478400,0.645478515625,5.688337802886963,3.4552359580993652,2.2396819591522217
1761396721612855600,0.66485546875,5.255236625671387,1.949552297592163,-1.3543375730514526
1761396721632219100,0.68421923828125,5.252245903015137,0.867398202419281,-3.111865758895874
1761396721651609900,0.70360986328125,5.1320061683654785,0.6245267391204834,-1.3513466119766235
1761396721670987000,0.722987060546875,5.755934715270996,-0.0933200865983963,-0.32183465361595154
1761396721690350800,0.742350830078125,4.609772682189941,-0.09930214285850525,-0.2590230405330658
1761396721709741600,0.761741455078125,2.878565549850464,0.5276173949241638,0.06999006122350693
1761396721729118700,0.78111865234375,0.20578274130821228,-0.2315055876970291,1.947757601737976
1761396721748482300,0.800482421875,-2.4023938179016113,-0.7561319470405579,1.7629120349884033
1761396721767873000,0.819873046875,-3.184846878051758,0.2667997181415558,0.34695929288864136
1761396721787250200,0.839250244140625,-4.95074987411499,1.677966833114624,-2.1415762901306152
1761396721806614000,0.858614013671875,-5.956932067871094,3.036491870880127,-2.8073792457580566
1761396721826004500,0.87800439453125,-0.18783657252788544,4.219144344329834,0.763310432434082
1761396721845382000,0.8973818359375,15.013167381286621,7.9830546379089355,-0.9176474809646606
1761396721864745500,0.916745361328125,22.9364013671875,9.418149948120117,4.77667236328125
1761396721884136200,0.93613623046875,31.60858917236328,7.908278942108154,13.890335083007812
1761396721903513300,0.955513427734375,37.317264556884766,7.0169525146484375,14.279767036437988
1761396721922877000,0.974876953125,33.62514114379883,7.956135272979736,5.620141983032227
1761396721942267600,0.994267578125,25.1431827545166,8.252845764160156,1.1886346340179443
1761396721961644800,1.013644775390625,16.411771774291992,8.038089752197266,0.45284169912338257
1761396721981008600,1.033008544921875,9.512666702270508,7.218547821044922,1.1724830865859985
1761396722000399000,1.052399169921875,5.027320384979248,5.605785369873047,3.290729284286499
1761396722019776500,1.071776611328125,2.468794822692871,4.17726993560791,3.4683964252471924
1761396722039140000,1.09114013671875,-0.4450650215148926,2.526820659637451,2.922234535217285
1761396722058530800,1.11053076171875,-2.5357937812805176,1.9824535846710205,0.7334001660346985
1761396722077908000,1.129907958984375,-3.66520619392395,1.1808580160140991,-0.08315058797597885
1761396722097271600,1.149271484375,-5.720640659332275,0.129810631275177,0.12921242415905
1761396722116662300,1.168662353515625,-8.179265975952148,-0.04546362906694412,-1.170688509941101
1761396722136039400,1.188039306640625,-8.525029182434082,0.7328019142150879,-0.9631111025810242
1761396722155403300,1.2074033203125,-8.606385231018066,0.9320043921470642,-1.1443674564361572
1761396722174793700,1.226793701171875,-7.365108013153076,1.0761719942092896,-1.054038405418396
1761396722194171100,1.246171142578125,-4.660022258758545,2.4975085258483887,0.22851456701755524
1761396722213534700,1.26553466796875,-0.4498506486415863,7.987840175628662,-2.4161527156829834
1761396722232925400,1.284925537109375,12.566506385803223,14.140983581542969,-4.012165546417236
1761396722252302600,1.304302490234375,41.189449310302734,12.976875305175781,15.946368217468262
1761396722271666200,1.323666259765625,49.04688262939453,5.855237007141113,36.335609436035156
1761396722291057000,1.343056884765625,28.921449661254883,9.615557670593262,23.87259292602539
1761396722310434000,1.36243408203125,15.78246021270752,9.32722282409668,12.161520957946777
1761396722329798000,1.3817978515625,12.114262580871582,7.667799949645996,5.590830326080322
1761396722349188600,1.401188720703125,8.00638484954834,6.842874526977539,1.511067509651184
1761396722368565800,1.420565673828125,4.572085857391357,5.627320766448975,0.6634100675582886
1761396722387929300,1.439929443359375,1.6109678745269775,3.682554006576538,1.3537393808364868
1761396722407320000,1.459320068359375,-0.2919243574142456,2.0745773315429688,2.5046870708465576
1761396722426697200,1.478697265625,-0.6538388133049011,0.973878800868988,3.549154281616211
1761396722446061000,1.49806103515625,-0.8769695162773132,0.4624129831790924,3.25663161277771
1761396722465451800,1.51745166015625,-2.5022943019866943,0.003589233849197626,2.0165512561798096
1761396722484829000,1.536828857421875,-4.191029071807861,-0.22013968229293823,0.16331014037132263
1761396722504192500,1.556192626953125,-5.656632900238037,-0.06520441919565201,-1.5415760278701782
1761396722523583200,1.575583251953125,-6.632306098937988,-0.16809579730033875,-2.458625316619873
1761396722542960400,1.59496044921875,-6.5282182693481445,0.19621145725250244,-2.017747640609741
1761396722562324000,1.614323974609375,-5.431707382202148,0.7878368496894836,0.39900317788124084
1761396722581714700,1.633714599609375,-2.616551637649536,2.9904301166534424,1.4715858697891235
1761396722601091800,1.653091796875,4.412963390350342,7.051050186157227,1.6145570278167725
1761396722620455700,1.67245556640625,25.5098819732666,12.424731254577637,2.115255117416382
1761396722639846400,1.691846435546875,40.91068649291992,8.770293235778809,12.711272239685059
1761396722659223600,1.7112236328125,37.96213150024414,9.422337532043457,14.897115707397461
1761396722678587100,1.730587158203125,24.11546516418457,10.644471168518066,11.274381637573242
1761396722697977900,1.749977783203125,18.067007064819336,11.624930381774902,7.214958667755127
1761396722717355000,1.76935498046875,13.755141258239746,10.49970531463623,2.2713868618011475
1761396722736718800,1.78871875,11.497512817382812,7.596015453338623,0.6981059908866882
1761396722756109300,1.808109375,12.457035064697266,4.179663181304932,5.132604598999023
1761396722775486700,1.82748681640625,9.270393371582031,2.888136863708496,5.776273727416992
1761396722794850300,1.846850341796875,2.733799934387207,1.7258232831954956,3.792623996734619
1761396722814241000,1.866240966796875,-0.5144568681716919,0.5826523303985596,3.193819999694824
1761396722833618200,1.8856181640625,-1.7880367040634155,0.07537391036748886,3.092125177383423
1761396722852981800,1.904981689453125,-2.3706889152526855,-0.4019941985607147,2.6368906497955322
1761396722872372500,1.92437255859375,-3.566502094268799,-1.057627558708191,1.3800604343414307
1761396722891749600,1.94374951171875,-4.886742115020752,-1.4865410327911377,-0.025722842663526535
1761396722911113500,1.963113525390625,-4.884947299957275,-1.4476577043533325,-1.2239288091659546
1761396722930504200,1.982504150390625,-3.2416765689849854,-0.7100701332092285,-1.6564314365386963
1761396722949881300,2.00188134765625,-0.20937198400497437,0.43609192967414856,-0.37866419553756714
1761396722969245000,2.021244873046875,4.928616523742676,2.803191661834717,2.4508485794067383
1761396722988635600,2.0406357421875,13.265809059143066,6.475576400756836,3.4785659313201904
1761396723008012800,2.0600126953125,20.321046829223633,9.144769668579102,3.981656789779663
1761396723027376600,2.079376708984375,21.28236198425293,11.864212989807129,7.227520942687988
1761396723046767000,2.09876708984375,20.56332015991211,12.852448463439941,11.466405868530273
1761396723066144300,2.118144287109375,20.58365821838379,11.951550483703613,12.148959159851074
1761396723085508000,2.137508056640625,17.812171936035156,10.498509407043457,8.466404914855957
1761396723104898800,2.15689892578125,13.437493324279785,9.731011390686035,4.0695929527282715
1761396723124276000,2.17627587890625,10.353145599365234,9.014959335327148,1.6528422832489014
1761396723143639600,2.1956396484375,8.268997192382812,7.750352382659912,0.6693921089172363
1761396723163030300,2.2150302734375,6.278766632080078,5.949155330657959,1.119242787361145
1761396723182407400,2.234407470703125,4.108476638793945,3.924229145050049,1.6516457796096802
1761396723201771300,2.253771240234375,2.3778674602508545,2.0344974994659424,1.6319050788879395
1761396723221161700,2.27316162109375,0.9200403094291687,0.5718846321105957,1.6313068866729736
1761396723240539100,2.2925390625,-0.2548356056213379,-0.2309073805809021,1.4368900060653687
1761396723259902700,2.31190283203125,-1.5170495510101318,-0.2512463629245758,0.14895321428775787
1761396723279293400,2.33129345703125,-2.9425735473632812,-0.5048855543136597,-1.3597214221954346
1761396723298670600,2.350670654296875,-4.084548473358154,-0.3445664644241333,-2.4335005283355713
1761396723318047700,2.3700478515625,-4.569693088531494,0.4307080805301666,-1.210768222808838
1761396723337425000,2.3894248046875,-2.4191436767578125,1.654038667678833,0.763310432434082
1761396723356802000,2.408802001953125,-0.13459627330303192,5.257031440734863,-0.26979073882102966
1761396723376166000,2.428165771484375,2.021935224533081,11.753544807434082,-0.6735795736312866
1761396723395556600,2.447556640625,15.614364624023438,15.829718589782715,5.233701229095459
1761396723414933800,2.466933837890625,34.38127136230469,13.37587833404541,16.699508666992188
1761396723434297300,2.48629736328125,38.1045036315918,12.28953742980957,19.76531410217285
1761396723453688000,2.50568798828125,30.619754791259766,10.936395645141602,16.939987182617188
1761396723473065200,2.525065185546875,21.320648193359375,9.014959335327148,12.606586456298828
1761396723492429000,2.544428955078125,11.740982055664062,7.118049144744873,7.289734363555908
1761396723511819500,2.563819580078125,4.734797954559326,5.710471153259277,3.651447296142578
1761396723531197000,2.583197021484375,-0.3397808074951172,4.051048755645752,1.6235301494598389
1761396723550560500,2.602560546875,-3.482753276824951,1.9674984216690063,0.9170492887496948
1761396723569951200,2.621951171875,-5.953342914581299,0.2153540402650833,1.2735798358917236
1761396723589328400,2.641328369140625,-7.71386194229126,-0.7830511927604675,0.4827519655227661
1761396723608692000,2.66069189453125,-8.25822925567627,-1.29810631275177,-0.8111668825149536
1761396723628082700,2.680082763671875,-7.782655715942383,-1.6295121908187866,-2.252244234085083
1761396723647459800,2.6994599609375,-6.190830230712891,-1.9555343389511108,-3.149552822113037
1761396723666823700,2.71882373046875,-3.3026933670043945,-1.7150555849075317,-3.4468610286712646
1761396723686214100,2.738214111328125,-0.9834501147270203,-1.3022937774658203,-2.6315066814422607
1761396723705591600,2.757591552734375,1.054038405418396,0.5264210104942322,-1.9579271078109741
1761396723724955100,2.776955078125,4.015754699707031,4.028316974639893,-0.08554340898990631
1761396723744345900,2.796345947265625,12.567702293395996,9.604789733886719,1.0630114078521729
1761396723763723000,2.815722900390625,23.332412719726562,13.36989688873291,8.175676345825195
1761396723783086600,2.835086669921875,31.107891082763672,13.815559387207031,17.135601043701172
1761396723802477300,2.854477294921875,31.08456039428711,11.511271476745605,24.044279098510742
1761396723821854500,2.8738544921875,26.193632125854492,9.878767967224121,20.261226654052734
1761396723841218300,2.89321826171875,19.406389236450195,8.263014793395996,11.589037895202637
1761396723860609000,2.912609130859375,14.096715927124023,7.211369037628174,4.78385066986084
1761396723879986200,2.931986083984375,11.560324668884277,6.651448726654053,1.4709876775741577
1761396723899349800,2.951349853515625,8.85224723815918,5.225924491882324,2.6087749004364014
1761396723918740500,2.970740478515625,3.9601213932037354,3.503690481185913,3.0041887760162354
1761396723938117600,2.99011767578125,-1.3357932567596436,2.504088878631592,1.6588243246078491
1761396723957481500,3.0094814453125,-5.132604598999023,1.5822539329528809,0.4325026869773865
1761396723976872200,3.0288720703125,-7.640881061553955,1.200000524520874,-0.9050851464271545
1761396723996249300,3.048249267578125,-8.973084449768066,1.0893324613571167,-2.056631088256836
1761396724015613000,3.067613037109375,-8.658429145812988,1.095314621925354,-2.774477958679199
1761396724035003600,3.087003662109375,-6.072385787963867,0.9625129103660583,-3.0275187492370605
1761396724054380800,3.106380859375,-2.517249345779419,0.7680960893630981,-2.3204398155212402
1761396724073744600,3.12574462890625,0.001794616924598813,1.3495519161224365,-0.8757730722427368
1761396724093135000,3.145135009765625,2.204387903213501,3.0927233695983887,1.2915260791778564
1761396724112512500,3.164512451171875,9.57787036895752,5.918646812438965,4.19282341003418
1761396724131876000,3.1838759765625,20.499311447143555,10.04447078704834,9.043673515319824
1761396724151266800,3.203266845703125,28.698318481445312,13.124631881713867,12.372089385986328
1761396724170644000,3.22264404296875,37.82454299926758,13.618749618530273,17.752351760864258
1761396724190007600,3.242007568359375,37.744384765625,11.368300437927246,22.83650016784668
1761396724209398300,3.261398193359375,23.068605422973633,10.926226615905762,19.78864288330078
1761396724228775400,3.280775390625,11.183454513549805,9.904491424560547,14.912070274353027
1761396724248139300,3.30013916015625,6.712465763092041,7.801199913024902,9.693922996520996
1761396724267530000,3.319530029296875,5.30548620223999,5.384449005126953,5.1667022705078125
1761396724286907100,3.3389072265625,1.174277663230896,3.177668571472168,2.9108686447143555
1761396724306270700,3.358270751953125,-1.9435701370239258,0.8602197170257568,2.9904301166534424
1761396724325661400,3.377661376953125,-3.4307093620300293,-1.5230315923690796,2.589034080505371
1761396724345038600,3.39703857421875,-4.089931964874268,-3.397808074951172,1.5541383028030396
1761396724364402200,3.416402099609375,-4.803591251373291,-4.23948335647583,0.12143574655056
1761396724383793000,3.43579296875,-5.632704734802246,-4.054637908935547,-1.7700905799865723
1761396724403170000,3.455170166015625,-6.2500529289245605,-3.081955671310425,-3.7633118629455566
1761396724422534000,3.474533935546875,-6.747161865234375,-1.8317056894302368,-4.506283283233643
1761396724441924600,3.493924560546875,-6.255436420440674,-0.5461617708206177,-3.294318675994873
1761396724461301800,3.5133017578125,-4.871787071228027,0.711864709854126,-1.724626898765564
1761396724480665300,3.532665283203125,-0.8356932997703552,5.0703911781311035,-3.404388427734375
1761396724500056000,3.55205615234375,7.610970497131348,10.73300552368164,-2.3874387741088867
1761396724519433200,3.57143310546875,24.469003677368164,15.681363105773926,5.96171760559082
1761396724538797000,3.590797119140625,34.63132095336914,16.93819236755371,16.185649871826172
1761396724558187800,3.610187744140625,25.59781837463379,17.986846923828125,18.293128967285156
1761396724577565000,3.62956494140625,17.584854125976562,16.451852798461914,15.192030906677246
1761396724596928500,3.648928466796875,16.741384506225586,12.427722930908203,10.362716674804688
1761396724616319200,3.6683193359375,12.678370475769043,9.240483283996582,4.353740692138672
1761396724635696400,3.6876962890625,7.8556365966796875,6.3732829093933105,0.7854440212249756
1761396724655060200,3.707060302734375,5.104488849639893,3.9930226802825928,-0.3475574851036072
1761396724674450700,3.72645068359375,2.5734808444976807,2.4029922485351562,0.9044869542121887
1761396724693828000,3.745828125,-1.4817553758621216,1.160519003868103,1.8975083827972412
1761396724713191700,3.765191650390625,-4.849653244018555,-0.14895321428775787,1.7324036359786987
1761396724732582400,3.78458251953125,-5.514857769012451,-0.9421738982200623,0.5126622319221497
1761396724751959600,3.80395947265625,-4.8675994873046875,-1.222732424736023,-0.46899324655532837
1761396724771336700,3.823336669921875,-4.542773723602295,-1.0390832424163818,-0.7058826684951782
1761396724790713900,3.8427138671875,-4.975276470184326,-0.6005984544754028,-0.763310432434082
1761396724810091000,3.862091064453125,-4.735994338989258,0.06759724020957947,-0.8763712644577026
1761396724829454800,3.881454833984375,-2.822932481765747,1.8131613731384277,-0.8392825126647949
1761396724848845600,3.900845458984375,3.0963125228881836,4.541577339172363,1.2664014101028442
1761396724868222700,3.92022265625,14.664413452148438,9.41755199432373,4.166502475738525
1761396724887586300,3.93958642578125,23.805593490600586,14.718850135803223,7.201199531555176
1761396724906977000,3.95897705078125,25.03730010986328,17.73021697998047,8.273183822631836
1761396724926354200,3.978354248046875,25.196422576904297,16.58884048461914,10.319047927856445
1761396724945718000,3.997718017578125,27.8841609954834,12.610175132751465,11.444870948791504
1761396724965108500,4.0171083984375,24.50728988647461,9.780064582824707,6.532405853271484
1761396724984486000,4.03648583984375,17.580068588256836,8.130212783813477,2.4263222217559814
1761396725003849500,4.055849365234375,10.576874732971191,6.437291145324707,1.5984054803848267
1761396725023240200,4.075240234375,4.964509010314941,4.414159774780273,3.448655605316162
1761396725042617300,4.094617431640625,0.9349954724311829,2.301297187805176,6.232106685638428
1761396725061981000,4.11398095703125,-2.867199659347534,0.5790630578994751,7.036693096160889
1761396725081371600,4.13337158203125,-4.9399824142456055,-1.0648061037063599,5.385047435760498
1761396725100748800,4.152748779296875,-5.226522922515869,-2.682952404022217,2.778067111968994
1761396725120112600,4.172112548828125,-6.561119556427002,-3.1381869316101074,0.18065811693668365
1761396725139503400,4.19150341796875,-9.544371604919434,-3.0317063331604004,-1.1497513055801392
1761396725158880500,4.210880615234375,-11.576476097106934,-3.026322364807129,-1.384247899055481
1761396725178244000,4.230244140625,-10.770094871520996,-3.290729284286499,-2.0297117233276367
1761396725197634800,4.249634765625,-5.956932067871094,-2.307877540588379,-1.9100706577301025
1761396725217012000,4.269011962890625,4.685146808624268,-0.5335994362831116,0.5629115104675293
1761396725236375800,4.288375732421875,17.388044357299805,3.2937204837799072,4.590630054473877
1761396725255766500,4.3077666015625,24.710081100463867,7.296314239501953,11.472986221313477
1761396725275143700,4.327143798828125,22.82453727722168,12.118450164794922,11.330015182495117
1761396725294507300,4.34650732421875,19.399211883544922,14.983855247497559,14.776278495788574
1761396725313898000,4.36589794921875,18.555143356323242,13.697712898254395,24.80519676208496
1761396725333275100,4.385275146484375,17.63031768798828,11.037492752075195,25.472793579101562
1761396725352638700,4.404638671875,15.52642822265625,9.155537605285645,13.442877769470215
1761396725372029400,4.424029541015625,16.511672973632812,7.654041290283203,4.752744197845459
1761396725391406600,4.443406494140625,15.632309913635254,6.390032768249512,3.8745779991149902
1761396725410770400,4.4627705078125,8.703892707824707,4.884947299957275,4.3411784172058105
1761396725430161200,4.4821611328125,0.9511470198631287,3.765106439590454,3.8608193397521973
1761396725449538300,4.501538330078125,-3.776472330093384,3.043670415878296,3.4618160724639893
1761396725468902000,4.52090185546875,-5.856433391571045,2.4466612339019775,2.272583246231079
1761396725488292600,4.540292724609375,-6.586244106292725,2.2259232997894287,0.11066804826259613
1761396725507669800,4.559669677734375,-6.919445037841797,2.0165512561798096,-1.181456208229065
1761396725527033600,4.57903369140625,-7.87777042388916,2.400001049041748,-1.2939188480377197
1761396725546424300,4.59842431640625,-8.180462837219238,2.9359934329986572,-0.29431718587875366
1761396725565801500,4.617801513671875,-3.834498405456543,4.075575351715088,-0.41874396800994873
1761396725585165000,4.6371650390625,5.30847692489624,6.461817741394043,2.2366909980773926
1761396725604555800,4.6565556640625,20.816959381103516,7.15513801574707,11.7326078414917
1761396725623933000,4.675932861328125,29.00998306274414,8.380263328552246,15.490535736083984
1761396725643296500,4.695296630859375,26.58306312561035,10.03310489654541,14.274981498718262
1761396725662687200,4.714687255859375,24.164518356323242,10.551151275634766,10.931610107421875
1761396725682064400,4.734064453125,28.959136962890625,8.827720642089844,7.772486209869385
1761396725701428200,4.75342822265625,29.294729232788086,6.113661766052246,7.908876895904541
1761396725720819000,4.77281884765625,24.45883560180664,4.990829944610596,5.891129493713379
1761396725740196000,4.792196044921875,15.730416297912598,4.004388809204102,3.559921979904175
1761396725759559700,4.8115595703125,5.7996039390563965,3.411566972732544,1.2658032178878784
1761396725778950400,4.830950439453125,-0.9355936646461487,3.063411235809326,-1.9680966138839722
1761396725798327600,4.85032763671875,-4.06121826171875,2.5645077228546143,-2.523829698562622
1761396725817691400,4.86969140625,-6.184250354766846,1.2747762203216553,-1.4327025413513184
1761396725837081900,4.889081787109375,-8.49152946472168,-0.349352091550827,-0.6783652305603027
1761396725856459300,4.908459228515625,-7.479963779449463,-1.1341979503631592,-0.5228317379951477
1761396725875822800,4.92782275390625,-3.964907169342041,-0.5353940725326538,0.2273181527853012
1761396725895213600,4.947213623046875,-1.0277173519134521,0.2231307178735733,2.1846470832824707
1761396725914590700,4.9665908203125,1.2221341133117676,1.612762451171875,1.3986048698425293
1761396725933954300,4.985954345703125,3.7118661403656006,2.6739792823791504,-0.29312077164649963
1761396725953345000,5.005344970703125,6.113661766052246,3.487539052963257,0.5138586759567261
1761396725972722200,5.02472216796875,7.650452136993408,5.337789058685303,1.1240284442901611
1761396725992086000,5.0440859375,9.644869804382324,7.5427751541137695,-1.3244273662567139
1761396726011476700,5.063476806640625,10.799407005310059,10.600802421569824,-1.3980066776275635
1761396726030854000,5.08285400390625,6.973283290863037,13.890335083007812,-0.33499518036842346
1761396726050217500,5.102217529296875,3.3649067878723145,14.927623748779297,-0.534795880317688
1761396726069608200,5.121608154296875,8.033902168273926,14.339588165283203,-0.4570291340351105
1761396726088985300,5.1409853515625,14.024931907653809,12.509676933288574,-0.061016976833343506
1761396726108349200,5.16034912109375,17.440685272216797,11.274980545043945,-0.7178468108177185
1761396726127740000,5.179739990234375,15.830914497375488,10.083354949951172,1.0211371183395386
1761396726147117000,5.199116943359375,8.233104705810547,8.735597610473633,1.648654818534851
1761396726166480600,5.218480712890625,0.6424728631973267,7.229315280914307,0.06340979784727097
1761396726185871400,5.237871337890625,-1.812563180923462,5.612963676452637,-0.5030909776687622
1761396726205248500,5.25724853515625,-1.1126625537872314,3.686741590499878,-0.45224347710609436
1761396726224612400,5.2766123046875,1.6785650253295898,2.221137523651123,0.05802594870328903
1761396726244002800,5.2960029296875,4.324428558349609,1.5278172492980957,1.5308083295822144
1761396726263380200,5.315380126953125,4.298107624053955,1.4715858697891235,1.8532410860061646
1761396726282757400,5.33475732421875,2.4981069564819336,1.1072787046432495,1.9208383560180664
1761396726302134500,5.354134521484375,4.36809778213501,1.5337992906570435,2.1068804264068604
1761396726321511700,5.37351171875,5.925825119018555,3.002394199371338,1.5852450132369995
1761396726340875300,5.392875244140625,6.0466628074646,4.537389755249023,1.5002998113632202
1761396726360266000,5.412265869140625,6.602396011352539,6.836892604827881,1.3591232299804688
1761396726379643100,5.43164306640625,8.975478172302246,9.612566947937012,0.4983053207397461
1761396726399007000,5.451007080078125,10.650453567504883,10.767104148864746,0.9655039310455322
1761396726418397700,5.470397705078125,9.763314247131348,11.21635627746582,-0.267397940158844
1761396726437774800,5.48977490234375,7.201199531555176,13.797613143920898,-3.4169507026672363
1761396726457138400,5.509138427734375,7.261618614196777,13.675580024719238,-4.662415027618408
1761396726476529200,5.528529052734375,11.92343521118164,12.172886848449707,-4.185046672821045
1761396726495906300,5.54790625,15.99721622467041,10.04985523223877,-2.4508485794067383
1761396726515270100,5.567270263671875,15.67358684539795,8.179265975952148,0.97926265001297
1761396726534660600,5.58666064453125,10.30469036102295,6.511468410491943,3.01196551322937
1761396726554038000,5.6060380859375,4.381856441497803,5.672784328460693,1.4470595121383667
1761396726573401600,5.625401611328125,0.48574298620224,4.851448059082031,0.23210379481315613
1761396726592792300,5.644792236328125,-0.054436713457107544,3.477369546890259,0.519242525100708
1761396726612169500,5.66416943359375,2.8426733016967773,2.2857437133789062,0.8787640929222107
1761396726631533000,5.683532958984375,6.078367710113525,1.3525429964065552,1.1365907192230225
1761396726650923800,5.702923828125,6.7316083908081055,0.7238288521766663,1.2394821643829346
1761396726670301000,5.722301025390625,4.679762840270996,0.8177471160888672,0.41934216022491455
1761396726689664800,5.741664794921875,2.0919251441955566,1.2795618772506714,-0.41216370463371277
1761396726709055500,5.761055419921875,0.9535398483276367,2.160120725631714,-1.0163514614105225
1761396726728432600,5.7804326171875,1.3866406679153442,3.5090744495391846,-0.8488538265228271
1761396726747796200,5.799796142578125,4.119842529296875,4.625924587249756,0.898504912853241
1761396726767187000,5.81918701171875,7.94297456741333,7.681559085845947,-0.24406790733337402
1761396726786564000,5.838564208984375,8.535796165466309,11.24207878112793,-2.496312141418457
1761396726805928000,5.857927978515625,6.993622303009033,12.879965782165527,0.11306086927652359
1761396726825318700,5.877318603515625,12.04666519165039,14.563915252685547,0.8249256014823914
1761396726844695800,5.89669580078125,16.570297241210938,13.175479888916016,2.1649062633514404
1761396726864059400,5.916059326171875,20.531614303588867,12.145967483520508,2.5082762241363525
1761396726883450000,5.9354501953125,18.784854888916016,10.680363655090332,5.296513080596924
1761396726902827300,5.9548271484375,11.911471366882324,9.154341697692871,5.78345251083374
1761396726922191000,5.974191162109375,5.0327043533325195,8.341978073120117,2.4233310222625732
1761396726941581600,5.99358154296875,1.7467604875564575,7.419544696807861,0.2063809484243393
1761396726960959000,6.012958984375,0.5126622319221497,6.478567123413086,-0.0077766734175384045
1761396726980322600,6.032322509765625,-0.31764721870422363,4.8466620445251465,0.8488538265228271
1761396726999713300,6.05171337890625,-0.9278169870376587,3.1555347442626953,1.3202399015426636
1761396727019090400,6.07109033203125,-0.4253242313861847,1.9657038450241089,0.8009973764419556
1761396727038454000,6.0904541015625,0.0077766734175384045,1.5643078088760376,-0.10229317098855972
1761396727057844700,6.1098447265625,0.09391828626394272,1.363310694694519,-0.1178465187549591
1761396727077222000,6.129221923828125,-0.05563312768936157,1.3549357652664185,0.7058826684951782
1761396727096599000,6.14859912109375,-0.6981059908866882,1.797009825706482,0.7597211599349976
1761396727115976400,6.1679765625,-0.5078766345977783,2.524427890777588,0.9260223507881165
1761396727135353600,6.187353515625,1.679761528968811,4.706682205200195,0.03409772366285324
1761396727154717200,6.20671728515625,5.210371494293213,8.736793518066406,-2.115255117416382
1761396727174108000,6.22610791015625,9.631709098815918,14.304293632507324,-3.600001573562622
1761396727193485000,6.245485107421875,13.612768173217773,17.88216209411621,0.4019941985607147
1761396727212849000,6.264848876953125,20.73560333251953,13.24965763092041,8.659625053405762
1761396727232239400,6.2842392578125,29.134410858154297,5.218746185302734,13.130614280700684
1761396727251616800,6.30361669921875,25.021148681640625,0.8488538265228271,9.794421195983887
1761396727270980400,6.32298046875,20.761924743652344,-0.06520441919565201,2.6386852264404297
1761396727290371000,6.34237109375,19.785053253173828,-1.2029916048049927,0.020937198773026466
1761396727309748200,6.361748291015625,17.34138298034668,-0.753140926361084,-1.8400806188583374
1761396727329111800,6.38111181640625,13.253246307373047,0.04127619042992592,-1.043868899345398
1761396727348502500,6.40050244140625,8.952147483825684,0.924227774143219,2.8007988929748535
1761396727367879700,6.419879638671875,5.037489891052246,1.3310075998306274,6.655636310577393
1761396727387243500,6.439243408203125,0.31345975399017334,1.7383856773376465,6.625127792358398
1761396727406634200,6.45863427734375,-2.6763720512390137,1.688136339187622,4.987240791320801
1761396727426011400,6.478011474609375,-3.7226338386535645,2.048854351043701,3.9529430866241455
1761396727445375000,6.497375,-5.140979290008545,2.0967109203338623,3.8943188190460205
1761396727464765700,6.516765625,-5.977869033813477,1.9926230907440186,3.965505361557007
1761396727484142800,6.536142822265625,-4.718646049499512,2.7942185401916504,3.3655049800872803
1761396727503506700,6.555506591796875,-3.941577196121216,4.828117847442627,0.7603194117546082
1761396727522897400,6.5748974609375,-3.903291940689087,8.224729537963867,-3.9768712520599365
1761396727542274600,6.594274658203125,-2.08713960647583,12.305688858032227,-7.878966808319092
1761396727561638100,6.61363818359375,12.234501838684082,10.945966720581055,1.4039887189865112
1761396727581028900,6.63302880859375,36.117862701416016,3.171088218688965,12.483355522155762
1761396727600406000,6.652406005859375,45.820159912109375,-4.463212490081787,9.667003631591797
1761396727619769900,6.671769775390625,33.977481842041016,1.46500563621521,-6.430112838745117
1761396727639160300,6.691160400390625,27.10110855102539,2.5328028202056885,-5.31984281539917
1761396727658537700,6.710537841796875,21.38525390625,3.544966697692871,-2.6608188152313232
1761396727677901300,6.7299013671875,11.48375415802002,4.082753658294678,-1.6618152856826782
1761396727697292000,6.7492919921875,3.212364435195923,4.371686935424805,-0.17766708135604858
1761396727716669200,6.768669189453125,0.28594231605529785,3.8392839431762695,1.7126628160476685
1761396727736032800,6.78803271484375,0.49172505736351013,2.977867841720581,4.105485439300537
1761396727755423500,6.807423583984375,-0.04007977992296219,2.843271493911743,3.1166515350341797
1761396727774800600,6.826800537109375,-0.8566305041313171,2.816950559616089,1.2011969089508057
1761396727794164500,6.84616455078125,-0.7663014531135559,2.820539712905884,-0.07657032459974289
1761396727813555200,6.86555517578125,-1.1832507848739624,2.894717216491699,-0.34695929288864136
1761396727832932400,6.884932373046875,-1.4123635292053223,3.7806596755981445,-1.2544373273849487
1761396727852296000,6.9042958984375,-1.0965110063552856,5.861817359924316,-3.1962127685546875
1761396727871686700,6.923686767578125,4.947160720825195,7.4123663902282715,-4.206582069396973
1761396727891063800,6.943063720703125,16.77069664001465,9.494720458984375,-5.682953834533691
1761396727910427400,6.962427490234375,21.850059509277344,12.254242897033691,-7.761718273162842
1761396727929818000,6.981818115234375,19.603199005126953,11.92642593383789,-4.405186653137207
1761396727949195500,7.001195556640625,21.177677154541016,10.17727279663086,2.1547367572784424
1761396727968559000,7.02055908203125,22.785654067993164,7.072585582733154,6.038886070251465
1761396727987949800,7.03994970703125,15.226726531982422,5.234897613525391,2.547757863998413
1761396728007327000,7.059326904296875,10.48953628540039,4.324428558349609,0.23988047242164612
1761396728026690600,7.078690673828125,9.266803741455078,3.2626137733459473,1.0689935684204102
1761396728046081300,7.098081298828125,7.4470624923706055,2.868396043777466,-0.34576287865638733
1761396728065458400,7.11745849609375,3.6089746952056885,2.1672990322113037,-0.9936196208000183
1761396728084822300,7.136822265625,0.44386860728263855,0.9780662655830383,0.6299105882644653
1761396728104213000,7.156212890625,-1.4662020206451416,0.07836493849754333,1.960319995880127
1761396728123590100,7.175590087890625,-2.720639228820801,0.15613168478012085,1.3938192129135132
1761396728142953700,7.19495361328125,-3.111865758895874,0.4821537733078003,-0.029910283163189888
1761396728162344400,7.214344482421875,-4.18564510345459,1.2269197702407837,-0.7740781307220459
1761396728181721600,7.2337216796875,-4.788636207580566,1.7892330884933472,-0.7794619798660278
1761396728201085400,7.25308544921875,-2.746960401535034,2.1774685382843018,-1.4500504732131958
1761396728220476000,7.272475830078125,0.015553346835076809,2.7254250049591064,-2.303689956665039
1761396728239853000,7.29185302734375,4.027120590209961,4.66660213470459,-3.1316065788269043
1761396728259217000,7.311216796875,11.80020523071289,7.661818027496338,-2.2193429470062256
1761396728278607600,7.330607666015625,16.927425384521484,13.173087120056152,-0.9571290612220764
1761396728297984800,7.34998486328125,24.43012046813965,10.022337913513184,7.0923261642456055
1761396728317348400,7.369348388671875,34.956146240234375,8.407182693481445,6.280561447143555
1761396728336739000,7.388739013671875,33.12025451660156,8.781061172485352,0.966102123260498
1761396728356116200,7.4081162109375,24.76810646057129,10.256834030151367,-0.6717849373817444
1761396728375480000,7.42747998046875,15.640087127685547,11.301301002502441,-0.5611169338226318
1761396728394870800,7.446870849609375,6.763313293457031,10.794022560119629,0.3361915946006775
1761396728414248000,7.466248046875,0.8739784955978394,8.81515884399414,0.1740778535604477
1761396728433611500,7.485611572265625,-1.2406785488128662,6.559325218200684,-1.052243709564209
1761396728453002200,7.505002197265625,-3.638286828994751,4.071985721588135,0.12023933976888657
1761396728472379400,7.52437939453125,-5.240281581878662,0.8195417523384094,2.1379871368408203
1761396728491743200,7.5437431640625,-3.8596229553222656,-1.1910275220870972,0.7752745151519775
1761396728511133700,7.5631337890625,-1.657029628753662,-1.9040886163711548,-1.5242279767990112
1761396728530511000,7.582510986328125,-0.33020952343940735,-2.072782516479492,-3.290131092071533
1761396728549888300,7.60188818359375,-1.098305583000183,-1.3489537239074707,-2.4269204139709473
1761396728569265400,7.621265380859375,-3.0173492431640625,-0.2350948303937912,0.5964110493659973
1761396728588642600,7.640642578125,-3.1483564376831055,0.6185446381568909,1.1892328262329102
1761396728608006100,7.660006103515625,0.36610186100006104,1.906481385231018,-0.5527420043945312
1761396728627396900,7.67939697265625,7.859225749969482,3.8057844638824463,0.06640082597732544
1761396728646774000,7.69877392578125,16.460824966430664,7.10847806930542,-0.7962117195129395
1761396728666137900,7.718137939453125,19.865812301635742,11.630912780761719,-2.103889226913452
1761396728685528600,7.737528564453125,20.10569190979004,14.269598007202148,1.8376877307891846
1761396728704905700,7.75690576171875,25.78146743774414,13.37587833404541,4.109673023223877
1761396728724269300,7.776269287109375,30.48037338256836,11.148160934448242,4.595416069030762
1761396728743660000,7.795659912109375,29.491539001464844,9.352347373962402,3.2745778560638428
1761396728763037200,7.815037109375,25.287349700927734,8.854640007019043,0.09631111472845078
1761396728782401000,7.834401123046875,16.575679779052734,7.99800968170166,-0.8159525394439697
1761396728801791500,7.85379150390625,7.5708909034729,6.343372821807861,-0.20039889216423035
1761396728821169000,7.8731689453125,2.874976396560669,4.106083869934082,0.137587308883667
1761396728840532500,7.892532470703125,0.22372891008853912,2.0715861320495605,1.7389838695526123
1761396728859923200,7.911923095703125,-2.9204399585723877,0.49591249227523804,3.171088218688965
1761396728879300400,7.93130029296875,-6.495316982269287,0.08195417374372482,3.5958142280578613
1761396728898664000,7.950663818359375,-8.266005516052246,-0.5539384484291077,1.7754744291305542
1761396728918054700,7.9700546875,-7.785048484802246,-1.5583257675170898,-0.2560320198535919
1761396728937431800,7.989431884765625,-5.896512985229492,-1.9507486820220947,-1.846660852432251
1761396728956795600,8.008795654296875,-4.2556352615356445,-1.8454644680023193,-2.5639095306396484
1761396728976186400,8.028186279296875,-2.748156785964966,-1.1300104856491089,-3.2135608196258545
1761396728995563500,8.0475634765625,-1.5852450132369995,0.20398813486099243,-3.008974552154541
1761396729014927000,8.066927001953125,0.8177471160888672,3.2895328998565674,-2.276172637939453
1761396729034317800,8.08631787109375,7.458428382873535,7.424928665161133,-1.2161520719528198
1761396729053695000,8.105695068359376,16.518850326538086,11.43529987335205,4.098307132720947
1761396729073058800,8.125058837890625,27.65863609313965,13.229318618774414,11.614761352539062
1761396729092449300,8.14444921875,37.03969955444336,13.390235900878906,12.509078979492188
1761396729111826700,8.16382666015625,35.133216857910156,14.113466262817383,9.446864128112793
1761396729131190300,8.183190185546875,33.096923828125,13.677373886108398,8.219346046447754
1761396729150581000,8.2025810546875,28.275386810302734,12.544970512390137,6.534200668334961
1761396729169958100,8.221958251953126,18.897315979003906,9.955936431884766,5.36351203918457
1761396729189321700,8.24132177734375,10.207781791687012,7.165307521820068,5.4759745597839355
1761396729208712400,8.26071240234375,3.507279872894287,4.149752616882324,4.995017051696777
1761396729228089600,8.280089599609376,-1.9980069398880005,1.0115658044815063,5.405386447906494
1761396729247453400,8.299453369140625,-7.128817081451416,-1.007378339767456,4.684548377990723
1761396729266844200,8.31884423828125,-11.044073104858398,-2.4149563312530518,2.4083759784698486
1761396729286221300,8.33822119140625,-11.845069885253906,-2.9718856811523438,-0.11904292553663254
1761396729305585000,8.3575849609375,-11.09073257446289,-3.3338000774383545,-2.15653133392334
1761396729324975600,8.3769755859375,-10.353145599365234,-4.000201225280762,-2.933002471923828
1761396729344352800,8.396352783203126,-8.270791053771973,-4.446462631225586,-3.3858439922332764
1761396729363716600,8.415716552734375,-6.711269378662109,-4.276572227478027,-3.923032760620117
1761396729383107000,8.435107177734375,-5.563910961151123,-2.9252257347106934,-5.770890235900879
1761396729402484500,8.454484375,-4.074976921081543,-1.0031908750534058,-6.0023956298828125
1761396729421848000,8.47384814453125,0.9206385016441345,2.5118656158447266,-4.587040901184082
1761396729441238800,8.49323876953125,8.397012710571289,8.773882865905762,-1.6079767942428589
1761396729460616000,8.512615966796876,19.051654815673828,15.380465507507324,5.828317642211914
1761396729479979500,8.5319794921875,35.70270919799805,16.212570190429688,13.173087120056152
1761396729499370200,8.551370361328125,49.28377151489258,15.313467025756836,17.843875885009766
1761396729518747400,8.570747314453126,49.78207778930664,14.639886856079102,13.479966163635254
1761396729538111200,8.590111328125,41.28456497192383,14.715261459350586,5.31685209274292
1761396729557502000,8.609501953125,31.721649169921875,13.103694915771484,3.248854875564575
1761396729576879000,8.628879150390626,19.057037353515625,10.016355514526367,7.0785675048828125
1761396729596242700,8.64824267578125,5.518447399139404,6.245266914367676,9.699904441833496
1761396729615633400,8.66763330078125,-3.9182469844818115,1.9830517768859863,8.49033260345459
1761396729635010600,8.687010498046876,-10.280762672424316,-2.892324447631836,4.9399824142456055
1761396729654374400,8.70637451171875,-12.336196899414062,-5.7134623527526855,-1.1694921255111694
1761396729673764900,8.725764892578125,-9.717850685119629,-6.935596466064453,-4.935794830322266
1761396729693142000,8.74514208984375,-5.821139335632324,-6.798607349395752,-6.670591354370117
1761396729712505900,8.764505859375,-4.539782524108887,-5.255236625671387,-7.347161769866943
1761396729731896600,8.783896484375,-4.990231513977051,-3.3954153060913086,-7.234699249267578
1761396729751273700,8.803273681640626,-5.425127029418945,-1.9028922319412231,-4.008575916290283
1761396729770637300,8.82263720703125,-4.41475772857666,-0.916451096534729,-0.6604190468788147
1761396729790028000,8.842028076171875,1.2921242713928223,6.771687984466553,-7.462615489959717
1761396729809405200,8.8614052734375,-0.30149564146995544,6.2051873207092285,-2.2301106452941895
1761396729828769000,8.88076904296875,12.859028816223145,6.375676155090332,4.727021217346191
1761396729848159700,8.90015966796875,25.56132698059082,8.248658180236816,4.55055046081543
1761396729867537000,8.919536865234376,21.0783748626709,13.074980735778809,-1.6767704486846924
1761396729886900500,8.938900390625,12.928421020507812,14.726627349853516,-2.3294129371643066
1761396729906291200,8.958291259765625,13.695919036865234,16.240087509155273,-2.641676187515259
1761396729925668400,8.97766845703125,12.228520393371582,16.7318115234375,-5.218746185302734
1761396729945032200,8.9970322265625,10.289137840270996,16.088741302490234,-6.50907564163208
1761396729964422700,9.016422607421875,8.821739196777344,14.55494213104248,-7.3292155265808105
1761396729983800000,9.035800048828126,9.309276580810547,10.990234375,-1.454237937927246
1761396730003163600,9.05516357421875,7.226922512054443,7.624131202697754,1.4859428405761719
1761396730022554400,9.074554443359375,4.813760757446289,4.961517810821533,0.47796630859375
1761396730041931500,9.093931640625,5.947958946228027,2.7966115474700928,-0.34636107087135315
1761396730061295000,9.113295166015625,7.428517818450928,1.4763715267181396,0.31465616822242737
1761396730080685800,9.132685791015625,4.047459602355957,0.9774680733680725,1.194616675376892
1761396730100063000,9.15206298828125,0.5569294691085815,1.5212370157241821,1.852044701576233
1761396730119426800,9.1714267578125,-1.6289139986038208,1.6755740642547607,2.7379872798919678
1761396730138817500,9.190817626953125,-1.3782658576965332,2.8037898540496826,1.5158531665802002
1761396730158194700,9.210194580078126,1.6917256116867065,3.5365917682647705,-0.544965386390686
1761396730177558300,9.229558349609375,2.562713146209717,4.895715236663818,-0.5156532526016235
1761396730196949000,9.248948974609375,1.5780665874481201,5.972485542297363,-0.137587308883667
1761396730216326100,9.268326171875,4.237090587615967,8.051250457763672,-0.11485548317432404
1761396730235689700,9.287689697265625,4.982454776763916,10.65523910522461,-1.3549357652664185
1761396730255080400,9.30708056640625,4.111467361450195,13.421341896057129,-2.0129621028900146
1761396730274457600,9.32645751953125,4.196412563323975,14.178670883178711,1.3764712810516357
1761396730293821400,9.345821533203125,6.632306098937988,14.783456802368164,1.4847464561462402
1761396730313212200,9.365212158203125,7.4811601638793945,16.23111343383789,-0.7052844762802124
1761396730332589300,9.38458935546875,5.447260856628418,17.21755599975586,-3.3996028900146484
1761396730351953000,9.403952880859375,6.259624004364014,17.142181396484375,-3.026322364807129
1761396730371343600,9.423343505859375,8.335397720336914,14.831313133239746,2.3150558471679688
1761396730390720800,9.442720703125,5.008177757263184,11.917452812194824,5.928816318511963
1761396730410084600,9.462084716796875,-0.3529413342475891,8.912666320800781,4.72582483291626
1761396730429475300,9.481475341796875,-2.7038896083831787,5.848058700561523,2.6153552532196045
1761396730448852500,9.5008525390625,0.714257538318634,3.6604204177856445,0.7387840151786804
1761396730468216000,9.520216064453125,4.663012981414795,2.011765718460083,-0.7034898400306702
1761396730487606800,9.539606689453125,5.130809783935547,1.4189438819885254,-0.97926265001297
1761396730506984000,9.55898388671875,1.9579271078109741,0.9314061999320984,-0.28893333673477173
1761396730526347800,9.57834765625,0.05563312768936157,0.8303094506263733,-0.41934216022491455
1761396730545738200,9.59773828125,0.6532405614852905,1.3561322689056396,-0.6209374666213989
1761396730565115600,9.61711572265625,1.339382529258728,2.1720848083496094,-0.7740781307220459
1761396730584479200,9.636479248046875,1.929213285446167,3.7704901695251465,-2.1056840419769287
1761396730603870000,9.655869873046875,2.8839495182037354,5.79481840133667,-2.162513494491577
1761396730623247000,9.6752470703125,3.6257245540618896,8.82652473449707,-0.9421738982200623
1761396730642610700,9.694610595703125,3.5946178436279297,11.995220184326172,-1.2741780281066895
1761396730662001400,9.71400146484375,2.6775684356689453,14.295320510864258,-4.780261516571045
1761396730681378600,9.733378662109375,0.17347964644432068,15.06999683380127,-4.578067779541016
1761396730700742400,9.752742431640625,2.7457640171051025,17.018951416015625,-4.695914268493652
1761396730720133000,9.772133056640625,5.544169902801514,16.6654109954834,-5.286343574523926
1761396730739510300,9.79151025390625,7.990232944488525,14.712868690490723,-4.231108665466309
1761396730758873900,9.810873779296875,8.50588607788086,11.820544242858887,-2.5465614795684814
1761396730778264600,9.8302646484375,8.407182693481445,9.422935485839844,-0.4420739710330963
1761396730797641700,9.849641845703125,4.895116806030273,7.139584541320801,2.3772692680358887
1761396730817005300,9.86900537109375,-0.08614161610603333,5.150550842285156,2.9001009464263916
1761396730836396000,9.88839599609375,-1.534995675086975,3.2057840824127197,2.111067771911621
1761396730855773200,9.907773193359375,2.8283164501190186,2.2683959007263184,0.16929219663143158
1761396730875137000,9.927136962890625,6.285944938659668,1.6671991348266602,-0.4492524564266205
1761396730894527700,9.94652783203125,5.629115104675293,1.4644074440002441,0.052043892443180084
1761396730913905000,9.96590478515625,4.295714855194092,1.5607185363769531,1.425524115562439
1761396730933268500,9.9852685546875,2.7116663455963135,2.214557409286499,2.4287149906158447
1761396730952659200,10.0046591796875,1.1940184831619263,3.092125177383423,1.8831514120101929
1761396730972036400,10.024036376953125,3.002394199371338,4.132404804229736,0.6693921089172363
1761396730991400200,10.043400146484375,8.62313461303711,6.125027656555176,-2.0476579666137695
1761396731010790700,10.062790771484375,8.525627136230469,9.704092025756836,-3.6370904445648193
1761396731030168000,10.08216796875,0.4217349886894226,14.68654727935791,-5.892923831939697
1761396731049531600,10.10153173828125,-6.048457622528076,17.222938537597656,-5.1565327644348145
1761396731068922400,10.12092236328125,0.9936196208000183,17.700307846069336,-2.117648124694824
1761396731088299500,10.140299560546875,13.52303695678711,17.769699096679688,-2.815753936767578
1761396731107663000,10.1596630859375,20.124237060546875,18.744773864746094,-3.5503506660461426
1761396731127053800,10.1790537109375,14.401203155517578,18.306289672851562,-1.551147222518921
1761396731146431000,10.198430908203125,8.37547779083252,15.592828750610352,2.569293260574341
1761396731165794800,10.217794921875,4.5445685386657715,12.010174751281738,2.121237277984619
1761396731185185500,10.237185546875,4.066003799438477,9.027522087097168,-0.849452018737793
1761396731204562700,10.256562744140625,5.066802024841309,6.702296257019043,-1.6019947528839111
1761396731223926300,10.27592626953125,5.102096080780029,5.0015974044799805,-0.11006984114646912
1761396731243317000,10.29531689453125,2.222334146499634,3.5473594665527344,1.1940184831619263
1761396731262694100,10.314694091796875,1.954936146736145,2.0919251441955566,0.8913264274597168
1761396731282058000,10.33405810546875,4.53499698638916,1.0516455173492432,0.5569294691085815
1761396731301448400,10.353448486328125,6.3840508460998535,0.7483552694320679,0.6664010882377625
1761396731320825900,10.372825927734375,5.816951751708984,1.1850453615188599,0.6221339106559753
1761396731340189400,10.392189453125,2.8342983722686768,2.1098713874816895,0.3445664644241333
1761396731359580200,10.411580078125,1.409970760345459,3.298506021499634,-0.047258246690034866
1761396731378957300,10.430957275390625,2.5495524406433105,5.410770416259766,-0.714257538318634
1761396731398321000,10.45032080078125,3.1351959705352783,8.137392044067383,-1.8215361833572388
1761396731417711600,10.469711669921875,6.493522644042969,10.41894817352295,-2.2570300102233887
1761396731437088800,10.4890888671875,10.946565628051758,12.488739967346191,-2.5782663822174072
1761396731456452600,10.50845263671875,8.876773834228516,13.408780097961426,-1.9669002294540405
1761396731475843300,10.52784326171875,5.3353962898254395,14.10688591003418,-0.8273184299468994
1761396731495220500,10.547220458984375,6.4289164543151855,15.126826286315918,-1.8616160154342651
1761396731514584000,10.566583984375,9.503094673156738,15.268601417541504,-3.7423746585845947
1761396731533974800,10.585974853515625,11.438888549804688,13.74915885925293,-2.5950162410736084
1761396731553352000,10.60535205078125,13.1365966796875,11.916854858398438,-1.6289139986038208
1761396731572715500,10.624715576171875,8.645268440246582,8.86062240600586,-0.36191442608833313
1761396731592106200,10.644106201171875,3.0903303623199463,6.925426959991455,-2.079961061477661
1761396731611483400,10.6634833984375,1.8634105920791626,5.900700569152832,-3.0753753185272217
1761396731630847200,10.68284716796875,4.085744857788086,3.8985064029693604,-1.4620146751403809
1761396731650238000,10.702238037109375,5.466403484344482,2.4059832096099854,0.28893333673477173
1761396731669615000,10.721614990234375,7.095317363739014,1.5601203441619873,2.237887382507324
1761396731688978700,10.740978759765625,6.442076683044434,1.3357932567596436,1.887937068939209
1761396731708369400,10.760369384765625,4.484747886657715,1.194616675376892,0.45284169912338257
1761396731727746600,10.77974658203125,2.48315167427063,2.094916343688965,-0.7214360237121582
1761396731747110100,10.799110107421875,-0.6370890140533447,3.0837502479553223,-0.672383189201355
1761396731766500900,10.8185009765625,-0.05383851006627083,4.512863636016846,-0.9355936646461487
1761396731785878000,10.8378779296875,4.579862594604492,6.5252275466918945,-1.9621145725250244
1761396731805241900,10.857241943359375,7.487142086029053,9.20698356628418,-3.047259569168091
1761396731824632600,10.876632568359375,2.9557342529296875,11.782258987426758,-4.799404144287109
1761396731844009700,10.896009765625,-0.46839502453804016,11.974881172180176,-1.6037893295288086
1761396731863373300,10.915373291015625,7.622336387634277,12.473784446716309,-1.017547845840454
1761396731882764000,10.934763916015624,15.285350799560547,12.780065536499023,-6.03110933303833
1761396731902141200,10.95414111328125,14.318650245666504,12.982857704162598,-6.482156753540039
1761396731921505000,10.973505126953125,10.056435585021973,13.748560905456543,-3.9846479892730713
1761396731940895700,10.992895751953125,8.099106788635254,13.772488594055176,-0.9619147181510925
1761396731960273000,11.01227294921875,4.794020175933838,11.239686012268066,3.043670415878296
1761396731979636500,11.031636474609375,3.968496322631836,7.995616912841797,2.846860647201538
1761396731999027200,11.051027099609374,7.421339511871338,6.4426751136779785,-2.651845693588257
1761396732018404400,11.070404296875,8.2157564163208,5.974279880523682,-3.8919260501861572
1761396732037768000,11.089767822265625,5.956932067871094,4.941178798675537,0.7310073375701904
1761396732057158700,11.10915869140625,4.137190341949463,4.222733974456787,1.7377874851226807
1761396732076535800,11.128535888671875,3.3032915592193604,3.7220356464385986,0.3607180118560791
1761396732095899600,11.147899658203125,3.903291940689087,2.774477958679199,1.4937195777893066
1761396732115290400,11.167290283203124,7.232306480407715,2.510071039199829,-0.08135596662759781
1761396732134667500,11.18666748046875,6.589235305786133,2.958127021789551,-2.833101987838745
1761396732154031000,11.206031005859375,4.343571186065674,2.6428725719451904,1.2197413444519043
1761396732173421800,11.225421875,4.010969161987305,2.8689942359924316,0.4019941985607147
1761396732192799000,11.244799072265625,4.320241451263428,3.7435710430145264,-1.973480463027954
