time,seconds_elapsed,z,y,x
1761396721088551700,0.1405517578125,0.024433890357613564,-0.07956285774707794,-0.07238540053367615
1761396721107928800,0.1599287109375,0.04856235533952713,-0.17149536311626434,0.13499724864959717
1761396721127306000,0.179305908203125,0.027946261689066887,-0.22845686972141266,0.349251925945282
1761396721146683100,0.19868310546875,-0.010231691412627697,-0.2570139765739441,0.39170581102371216
1761396721166060300,0.218060302734375,-0.0032069480512291193,-0.2858765125274658,0.21288026869297028
1761396721185437400,0.2374375,0.04352286830544472,-0.27091076970100403,-0.07238540053367615
1761396721204814600,0.256814697265625,0.06917845457792282,-0.2658712565898895,-0.2764083743095398
1761396721224192000,0.27619189453125,0.08765657991170883,-0.4172086715698242,-0.2510582208633423
1761396721243569200,0.295569091796875,-0.007788302376866341,-0.5372401475906372,0.05238015204668045
1761396721262946300,0.3149462890625,-0.2658712565898895,-0.5132644176483154,0.48394373059272766
1761396721301700600,0.35370068359375,-0.73255854845047,0.576487123966217,1.3096565008163452
1761396721321077800,0.373077880859375,-0.5297572612762451,0.7450809478759766,1.197871446609497
1761396721340441300,0.39244140625,-0.26312246918678284,0.7763868570327759,0.6403206586837769
1761396721359832000,0.41183203125,0.09605573117733002,1.0602781772613525,-0.07635590434074402
1761396721379209200,0.431209228515625,0.28251686692237854,0.569004237651825,-0.6351284384727478
1761396721398573000,0.450572998046875,0.3423798978328705,-0.6462764143943787,-0.7427902817726135
1761396721417963800,0.4699638671875,0.25121092796325684,-1.556591510772705,-0.46851983666419983
1761396721437341000,0.4893408203125,-0.0713164210319519,-2.326259136199951,-0.2160872220993042
1761396721456704500,0.50870458984375,0.06826218217611313,-1.718160629272461,-0.33596599102020264
1761396721476095200,0.52809521484375,0.6490252017974854,0.027793550863862038,-0.9877400398254395
1761396721495472400,0.547472412109375,0.9487984776496887,0.5812211632728577,-1.3967022895812988
1761396721514836200,0.566836181640625,0.9729269742965698,-0.14431266486644745,-1.165802001953125
1761396721534227000,0.58622705078125,1.0341644287109375,-1.1503781080245972,-0.8660287261009216
1761396721553604000,0.60560400390625,1.0233218669891357,-1.1288456916809082,-0.8130376935005188
1761396721572967700,0.6249677734375,0.8745805621147156,0.10735640674829483,-1.1407572031021118
1761396721592358400,0.6443583984375,0.7027797698974609,1.3478344678878784,-1.612484097480774
1761396721611735600,0.663735595703125,0.42698222398757935,2.0729100704193115,-1.8676655292510986
1761396721631099100,0.68309912109375,0.5405998229980469,1.0740221738815308,-2.0924572944641113
1761396721650489900,0.70248974609375,0.7588250041007996,-0.222042977809906,-1.7726787328720093
1761396721669867000,0.721866943359375,0.8420529365539551,-0.9723161458969116,-0.9573503732681274
1761396721689230800,0.74123095703125,1.1534323692321777,-0.9170344471931458,0.2852656841278076
1761396721708621600,0.76062158203125,1.3426423072814941,-0.48898324370384216,1.271173119544983
1761396721727998700,0.779998779296875,1.0318737030029297,-0.987892746925354,1.7661120891571045
1761396721747362300,0.7993623046875,0.45111069083213806,-1.0433270931243896,1.8867545127868652
1761396721766753000,0.8187529296875,0.1626380831003189,-0.7146912813186646,1.7257962226867676
1761396721786130200,0.838130126953125,0.17378604412078857,-0.7464553713798523,1.2120736837387085
1761396721805494000,0.857493896484375,0.6519267559051514,-0.7562289237976074,-0.14965757727622986
1761396721824884500,0.876884521484375,0.7527165412902832,-1.1760337352752686,-1.8450641632080078
1761396721844262000,0.896261962890625,0.6427640318870544,-2.3212196826934814,-2.7764534950256348
1761396721863625500,0.91562548828125,1.330883502960205,-2.1833207607269287,-2.033815860748291
1761396721883016200,0.93501611328125,1.2728530168533325,-1.757102131843567,-2.201035499572754
1761396721902393300,0.954393310546875,1.0558494329452515,0.8831323981285095,-1.776038408279419
1761396721921757000,0.9737568359375,1.11510169506073,2.7665271759033203,-0.6781931519508362
1761396721941147600,0.993147705078125,1.478403091430664,2.4888970851898193,0.3930802047252655
1761396721960524800,1.01252490234375,1.5958384275436401,0.8461761474609375,1.0379822254180908
1761396721979888600,1.031888671875,1.6963227987289429,-0.7612683773040771,1.2565127611160278
1761396721999279000,1.051279052734375,1.656312346458435,-1.1094512939453125,1.3589824438095093
1761396722018656500,1.070656494140625,1.391204595565796,-0.9234483242034912,1.5611728429794312
1761396722038020000,1.09002001953125,1.02851402759552,-0.8703046441078186,1.7862701416015625
1761396722057410800,1.109410888671875,0.7177455425262451,-0.8382351398468018,1.8716360330581665
1761396722076788000,1.1287880859375,0.648108959197998,-0.4619532525539398,2.0144214630126953
1761396722096151600,1.148151611328125,0.4960079789161682,-0.11987877637147903,2.0373282432556152
1761396722115542300,1.167542236328125,0.37796175479888916,0.12308572232723236,1.7065545320510864
1761396722134919400,1.18691943359375,0.2664821147918701,0.016645587980747223,1.0831849575042725
1761396722154283300,1.206283203125,0.0978882759809494,-0.32573428750038147,0.42759308218955994
1761396722173674000,1.225674072265625,-0.011911521665751934,-0.4384356141090393,-0.34665581583976746
1761396722193051100,1.245051025390625,-0.0784938707947731,-0.16401249170303345,-0.9831586480140686
1761396722212414700,1.264414794921875,-0.10094250738620758,0.6872031688690186,-1.6624208688735962
1761396722231805400,1.283805419921875,1.0393565893173218,-0.1769929975271225,-2.71094012260437
1761396722251182600,1.3031826171875,2.0380918979644775,-3.6641671657562256,-2.945199966430664
1761396722270546200,1.322546142578125,1.3467655181884766,-3.500002145767212,-0.19654010236263275
1761396722289937000,1.34193701171875,0.05650337040424347,1.2865970134735107,1.4782503843307495
1761396722309314000,1.36131396484375,0.14125843346118927,3.76068115234375,0.7802046537399292
1761396722328678000,1.380677978515625,0.1385096162557602,3.6174373626708984,0.5277720093727112
1761396722348068600,1.400068603515625,0.3196258246898651,1.8171179294586182,0.6809419989585876
1761396722367445800,1.41944580078125,0.6462764143943787,-0.3158080279827118,0.6992673873901367
1761396722386809300,1.438809326171875,0.844649076461792,-1.349514365196228,0.5769452452659607
1761396722406200000,1.458199951171875,0.8376243114471436,-1.6051539182662964,0.3477247953414917
1761396722425577200,1.4775771484375,0.5702258944511414,-1.3609676361083984,0.2602209448814392
1761396722444941000,1.496941162109375,0.1041494607925415,-0.8693883419036865,0.39353835582733154
1761396722464331800,1.516331787109375,-0.35856732726097107,-0.11575555801391602,0.5419742465019226
1761396722483709000,1.535708984375,-0.6520794630050659,0.6410841941833496,0.5519005060195923
1761396722503072500,1.555072509765625,-0.7395833134651184,1.170077919960022,0.37704548239707947
1761396722522463200,1.574463134765625,-0.6601731777191162,1.2435322999954224,0.02076880633831024
1761396722541840400,1.59384033203125,-0.5012001991271973,0.9008470177650452,-0.5004366040229797
1761396722561204000,1.613203857421875,-0.5022691488265991,0.6164975762367249,-1.0979979038238525
1761396722580594700,1.6325947265625,-0.7253811359405518,0.6722373962402344,-1.8226155042648315
1761396722599971800,1.651971923828125,-0.7715001106262207,0.12155860662460327,-2.8106608390808105
1761396722619335700,1.671335693359375,-0.44820916652679443,-1.8099404573440552,-3.2962844371795654
1761396722638726400,1.690726318359375,-0.05497625470161438,-2.5015721321105957,-1.4590086936950684
1761396722658103600,1.710103515625,-0.026724567636847496,-1.3226370811462402,1.2453649044036865
1761396722677467100,1.729467041015625,0.24785128235816956,0.3393256664276123,1.9971650838851929
1761396722696857900,1.74885791015625,0.27976804971694946,1.2149752378463745,1.4035743474960327
1761396722716235000,1.768235107421875,0.795628547668457,1.4535109996795654,0.8568660020828247
1761396722735598800,1.787598876953125,1.2869024276733398,1.1841274499893188,0.3471139669418335
1761396722754989300,1.8069892578125,1.319124698638916,0.47386476397514343,0.44362783432006836
1761396722774366700,1.82636669921875,0.6545228362083435,-0.24372805655002594,1.220472812652588
1761396722793730300,1.845730224609375,0.14400723576545715,-0.3432961702346802,1.4729053974151611
1761396722813121000,1.86512109375,-0.08108997344970703,0.0647498071193695,1.1558756828308105
1761396722832498200,1.884498291015625,-0.3655920922756195,0.7209524512290955,0.8619054555892944
1761396722851861800,1.90386181640625,-0.6809419989585876,1.4532055854797363,0.8044858574867249
1761396722871252500,1.92325244140625,-0.9885035753250122,1.816812515258789,0.7679877281188965
1761396722890629600,1.942629638671875,-1.0975397825241089,1.7375550270080566,0.5099047422409058
1761396722909993500,1.961993408203125,-1.0303466320037842,1.2559019327163696,0.007941014133393764
1761396722929384000,1.981384033203125,-0.8341119289398193,0.5505260825157166,-0.5018110275268555
1761396722948761300,2.00076123046875,-0.610541820526123,-0.183865025639534,-0.8044858574867249
1761396722968125000,2.020125,-0.47890424728393555,-0.8747332692146301,-0.9648332595825195
1761396722987515600,2.039515625,-0.48577627539634705,-1.3032426834106445,-0.7656970620155334
1761396723006892800,2.058892822265625,-0.06291726976633072,-0.8333483934402466,-0.10521844029426575
1761396723026256400,2.07825634765625,0.7336275577545166,0.47203221917152405,0.5154023766517639
1761396723045647000,2.097647216796875,0.6522321701049805,0.2733541429042816,0.27946263551712036
1761396723065024300,2.117024169921875,0.020616095513105392,-0.19684553146362305,-0.11483928561210632
1761396723084388000,2.13638818359375,-0.3177932798862457,0.5659499764442444,-0.22066856920719147
1761396723103778800,2.15577880859375,-0.2104368805885315,1.7361806631088257,-0.2877090573310852
1761396723123156000,2.175156005859375,-0.0844496339559555,1.9518096446990967,-0.3662029206752777
1761396723142519600,2.19451953125,-0.05741964280605316,0.9576557874679565,-0.37857258319854736
1761396723161910300,2.21391015625,-0.030695075169205666,-0.18126893043518066,-0.29794076085090637
1761396723181287400,2.233287353515625,-0.08460234850645065,-0.6850652098655701,-0.12339114397764206
1761396723200651300,2.2526513671875,-0.182643324136734,-0.8067765235900879,0.04886778071522713
1761396723220041700,2.272041748046875,-0.30007871985435486,-0.6696413159370422,0.26968905329704285
1761396723239419100,2.291419189453125,-0.5102101564407349,-0.4115583300590515,0.5657972693443298
1761396723258782700,2.31078271484375,-0.693617045879364,-0.2148655205965042,0.8919897079467773
1761396723278173400,2.33017333984375,-0.673306405544281,-0.2373141646385193,1.1555702686309814
1761396723297550600,2.349550537109375,-0.40728241205215454,-0.7001836895942688,1.2000094652175903
1761396723316927700,2.368927734375,-0.12323843687772751,-1.390135645866394,0.950936496257782
1761396723336305000,2.388304931640625,-0.2489202618598938,-2.3939104080200195,0.4934118688106537
1761396723355682000,2.40768212890625,-0.4546230733394623,-3.3282012939453125,0.016492875292897224
1761396723375046000,2.4270458984375,-0.06001574173569679,-3.2848310470581055,-0.9743013978004456
1761396723394436600,2.4464365234375,0.4637857675552368,-2.6690971851348877,-2.507986068725586
1761396723413813800,2.465813720703125,0.747218906879425,-1.2226108312606812,-2.3560378551483154
1761396723433177300,2.48517724609375,0.38422292470932007,-0.5291464328765869,-0.8582404255867004
1761396723452568000,2.504568115234375,0.21868331730365753,0.1823379099369049,0.09345962852239609
1761396723471945200,2.5239453125,0.053143709897994995,1.4052541255950928,0.7467607855796814
1761396723491309000,2.54330908203125,-0.09895725548267365,2.1875967979431152,1.147171139717102
1761396723510699500,2.562699462890625,-0.2238755226135254,1.9716622829437256,1.2549856901168823
1761396723530077000,2.582076904296875,-0.3402419090270996,1.2852226495742798,1.203063726425171
1761396723549440500,2.6014404296875,-0.3474193811416626,0.980715274810791,1.0531007051467896
1761396723568831200,2.620831298828125,-0.5215108394622803,0.8617527484893799,0.8196043372154236
1761396723588208400,2.64020849609375,-0.7482879161834717,0.7765395641326904,0.42514967918395996
1761396723607572000,2.659572021484375,-0.9338327646255493,0.5702258944511414,-0.08872556686401367
1761396723626962700,2.678962646484375,-0.9877400398254395,0.17332790791988373,-0.6091674566268921
1761396723646339800,2.69833984375,-0.8580876588821411,-0.3852919042110443,-1.0381349325180054
1761396723665703700,2.71770361328125,-0.5703786015510559,-0.8283088803291321,-1.1381611824035645
1761396723685094400,2.737094482421875,-0.31137940287590027,-1.096165418624878,-0.8448017835617065
1761396723704471600,2.756471435546875,-0.038483377546072006,-1.5252856016159058,-0.568393349647522
1761396723723835100,2.775835205078125,0.2530434727668762,-1.6789137125015259,-0.6142069101333618
1761396723743225900,2.795225830078125,0.6412369012832642,-2.313584089279175,-1.1146435737609863
1761396723762603000,2.81460302734375,1.189014196395874,-2.378333806991577,-1.260941505432129
1761396723781966800,2.833966796875,1.348292589187622,-2.7462165355682373,-1.070051670074463
1761396723801357300,2.853357421875,1.2479609251022339,-2.7413296699523926,-1.0476030111312866
1761396723820734500,2.872734375,0.658951461315155,-0.7913526296615601,-1.02683424949646
1761396723840098300,2.892098388671875,0.5758762359619141,1.6396667957305908,-0.9411629438400269
1761396723859489000,2.911489013671875,0.6042806506156921,2.7214772701263428,-0.8254073858261108
1761396723878866200,2.9308662109375,0.8342646360397339,1.935622215270996,-0.48012593388557434
1761396723898229800,2.950229736328125,0.9768974781036377,0.525175929069519,0.3387148082256317
1761396723917620500,2.969620361328125,0.7290462255477905,-0.24815669655799866,1.2982031106948853
1761396723936997600,2.98899755859375,0.4431696832180023,-0.22280654311180115,1.8378866910934448
1761396723956361500,3.008361572265625,0.22845686972141266,0.12720894813537598,1.8488819599151611
1761396723975752200,3.027752197265625,0.08078455179929733,0.5289937257766724,1.4961175918579102
1761396723995129300,3.04712939453125,0.013896775431931019,0.7463026642799377,0.8695410490036011
1761396724014493000,3.066492919921875,0.03176405653357506,0.6077930331230164,0.111021488904953
1761396724033883600,3.085883544921875,0.06963659077882767,0.19470755755901337,-0.49325916171073914
1761396724053260800,3.1052607421875,0.12720894813537598,-0.3071034550666809,-0.635739266872406
1761396724072624600,3.124624755859375,0.14767232537269592,-0.7018635272979736,-0.4480564594268799
1761396724092015000,3.14401513671875,0.16752485930919647,-0.6123743653297424,-0.39857783913612366
1761396724111392500,3.163392578125,0.23945212364196777,-0.5625903010368347,-0.5848862528800964
1761396724130756000,3.182756103515625,0.37735089659690857,-0.7371399402618408,-0.34909921884536743
1761396724150146800,3.202146728515625,0.5018110275268555,-0.252432644367218,0.1178935244679451
1761396724169524000,3.22152392578125,0.9515473246574402,-0.44958359003067017,0.6824691295623779
1761396724188887600,3.240887451171875,0.6809419989585876,-0.5772506594657898,2.233257532119751
1761396724208278300,3.2602783203125,0.1704263836145401,0.395218163728714,3.153498888015747
1761396724227655400,3.279655517578125,-0.23212195932865143,1.9299719333648682,2.514247417449951
1761396724247019300,3.299019287109375,-0.6019899845123291,2.725142240524292,1.6709727048873901
1761396724266410000,3.318409912109375,-0.8037222623825073,2.212794303894043,1.4353383779525757
1761396724285787100,3.337787109375,-0.7459971904754639,1.2679661512374878,1.4991718530654907
1761396724305150700,3.357150634765625,-0.7678350210189819,0.6058077812194824,1.2985085248947144
1761396724324541400,3.37654150390625,-0.9862129092216492,0.11835165321826935,0.9953756332397461
1761396724343918600,3.395918701171875,-1.1943590641021729,0.0006108472589403391,0.7427902817726135
1761396724363282200,3.4152822265625,-1.2864443063735962,0.33199548721313477,0.6610894203186035
1761396724382673000,3.4346728515625,-1.2302464246749878,0.6181774139404297,0.6697940230369568
1761396724402050000,3.454050048828125,-0.998735249042511,0.3796415627002716,0.6137487888336182
1761396724421414000,3.473413818359375,-0.6239804625511169,-0.20677179098129272,0.42041563987731934
1761396724440804600,3.4928046875,-0.33321717381477356,-0.9239065051078796,0.018019994720816612
1761396724460181800,3.512181640625,-0.20066332817077637,-1.0515735149383545,-0.47233763337135315
1761396724479545300,3.53154541015625,0.05238015204668045,-0.5955760478973389,-0.929404079914093
1761396724498936000,3.55093603515625,0.7930324673652649,-0.8550334572792053,-1.6500511169433594
1761396724518313200,3.570313232421875,1.3009519577026367,-2.2297451496124268,-1.9272230863571167
1761396724537677000,3.589677001953125,1.1519051790237427,-2.4927148818969727,-0.648108959197998
1761396724557067800,3.60906787109375,0.6676560640335083,-0.47081053256988525,0.23349636793136597
1761396724576445000,3.62844482421875,0.1895153671503067,1.4278554916381836,-0.7889092564582825
1761396724595808500,3.64780859375,-0.36849361658096313,2.5880072116851807,-1.4240376949310303
1761396724615199200,3.66719921875,-0.6814001202583313,2.8799920082092285,-1.0668447017669678
1761396724634576400,3.686576416015625,-0.6436802744865417,2.2726571559906006,-0.6557445526123047
1761396724653940200,3.705940185546875,-0.3599417507648468,1.2633848190307617,-0.18707197904586792
1761396724673330700,3.72533056640625,-0.07452336698770523,0.2770192325115204,0.4990622103214264
1761396724692708000,3.7447080078125,-0.09483403712511063,-0.49707695841789246,1.0480611324310303
1761396724712071700,3.76407177734375,-0.28633466362953186,-0.7878402471542358,1.0570712089538574
1761396724731462400,3.78346240234375,-0.4534013867378235,-0.7727217674255371,0.7275190949440002
1761396724750839600,3.802839599609375,-0.43828290700912476,-0.6322268843650818,0.4683671295642853
1761396724770216700,3.822216796875,-0.37948885560035706,-0.4515688419342041,0.38513919711112976
1761396724789593900,3.84159375,-0.3761292099952698,-0.386208176612854,0.28633466362953186
1761396724808971000,3.860970947265625,-0.4446968138217926,-0.7189671993255615,-0.06001574173569679
1761396724828334800,3.8803349609375,-0.3164188861846924,-1.225359559059143,-0.6488724946975708
1761396724847725600,3.8997255859375,-0.0925433561205864,-1.5597984790802002,-1.3201936483383179
1761396724867102700,3.919102783203125,-0.017867282032966614,-1.8056645393371582,-1.5628527402877808
1761396724886466300,3.93846630859375,0.09361234307289124,-1.2129899263381958,-1.0103414058685303
1761396724905857000,3.95785693359375,0.2160872220993042,-0.3124483823776245,-0.6398624777793884
1761396724925234200,3.977234130859375,0.5804576277732849,-0.6568135023117065,-1.4971866607666016
1761396724944598000,3.996597900390625,0.9258917570114136,-0.02214321307837963,-1.9910566806793213
1761396724963988500,4.015988525390625,1.3696722984313965,1.5393351316452026,-1.22627592086792
1761396724983366000,4.035365966796875,1.8380393981933594,1.7853537797927856,-0.20341213047504425
1761396725002729500,4.0547294921875,2.123915910720825,0.6682668924331665,0.6042806506156921
1761396725022120200,4.0741201171875,2.134453058242798,-0.7843278646469116,1.0769237279891968
1761396725041497300,4.093497314453125,1.7855064868927002,-1.565143346786499,1.5074182748794556
1761396725060861000,4.11286083984375,1.0323318243026733,-1.5810253620147705,1.7699298858642578
1761396725080251600,4.132251708984375,0.19318044185638428,-1.3904410600662231,1.6550906896591187
1761396725099628800,4.15162890625,-0.4462239146232605,-1.1900831460952759,1.501309871673584
1761396725118992600,4.17099267578125,-0.8275453448295593,-1.3128634691238403,1.462062954902649
1761396725138383400,4.19038330078125,-1.047450304031372,-1.5822471380233765,1.0708152055740356
1761396725157760500,4.209760498046875,-1.2951488494873047,-1.9388291835784912,0.07437065243721008
1761396725177124000,4.2291240234375,-1.4128897190093994,-2.38077712059021,-1.486649513244629
1761396725196514800,4.248514892578125,-1.087918996810913,-2.2292871475219727,-3.1490702629089355
1761396725215892000,4.26789208984375,-0.5832064151763916,-1.7593928575515747,-4.206447124481201
1761396725235255800,4.287255859375,-0.038483377546072006,-1.196191668510437,-3.5534512996673584
1761396725254646500,4.306646484375,0.1569877415895462,-0.34314343333244324,-1.6075972318649292
1761396725274023700,4.326023681640625,0.2707580327987671,-0.546097457408905,-0.23929941654205322
1761396725293387300,4.34538720703125,1.0825740098953247,-1.878660798072815,-0.4095730781555176
1761396725312778000,4.364778076171875,1.5164283514022827,-2.5012667179107666,-1.6702091693878174
1761396725332155100,4.384155029296875,1.0115630626678467,0.4112529158592224,-2.5556321144104004
1761396725351518700,4.403518798828125,0.5654918551445007,3.555741786956787,-2.8908345699310303
1761396725370909400,4.422909423828125,0.548082709312439,3.878880023956299,-2.3971173763275146
1761396725390286800,4.442286865234375,0.6241331696510315,2.0724520683288574,-0.786771297454834
1761396725409650400,4.461650390625,0.42576053738594055,0.3358132839202881,0.9407047629356384
1761396725429041200,4.481041259765625,0.13392825424671173,-0.2148655205965042,1.7317520380020142
1761396725448418300,4.500418212890625,-0.21837788820266724,0.06948387622833252,1.7106777429580688
1761396725467782000,4.519781982421875,-0.705986738204956,0.6377245187759399,1.3606622219085693
1761396725487172600,4.539172607421875,-1.0501991510391235,1.1731321811676025,1.0266815423965454
1761396725506549800,4.5585498046875,-1.201841950416565,1.2882769107818604,0.774707019329071
1761396725525913600,4.57791357421875,-1.122584581375122,0.5874823331832886,0.3901786804199219
1761396725545304300,4.59730419921875,-1.2444485425949097,-0.12308572232723236,-0.3552076816558838
1761396725564681500,4.616681396484375,-1.3815838098526,-0.8799254894256592,-1.242616057395935
1761396725584045000,4.636045166015625,-1.0915840864181519,-1.5500248670578003,-1.7709989547729492
1761396725603435800,4.655435791015625,-1.0462286472320557,-1.2843064069747925,-1.2830846309661865
1761396725622813000,4.67481298828125,-1.7268651723861694,0.21379654109477997,0.42759308218955994
1761396725642176500,4.694176513671875,-2.1252903938293457,1.469545841217041,1.3547065258026123
1761396725661567200,4.713567138671875,-2.4423201084136963,2.485384702682495,0.7982246279716492
1761396725680944400,4.7329443359375,-2.349013090133667,1.9922783374786377,0.05085303261876106
1761396725700308200,4.75230810546875,-1.9586817026138306,1.8850746154785156,0.3808632791042328
1761396725719699000,4.771698974609375,-1.682120680809021,1.991514801979065,1.057223916053772
1761396725739076000,4.791076171875,-1.330578088760376,2.2004244327545166,1.813605546951294
1761396725758439700,4.810439697265625,-1.0773818492889404,2.2199716567993164,2.204700469970703
1761396725777830400,4.829830322265625,-0.7353073954582214,1.827044129371643,2.0605404376983643
1761396725797207600,4.84920751953125,-0.16172181069850922,1.1561810970306396,1.82964026927948
1761396725816571400,4.8685712890625,0.09865183383226395,-0.0975828468799591,1.7016677856445312
1761396725835961900,4.8879619140625,0.10628741979598999,-1.2357439994812012,1.1450332403182983
1761396725855339300,4.90733935546875,0.19379130005836487,-0.9417737722396851,0.2664821147918701
1761396725874702800,4.926702880859375,0.34161633253097534,0.09147437661886215,-0.09590301662683487
1761396725894093600,4.946093505859375,0.24449162185192108,0.42011019587516785,0.036192700266838074
1761396725913470700,4.965470703125,-0.2483094036579132,-0.023212196305394173,0.26251161098480225
1761396725932834300,4.984834228515625,-0.4903576374053955,-0.6415423154830933,0.3764346241950989
1761396725952225000,5.00422509765625,-0.4014793634414673,-0.4152234196662903,0.50853031873703
1761396725971602200,5.023602294921875,-0.4631749391555786,0.5864133834838867,0.6876612901687622
1761396725990966000,5.042966064453125,-0.556939959526062,1.2617050409317017,0.880994439125061
1761396726010356700,5.062356689453125,-0.30007871985435486,0.6948387622833252,1.2510151863098145
1761396726029734000,5.08173388671875,-0.35627666115760803,-0.04718795046210289,1.2965233325958252
1761396726049097500,5.101097412109375,-0.5497625470161438,-0.6450546979904175,-0.0981936976313591
1761396726068488200,5.12048828125,-0.4169032573699951,-0.39109495282173157,-1.9444795846939087
1761396726087865300,5.139865234375,-0.1363716572523117,0.5761816501617432,-2.6597816944122314
1761396726107229200,5.159229248046875,0.11865708231925964,0.7881456613540649,-2.322746753692627
1761396726126620000,5.178619873046875,0.3298575282096863,0.3110739588737488,-1.0986088514328003
1761396726145997000,5.1979970703125,0.09926267713308334,-0.09804098308086395,0.06459710001945496
1761396726165360600,5.217360595703125,-0.01847812905907631,-0.0456608310341835,0.21807247400283813
1761396726184751400,5.23675146484375,0.06062658876180649,0.05344913527369499,-0.2629697322845459
1761396726204128500,5.25612841796875,0.14217470586299896,-0.09040539711713791,-0.7574505805969238
1761396726223492400,5.275492431640625,0.2651077210903168,-0.3202366828918457,-0.9097042679786682
1761396726242882800,5.2948828125,0.30252209305763245,-0.5917583107948303,-0.5509842038154602
1761396726262260200,5.31426025390625,0.24708771705627441,-0.550373375415802,0.02993151545524597
1761396726281637400,5.333637451171875,0.2557922899723053,-0.04978405311703682,0.3176405727863312
1761396726301014500,5.3530146484375,0.16630317270755768,0.1769929975271225,0.363454133272171
1761396726320391700,5.3723916015625,0.004428642801940441,0.3649812340736389,0.7853968739509583
1761396726339755300,5.39175537109375,-0.16645587980747223,-0.07482878863811493,1.068677306175232
1761396726359146000,5.41114599609375,-0.43293800950050354,-0.423164427280426,0.9972081780433655
1761396726378523100,5.430523193359375,-0.5644228458404541,-0.35536038875579834,0.9391776323318481
1761396726397887000,5.449886962890625,-0.6678087711334229,-0.06551336497068405,1.0152281522750854
1761396726417277700,5.469277587890625,-0.9907942414283752,0.33199548721313477,1.0077452659606934
1761396726436654800,5.48865478515625,-1.0598199367523193,-0.23624517023563385,0.1913478970527649
1761396726456018400,5.508018310546875,-0.6129852533340454,-0.40468630194664,-1.2371183633804321
1761396726475409200,5.5274091796875,0.05482354015111923,0.09727742522954941,-2.172020196914673
1761396726494786300,5.546786376953125,0.5954233407974243,0.3417690396308899,-1.880340576171875
1761396726514150100,5.566150146484375,0.7832589149475098,0.025197450071573257,-0.5974085927009583
1761396726533540600,5.58554052734375,0.4352286756038666,-0.6390989422798157,0.6227588057518005
1761396726552918000,5.60491796875,0.09575030952692032,-1.1456440687179565,1.0523371696472168
1761396726572281600,5.624281494140625,0.13347013294696808,-1.3098092079162598,0.6245913505554199
1761396726591672300,5.64367236328125,0.3211529552936554,-0.7383615970611572,-0.20402298867702484
1761396726611049500,5.663049560546875,0.41232189536094666,0.05344913527369499,-0.6917845010757446
1761396726630413000,5.6824130859375,0.37796175479888916,0.3561239540576935,-0.4124746024608612
1761396726649803800,5.7018037109375,0.19623468816280365,0.20402298867702484,0.4416425824165344
1761396726669181000,5.721180908203125,-0.012064233422279358,-0.20249587297439575,1.23940908908844
1761396726688544800,5.740544677734375,-0.07238540053367615,-0.49417543411254883,1.5865230560302734
1761396726707935500,5.759935546875,-0.007941014133393764,-0.538919985294342,1.4431266784667969
1761396726727312600,5.779312744140625,0.16080553829669952,-0.44301697611808777,0.9845330715179443
1761396726746676200,5.79867626953125,0.2163926362991333,-0.1635543555021286,0.5486935377120972
1761396726766067000,5.81806689453125,0.08872556686401367,0.14904673397541046,0.5332696437835693
1761396726785444000,5.837444091796875,0.32191649079322815,0.2745758295059204,0.789061963558197
1761396726804808000,5.856807861328125,0.5210527181625366,-0.8101361989974976,-0.15484978258609772
1761396726824198700,5.87619873046875,0.5347967743873596,-1.7161753177642822,-1.6579921245574951
1761396726843575800,5.895575927734375,0.8663341403007507,-0.670404851436615,-2.287775754928589
1761396726862939400,5.914939453125,1.2997303009033203,0.18401773273944855,-2.039313554763794
1761396726882330000,5.934330078125,1.5656014680862427,0.04932591691613197,-1.0666919946670532
1761396726901707300,5.953707275390625,1.1893196105957031,-0.0390942245721817,-0.2032594233751297
1761396726921071000,5.973071044921875,0.8622109293937683,0.21211670339107513,-0.04947862774133682
1761396726940461600,5.992461669921875,0.9436063170433044,0.5938962697982788,-0.28343313932418823
1761396726959839000,6.0118388671875,1.0937219858169556,0.8444963097572327,-0.4614951014518738
1761396726979202600,6.03120263671875,1.0224056243896484,0.8582404255867004,-0.5325061082839966
1761396726998593300,6.05059326171875,0.7624900937080383,0.8011261820793152,-0.5482354164123535
1761396727017970400,6.069970458984375,0.5219689607620239,0.6404733657836914,-0.4966188073158264
1761396727037334000,6.089333984375,0.5193728804588318,0.6879667043685913,-0.21226942539215088
1761396727056724700,6.108724853515625,0.6336013078689575,0.6696413159370422,0.15988926589488983
1761396727076102000,6.128101806640625,0.6313106417655945,0.39323291182518005,0.5030327439308167
1761396727095479300,6.147479248046875,0.48959407210350037,0.024281177669763565,0.7142331600189209
1761396727114856400,6.1668564453125,0.3665083646774292,-0.17057909071445465,0.5951179265975952
1761396727134233600,6.186233642578125,0.23746687173843384,-0.05268557742238045,0.3155026137828827
1761396727153597200,6.20559716796875,0.30725616216659546,0.30603447556495667,0.07024743407964706
1761396727172988000,6.22498779296875,0.5376983284950256,0.40575528144836426,-0.42362257838249207
1761396727192365000,6.244364990234375,0.534338653087616,-0.3211529552936554,-1.663184404373169
1761396727211729000,6.26372900390625,-0.14171656966209412,-1.889197826385498,-4.029301166534424
1761396727231119400,6.283119384765625,-0.6742226481437683,-0.9240592122077942,-5.119663715362549
1761396727250496800,6.302496826171875,-0.9290986657142639,1.93104088306427,-4.761707305908203
1761396727269860400,6.3218603515625,-0.8284615874290466,3.5013763904571533,-4.568526744842529
1761396727289251000,6.3412509765625,-0.4169032573699951,3.9011759757995605,-3.6689014434814453
1761396727308628200,6.360628173828125,0.25090551376342773,3.453883171081543,-2.065885543823242
1761396727327991800,6.37999169921875,1.1596934795379639,2.1677441596984863,-0.346808522939682
1761396727347382500,6.399382568359375,1.8233790397644043,1.1126582622528076,1.0401201248168945
1761396727366759700,6.418759765625,1.774969458580017,0.6594096422195435,2.1909563541412354
1761396727386123500,6.43812353515625,1.4131951332092285,0.6178719997406006,2.846242904663086
1761396727405514200,6.45751416015625,1.2261232137680054,0.6820109486579895,2.913130521774292
1761396727424891400,6.476891357421875,1.1242643594741821,0.5173876285552979,2.765305519104004
1761396727444255000,6.4962548828125,0.9550597071647644,0.33886751532554626,2.5058481693267822
1761396727463645700,6.515645751953125,0.6285618543624878,0.39262208342552185,1.9718149900436401
1761396727483022800,6.53502294921875,0.24708771705627441,0.7281299233436584,1.4716837406158447
1761396727502386700,6.55438671875,0.010689826682209969,1.137092113494873,1.0198094844818115
1761396727521777400,6.57377734375,0.07742489129304886,1.9446322917938232,0.2483094036579132
1761396727541154600,6.593154541015625,0.44790375232696533,1.7473286390304565,-1.2508624792099
1761396727560518100,6.61251806640625,0.05375456064939499,-2.7640838623046875,-4.266462802886963
1761396727579908900,6.631908935546875,-1.49443781375885,-6.488266944885254,-5.961563587188721
1761396727599286000,6.6512861328125,-2.0849742889404297,-2.6199238300323486,-3.985778331756592
1761396727618649900,6.67064990234375,-0.7905890941619873,2.4311721324920654,-1.7931420803070068
1761396727638040300,6.690040283203125,0.5128062963485718,2.8022618293762207,-0.7519529461860657
1761396727657417700,6.709417724609375,0.7104153633117676,0.851215660572052,0.663838267326355
1761396727676781300,6.72878125,0.7601994276046753,-0.5995466113090515,1.8186450004577637
1761396727696172000,6.748172119140625,0.8203678727149963,-0.8590039610862732,1.9692188501358032
1761396727715549200,6.767549072265625,0.7195780873298645,-0.826018214225769,1.5022261142730713
1761396727734912800,6.786912841796875,0.16737215220928192,-0.7678350210189819,1.2326897382736206
1761396727754303500,6.806303466796875,-0.5109737515449524,-0.6183301210403442,1.2725476026535034
1761396727773680600,6.8256806640625,-0.9098569750785828,-0.1426328420639038,1.2927055358886719
1761396727793044500,6.84504443359375,-1.0390511751174927,0.5425850749015808,1.4301460981369019
1761396727812435200,6.864435302734375,-1.003622055053711,1.276059865951538,1.6854803562164307
1761396727831812400,6.883812255859375,-1.0656230449676514,1.4696985483169556,1.7436635494232178
1761396727851176000,6.903176025390625,-1.0734113454818726,1.3849434852600098,1.3533320426940918
1761396727870566700,6.922566650390625,-1.0520316362380981,0.9571976661682129,0.5456393361091614
1761396727889943800,6.94194384765625,-1.2371183633804321,-0.21303297579288483,0.27595025300979614
1761396727909307400,6.961307373046875,-1.077534556388855,-0.4283566474914551,1.4521366357803345
1761396727928698000,6.980697998046875,-0.7212579250335693,-1.1624423265457153,2.007244110107422
1761396727948075500,7.000075439453125,-1.0115630626678467,-3.335378646850586,0.5242596864700317
1761396727967439000,7.019439208984375,-1.2475028038024902,-2.806537628173828,-0.3507790267467499
1761396727986829800,7.038829833984375,-0.8154810667037964,0.21623992919921875,-0.6287145614624023
1761396728006207000,7.05820703125,-0.15652960538864136,2.0084657669067383,-1.2502516508102417
1761396728025570600,7.077570556640625,-0.19455485045909882,1.9342478513717651,-1.26399564743042
1761396728044961300,7.096961181640625,-0.4599680006504059,0.8785510659217834,-0.582748293876648
1761396728064338400,7.11633837890625,-0.3026748299598694,-0.12491826713085175,0.11025793105363846
1761396728083702300,7.135702392578125,-0.14706148207187653,-0.5473191738128662,0.44820916652679443
1761396728103093000,7.155093017578125,-0.2011214643716812,-0.6149705052375793,0.5328115224838257
1761396728122470100,7.17447021484375,-0.44607120752334595,-0.527161180973053,0.5798467397689819
1761396728141833700,7.193833740234375,-0.5274665951728821,-0.5398362874984741,0.5708367824554443
1761396728161224400,7.213224365234375,-0.44576579332351685,-0.5358657836914062,0.553274929523468
1761396728180601600,7.2326015625,-0.420873761177063,-0.46393850445747375,0.3289412558078766
1761396728199965400,7.25196533203125,-0.4375193417072296,-0.7258392572402954,0.06642963737249374
1761396728219356000,7.27135595703125,-0.2680092453956604,-1.1091458797454834,0.06032116711139679
1761396728238733000,7.290733154296875,0.10078980028629303,-1.4289244413375854,0.11804623156785965
1761396728258097000,7.310096923828125,0.33718767762184143,-2.064969062805176,0.1985253542661667
1761396728277487600,7.329487548828125,0.4515688419342041,-2.03076171875,0.3035911023616791
1761396728296864800,7.34886474609375,0.024433890357613564,-1.7106777429580688,-0.7177455425262451
1761396728316228400,7.368228271484375,-0.499673068523407,-0.7777612805366516,-0.8359444737434387
1761396728335619000,7.387619140625,-0.21898874640464783,0.6441384553909302,0.6615476012229919
1761396728354996200,7.406996337890625,0.14018943905830383,0.6016845703125,1.6804407835006714
1761396728374360000,7.426360107421875,0.31916770339012146,0.32603973150253296,2.140866994857788
1761396728393750800,7.445750732421875,0.28221142292022705,0.1904316395521164,2.0232789516448975
1761396728413128000,7.4651279296875,0.06688777357339859,0.2414373755455017,1.3385190963745117
1761396728432491500,7.484491455078125,0.031153209507465363,0.3665083646774292,0.6374191045761108
1761396728451882200,7.50388232421875,0.14736689627170563,0.26602399349212646,0.05986303091049194
1761396728471259400,7.52325927734375,-0.14400723576545715,0.3755183517932892,-0.6838434934616089
1761396728490623200,7.542623291015625,-0.5894675850868225,0.7733326554298401,-1.272700309753418
1761396728510013700,7.562013671875,-0.6882721781730652,1.2375766038894653,-1.2685770988464355
1761396728529391000,7.58139111328125,-0.3533751368522644,1.2120736837387085,-0.7412631511688232
1761396728548768300,7.600768310546875,0.1563768982887268,0.377198189496994,-0.2101314514875412
1761396728568145400,7.6201455078125,0.1960819661617279,-0.9199360013008118,-0.06322269141674042
1761396728587522600,7.6395224609375,-0.12079504877328873,-1.480999231338501,-0.5141806602478027
1761396728606886100,7.65888623046875,-0.15362808108329773,-1.2187930345535278,-1.0802834033966064
1761396728626276900,7.67827685546875,0.013438640162348747,-0.9400939345359802,-1.311641812324524
1761396728645654000,7.697654052734375,0.0397050715982914,-0.8066238164901733,-0.7412631511688232
1761396728665017900,7.717017822265625,0.27808821201324463,-0.7614210844039917,0.18753011524677277
1761396728684408600,7.73640869140625,0.17561858892440796,-1.2056597471237183,0.051769305020570755
1761396728703785700,7.75578564453125,-0.3243598937988281,-1.654479742050171,-0.9118422269821167
1761396728723149300,7.7751494140625,-0.3512371778488159,-0.8254073858261108,-0.9704836010932922
1761396728742540000,7.7945400390625,-0.1432436853647232,0.3232909142971039,-0.38666632771492004
1761396728761917200,7.813917236328125,0.2976353168487549,0.7110261917114258,0.583053708076477
1761396728781281000,7.833281005859375,0.8770239353179932,0.5506787896156311,1.7077761888504028
1761396728800671700,7.852671630859375,1.1719105243682861,-0.0328330397605896,2.15506911277771
1761396728820049000,7.872048828125,1.3214153051376343,-0.6178719997406006,2.067870616912842
1761396728839412500,7.89141259765625,1.3600513935089111,-0.6945333480834961,2.065885543823242
1761396728858803200,7.91080322265625,1.0868499279022217,-0.42362257838249207,2.042520523071289
1761396728878180400,7.930180419921875,0.5073086619377136,0.15805672109127045,1.6572285890579224
1761396728897544000,7.9495439453125,-0.13560809195041656,0.6029062271118164,0.8725953102111816
1761396728916934700,7.9689345703125,-0.520594596862793,0.6510104537010193,-0.01817270554602146
1761396728936311800,7.988311767578125,-0.5732801556587219,0.5262449383735657,-0.6122216582298279
1761396728955675600,8.007675537109375,-0.4367557764053345,0.3504736125469208,-0.8371661901473999
1761396728975066400,8.02706640625,-0.23242738842964172,0.003970507066696882,-0.8962656259536743
1761396728994443500,8.046443603515625,0.09590301662683487,-0.35169529914855957,-0.9510892033576965
1761396729013807000,8.06580712890625,0.4187358021736145,-0.40667155385017395,-1.2059651613235474
1761396729033197800,8.08519775390625,0.6134433746337891,-0.7768449783325195,-1.5135267972946167
1761396729052575000,8.104574951171875,0.6276455521583557,-1.8450641632080078,-1.7378604412078857
1761396729071938800,8.123938720703125,0.07696675509214401,-2.8476171493530273,-2.0556538105010986
1761396729091329300,8.143329345703124,-0.08765657991170883,-1.9713568687438965,-1.689603567123413
1761396729110706700,8.162706787109375,0.5135698318481445,0.34253260493278503,-0.9541434049606323
1761396729130070300,8.1820703125,1.0523371696472168,1.7135792970657349,-0.4816530644893646
1761396729149461000,8.2014609375,1.2013838291168213,1.8239898681640625,0.8278507590293884
1761396729168838100,8.220838134765625,1.1476292610168457,0.962695300579071,2.0935263633728027
1761396729188201700,8.24020166015625,0.9573503732681274,0.0916270911693573,2.837996482849121
1761396729207592400,8.259592529296874,0.7172874212265015,-0.2373141646385193,3.2205395698547363
1761396729226969600,8.278969482421875,0.40331190824508667,-0.34696123003959656,3.3766109943389893
1761396729246333400,8.29833349609375,-0.2241809368133545,-0.2954973578453064,3.1281487941741943
1761396729265724200,8.31772412109375,-0.9196305274963379,0.032069481909275055,2.3734469413757324
1761396729285101300,8.337101318359375,-1.3285927772521973,0.497229665517807,1.3301198482513428
1761396729304465000,8.35646484375,-1.4719891548156738,0.62627112865448,0.4428642690181732
1761396729323855600,8.375855712890624,-1.478403091430664,0.4853181540966034,-0.37200596928596497
1761396729343232800,8.395232666015625,-1.4464863538742065,0.351542592048645,-1.0233218669891357
1761396729362596600,8.4145966796875,-1.2905675172805786,0.34283801913261414,-1.4310624599456787
1761396729381987000,8.433987060546874,-0.9199360013008118,0.44790375232696533,-1.72991943359375
1761396729401364500,8.453364501953125,-0.23166382312774658,0.252432644367218,-2.0663435459136963
1761396729420728000,8.47272802734375,0.3390202224254608,-0.2623589038848877,-2.4000189304351807
1761396729440118800,8.492118896484374,0.7780666947364807,-1.2572764158248901,-2.6832993030548096
1761396729459496000,8.511495849609375,0.7253811359405518,-1.9440213441848755,-3.3028512001037598
1761396729478859500,8.530859619140625,0.08261708915233612,-2.2123360633850098,-3.9706599712371826
1761396729498250200,8.550250244140624,-0.511431872844696,-1.6271443367004395,-3.5616977214813232
1761396729517627400,8.56962744140625,-0.9016105532646179,0.27197974920272827,-1.585301399230957
1761396729536991200,8.5889912109375,-0.5416688323020935,1.2978976964950562,0.615428626537323
1761396729556382000,8.6083818359375,0.15912571549415588,0.9219212532043457,2.794320821762085
1761396729575759000,8.627759033203125,0.31443363428115845,-0.38040512800216675,4.616477966308594
1761396729595122700,8.647122802734375,-0.3880407214164734,-1.5587295293807983,5.345219135284424
1761396729614513400,8.666513427734374,-1.3847907781600952,-1.5875920057296753,4.959163665771484
1761396729633890600,8.685890625,-2.146364450454712,-0.3530697226524353,3.8756730556488037
1761396729653254100,8.705254150390624,-2.438807725906372,0.8651124238967896,2.241351366043091
1761396729672644900,8.724644775390624,-2.3511509895324707,1.1917630434036255,0.8422056436538696
1761396729692022000,8.74402197265625,-2.160719394683838,0.4703523814678192,0.34665581583976746
1761396729711385900,8.7633857421875,-1.890419602394104,-0.6326850652694702,0.43614494800567627
1761396729730776600,8.782776611328124,-1.352568507194519,-1.0925003290176392,0.4743228852748871
1761396729750153700,8.80215380859375,-0.775317907333374,-0.8745805621147156,0.2157817929983139
1761396729769517300,8.821517333984374,-0.90909343957901,-0.20066332817077637,-0.3049654960632324
1761396729788908000,8.840907958984374,-0.37292224168777466,0.1572931706905365,-0.8289197087287903
1761396729808285200,8.86028515625,0.749204158782959,-0.9381086826324463,-1.4932161569595337
1761396729827649000,8.87964892578125,1.0159916877746582,1.2548329830169678,-2.9497814178466797
1761396729847039700,8.899039794921874,0.23563432693481445,2.8045525550842285,-1.6017942428588867
1761396729866417000,8.9184169921875,-0.28541839122772217,2.265174388885498,0.4853181540966034
1761396729885780500,8.937780517578124,-0.5268557667732239,0.46516019105911255,0.6902574300765991
1761396729905171200,8.957171142578124,-0.7840224504470825,-0.1957765519618988,0.16813570261001587
1761396729924548400,8.97654833984375,-0.7655443549156189,-0.08689302206039429,0.11651911586523056
1761396729943912200,8.995912109375,-0.6432221531867981,-0.2951919436454773,0.12323843687772751
1761396729963302700,9.015302734375,-0.19989976286888123,-1.2023000717163086,0.2495311051607132
1761396729982680000,9.03468017578125,0.2113531529903412,-1.9400508403778076,0.42423340678215027
1761396730002043600,9.054043701171874,0.30068957805633545,-0.7047650218009949,0.7846332788467407
1761396730021434400,9.073434326171874,0.3258870244026184,0.23899398744106293,0.5818319916725159
1761396730040811500,9.0928115234375,0.5645755529403687,0.0844496339559555,0.3500154912471771
1761396730060175000,9.112175048828124,0.8267817497253418,-0.24724042415618896,0.8783983588218689
1761396730079565800,9.13156591796875,0.9266552925109863,0.042606595903635025,1.552315592765808
1761396730098943000,9.15094287109375,0.7676823139190674,0.418430358171463,1.676622986793518
1761396730118306800,9.170306884765624,0.3968980014324188,0.26724568009376526,1.356844425201416
1761396730137697500,9.189697509765624,-0.021837789565324783,0.05803048983216286,0.8367080092430115
1761396730157074700,9.20907470703125,-0.09177979826927185,0.3436015844345093,0.6326850652694702
1761396730176438300,9.228438232421874,0.01847812905907631,0.4769189953804016,0.9749122262001038
1761396730195829000,9.2478291015625,0.0007635590736754239,0.15271180868148804,1.0191986560821533
1761396730215206100,9.2672060546875,-0.04459185153245926,0.3495573401451111,1.0266815423965454
1761396730234569700,9.28656982421875,0.006108472589403391,0.8852704167366028,1.3499724864959717
1761396730253960400,9.30596044921875,0.17378604412078857,0.4808894991874695,1.326607584953308
1761396730273337600,9.325337646484375,0.10781454294919968,-0.32222193479537964,0.8548807501792908
1761396730292701400,9.344701416015624,-0.23105297982692719,-0.4193466305732727,0.1701209545135498
1761396730312092200,9.364092041015626,-0.3136700689792633,0.05375456064939499,-0.14721418917179108
1761396730331469300,9.38346923828125,-0.030542362481355667,0.3232909142971039,-0.39170581102371216
1761396730350833000,9.4028330078125,0.4396573007106781,-0.18615570664405823,-0.7973083853721619
1761396730370223600,9.4222236328125,0.7113316059112549,-0.6493306159973145,-0.5335750579833984
1761396730389600800,9.441600830078125,0.33947837352752686,-0.2730487287044525,0.18798823654651642
1761396730408964600,9.460964599609374,-0.2527380585670471,-0.051463883370161057,0.270452618598938
1761396730428355300,9.480355224609376,-0.6940752267837524,-0.1175880953669548,-0.3817795515060425
1761396730447732500,9.499732421875,-0.7893673777580261,0.12048961967229843,-0.985602080821991
1761396730467096000,9.519095947265624,-0.6868977546691895,0.049020491540431976,-0.7324058413505554
1761396730486486800,9.53848681640625,-0.4668400287628174,0.07146912813186646,0.05864133685827255
1761396730505864000,9.557864013671875,-0.4146125912666321,-0.13774605095386505,0.5738909840583801
1761396730525227800,9.577227783203124,-0.5025745630264282,-0.4906630516052246,0.580763041973114
1761396730544618200,9.5966181640625,-0.49142661690711975,-0.3946073353290558,0.4868452548980713
1761396730563995600,9.61599560546875,-0.48073679208755493,-0.20096874237060547,0.6036698222160339
1761396730583359200,9.635359130859374,-0.3709369897842407,-0.2276933193206787,0.7456917762756348
1761396730602750000,9.65475,-0.18310146033763885,-0.4766135811805725,0.8719844818115234
1761396730622127000,9.674127197265625,-0.10277505218982697,-0.7299624681472778,0.977813720703125
1761396730641490700,9.69349072265625,-0.17897824943065643,-0.2211267054080963,0.8211314082145691
1761396730660881400,9.71288134765625,-0.12369657307863235,0.31626617908477783,0.474017471075058
1761396730680258600,9.732258544921875,0.04749337583780289,0.02748812735080719,-0.41537612676620483
1761396730699622400,9.751622314453124,0.05207473039627075,0.10430216789245605,-1.3850961923599243
1761396730719013000,9.77101318359375,0.08200624585151672,0.09422318637371063,-1.8766754865646362
1761396730738390300,9.790390380859375,0.2680092453956604,-0.188599094748497,-1.9056907892227173
1761396730757753900,9.80975390625,0.4647020399570465,-0.07070557028055191,-1.6385977268218994
1761396730777144600,9.82914453125,0.7044596076011658,-0.39506545662879944,-1.025459885597229
1761396730796521700,9.848521728515625,0.5667135715484619,-0.6088619828224182,-0.4262186884880066
1761396730815885300,9.86788525390625,0.182643324136734,-0.5173876285552979,-0.4387410581111908
1761396730835276000,9.887276123046876,-0.15988926589488983,-0.07650861889123917,-1.1531269550323486
1761396730854653200,9.906653076171875,-0.24724042415618896,0.5077667832374573,-1.5455962419509888
1761396730874017000,9.92601708984375,-0.1385096162557602,0.5580089688301086,-1.0130901336669922
1761396730893407700,9.94540771484375,-0.08215895295143127,0.0006108472589403391,-0.14370182156562805
1761396730912785000,9.964784912109375,-0.1638597846031189,-0.5748072862625122,0.4340069890022278
1761396730932148500,9.9841484375,-0.4359922409057617,-0.5117372870445251,0.7640172243118286
1761396730951539200,10.003539306640626,-0.654370129108429,0.14767232537269592,0.7646280527114868
1761396730970916400,10.022916259765625,-0.6603258848190308,0.8295305967330933,0.5347967743873596
1761396730990280200,10.0422802734375,-0.34482327103614807,1.2184876203536987,0.7371399402618408
1761396731009670700,10.061670654296876,0.17867282032966614,1.189014196395874,1.6072918176651
1761396731029048000,10.081048095703125,0.34405970573425293,1.434880256652832,1.751757264137268
1761396731048411600,10.10041162109375,0.7696675658226013,0.8267817497253418,-0.2623589038848877
1761396731067802400,10.11980224609375,0.7090409398078918,0.9225320816040039,-3.1140992641448975
1761396731087179500,10.139179443359374,0.5021164417266846,1.6527999639511108,-3.815657377243042
1761396731106543000,10.158543212890624,0.47417017817497253,1.4622156620025635,-2.2517356872558594
1761396731125933800,10.177933837890626,0.522885262966156,-0.3710896968841553,-0.6925480961799622
1761396731145311000,10.19731103515625,0.1889045089483261,-1.1476292610168457,-0.2987042963504791
1761396731164674800,10.2166748046875,-0.4034646153450012,-0.5654918551445007,-0.5099047422409058
1761396731184065500,10.2360654296875,-0.6809419989585876,-0.19821994006633759,-0.844649076461792
1761396731203442700,10.255442626953124,-0.5829010009765625,-0.8849649429321289,-0.8197570443153381
1761396731222806300,10.27480615234375,-0.42606595158576965,-1.3854016065597534,-0.4008685052394867
1761396731242197000,10.294197021484376,-0.33031564950942993,-0.7931851744651794,-0.17684027552604675
1761396731261574100,10.31357421875,-0.3174878656864166,0.06520794332027435,-0.4584408700466156
1761396731280938000,10.33293798828125,-0.3002314269542694,0.14110571146011353,-0.5094466209411621
1761396731300328400,10.352328369140626,-0.30664533376693726,-0.10873081535100937,-0.06322269141674042
1761396731319705900,10.371705810546874,-0.23212195932865143,0.04459185153245926,0.6650599241256714
1761396731339069400,10.3910693359375,-0.22998400032520294,0.041384901851415634,1.072953224182129
1761396731358460200,10.410460205078126,-0.25716668367385864,-0.16019469499588013,0.9194778203964233
1761396731377837300,10.42983740234375,-0.23532891273498535,-0.0584886260330677,0.7336275577545166
1761396731397201000,10.449200927734376,-0.05757235363125801,0.6587987542152405,0.4743228852748871
1761396731416591600,10.468591552734376,0.1772984117269516,0.955212414264679,0.17149536311626434
1761396731435968800,10.48796875,0.19455485045909882,0.5160132050514221,0.4402681589126587
1761396731455332600,10.50733251953125,0.03268032893538475,-0.1241547018289566,0.9544488191604614
1761396731474723300,10.526723388671876,-0.2916795611381531,-0.6830799579620361,0.5244123935699463
1761396731494100500,10.5461005859375,-0.6094728708267212,-0.41079479455947876,-0.5407525300979614
1761396731513464000,10.565464111328126,-0.49295374751091003,-0.2435753494501114,-1.3313416242599487
1761396731532854800,10.584854736328126,-0.20906247198581696,-0.1563768982887268,-1.5750696659088135
1761396731552232000,10.60423193359375,-0.0010689827613532543,-0.1563768982887268,-0.9512419104576111
1761396731571595500,10.623595458984376,-0.08460234850645065,-0.5761816501617432,-0.046729814261198044
1761396731590986200,10.642986328125,-0.21303297579288483,-0.7070556879043579,-0.0068720318377017975
1761396731610363400,10.66236328125,0.12812520563602448,-0.2852656841278076,-0.4981459379196167
1761396731629727200,10.681727294921876,0.45324867963790894,-0.043981000781059265,-0.8002098798751831
1761396731649118000,10.701117919921876,0.6158867478370667,0.20127417147159576,-0.6725428104400635
1761396731668495000,10.7204951171875,0.4709632396697998,0.6183301210403442,-0.1566823273897171
1761396731687858700,10.739858642578126,0.025961007922887802,0.34543412923812866,0.663838267326355
1761396731707249400,10.75924951171875,-0.31443363428115845,-0.19379130005836487,1.2627739906311035
1761396731726626600,10.77862646484375,-0.3993414044380188,-0.2617480456829071,1.6323366165161133
1761396731745990100,10.797990234375,-0.3170297145843506,0.07391251623630524,1.4719891548156738
1761396731765380900,10.817380859375,-0.2770192325115204,0.4808894991874695,0.7831062078475952
1761396731784758000,10.836758056640624,-0.30252209305763245,0.4253024160861969,0.3721587061882019
1761396731804121900,10.856121826171876,-0.2886253297328949,0.26220619678497314,0.7858549952507019
1761396731823512600,10.8755126953125,-0.004123218823224306,0.32100024819374084,1.0541696548461914
1761396731842889700,10.8948896484375,0.16966283321380615,0.024128466844558716,-0.3187095522880554
1761396731862253300,10.91425341796875,-0.2895416021347046,0.16783028841018677,-1.831014633178711
1761396731881644000,10.93364404296875,-0.305118203163147,0.7464553713798523,-1.5681976079940796
1761396731901021200,10.953021240234374,0.2423536479473114,0.15087927877902985,-0.4874561131000519
1761396731920385000,10.972385009765626,0.5519005060195923,-1.0531007051467896,-0.1769929975271225
1761396731939775700,10.991775634765625,0.7351546883583069,-1.1306782960891724,-0.2560977041721344
1761396731959153000,11.01115283203125,0.48638713359832764,-0.49203747510910034,-0.5467082858085632
1761396731978516500,11.0305166015625,-0.31122666597366333,-0.19058434665203094,-1.197566032409668
1761396731997907200,11.0499072265625,-0.6459710001945496,-0.2551814317703247,-1.439461588859558
1761396732017284400,11.069284423828124,-0.02473931387066841,-0.45324867963790894,-0.9123004078865051
1761396732036648000,11.08864794921875,0.22555534541606903,-0.4262186884880066,-0.4115583300590515
1761396732056038700,11.10803857421875,-0.14675605297088623,-0.0584886260330677,-0.2727433145046234
1761396732075415800,11.127415771484374,-0.27976804971694946,0.37735089659690857,-0.3077143132686615
1761396732094779600,11.146779541015626,-0.26755109429359436,0.9868237376213074,-0.448361873626709
1761396732114170400,11.16617041015625,-0.47768256068229675,1.1989405155181885,-0.017714571207761765
1761396732133547500,11.185547607421874,-0.16156910359859467,0.2790044844150543,0.8637380003929138
1761396732152911000,11.2049111328125,0.02107422985136509,0.24693500995635986,1.047450304031372
1761396732172301800,11.2243017578125,-0.26006820797920227,0.3014531135559082,1.2126845121383667
1761396732191679000,11.243678955078124,-0.22692975401878357,0.393385648727417,1.2948434352874756
