time,seconds_elapsed,z,y,x
1761396721088551700,0.1405517578125,0.023212196305394173,-0.08231166750192642,-0.07696675509214401
1761396721107928800,0.1599287109375,0.04718795046210289,-0.17439688742160797,0.1304158866405487
1761396721127306000,0.179305908203125,0.026724567636847496,-0.23120568692684174,0.3446705639362335
1761396721146683100,0.19868310546875,-0.011453386396169662,-0.25976279377937317,0.3871244490146637
1761396721166060300,0.218060302734375,-0.004581354558467865,-0.28877803683280945,0.208298921585083
1761396721185437400,0.2374375,0.04214845970273018,-0.2736595869064331,-0.07696675509214401
1761396721204814600,0.256814697265625,0.06795676052570343,-0.2686200737953186,-0.2811424434185028
1761396721224192000,0.27619189453125,0.08628217875957489,-0.4199574887752533,-0.25563958287239075
1761396721243569200,0.295569091796875,-0.00916270911693573,-0.5399889945983887,0.047798797488212585
1761396721262946300,0.3149462890625,-0.26724568009376526,-0.5160132050514221,0.47920966148376465
1761396721301700600,0.35370068359375,-0.7337802648544312,0.573585569858551,1.3049224615097046
1761396721321077800,0.373077880859375,-0.5311316847801208,0.7421793937683105,1.193290114402771
1761396721340441300,0.39244140625,-0.2644968628883362,0.7736380696296692,0.635739266872406
1761396721359832000,0.41183203125,0.09468132257461548,1.057529330253601,-0.08093725889921188
1761396721379209200,0.431209228515625,0.2811424434185028,0.5662553906440735,-0.6398624777793884
1761396721398573000,0.450572998046875,0.34100547432899475,-0.6491779088973999,-0.7473716139793396
1761396721417963800,0.4699638671875,0.2498365342617035,-1.5593403577804565,-0.4731011986732483
1761396721437341000,0.4893408203125,-0.07269082218408585,-2.329007863998413,-0.22066856920719147
1761396721456704500,0.50870458984375,0.06704048812389374,-1.7209094762802124,-0.34070006012916565
1761396721476095200,0.52809521484375,0.647803544998169,0.02504473738372326,-0.9923213720321655
1761396721495472400,0.547472412109375,0.9474241137504578,0.578472375869751,-1.401283621788025
1761396721514836200,0.566836181640625,0.9717052578926086,-0.14706148207187653,-1.170383334159851
1761396721534227000,0.58622705078125,1.032789945602417,-1.1531269550323486,-0.8706100583076477
1761396721553604000,0.60560400390625,1.0219475030899048,-1.1315945386886597,-0.8176190853118896
1761396721572967700,0.6249677734375,0.8732061386108398,0.10460758954286575,-1.145491361618042
1761396721592358400,0.6443583984375,0.7015580534934998,1.345085620880127,-1.6170654296875
1761396721611735600,0.663735595703125,0.425607830286026,2.0701613426208496,-1.8722468614578247
1761396721631099100,0.68309912109375,0.5393781065940857,1.0712733268737793,-2.097038745880127
1761396721650489900,0.70248974609375,0.7576032876968384,-0.22494450211524963,-1.7772600650787354
1761396721669867000,0.721866943359375,0.8408312797546387,-0.9752176403999329,-0.9619317054748535
1761396721689230800,0.74123095703125,1.1522105932235718,-0.9199360013008118,0.28068432211875916
1761396721708621600,0.76062158203125,1.3412678241729736,-0.4918847680091858,1.2665917873382568
1761396721727998700,0.779998779296875,1.0304993391036987,-0.9907942414283752,1.7613780498504639
1761396721747362300,0.7993623046875,0.44988900423049927,-1.0460759401321411,1.8821730613708496
1761396721766753000,0.8187529296875,0.16141638159751892,-0.717440128326416,1.7212148904800415
1761396721786130200,0.838130126953125,0.17241163551807404,-0.749204158782959,1.2074923515319824
1761396721805494000,0.857493896484375,0.6507050395011902,-0.7589777112007141,-0.15423893928527832
1761396721824884500,0.876884521484375,0.7513421177864075,-1.1787824630737305,-1.8496454954147339
1761396721844262000,0.896261962890625,0.6413896083831787,-2.3241209983825684,-2.7810349464416504
1761396721863625500,0.91562548828125,1.3295090198516846,-2.1860697269439697,-2.0383973121643066
1761396721883016200,0.93501611328125,1.271478533744812,-1.7598509788513184,-2.2057695388793945
1761396721902393300,0.954393310546875,1.0544750690460205,0.8803836107254028,-1.780619740486145
1761396721921757000,0.9737568359375,1.113879919052124,2.7637784481048584,-0.682774543762207
1761396721941147600,0.993147705078125,1.4771814346313477,2.4861483573913574,0.38849884271621704
1761396721960524800,1.01252490234375,1.5946167707443237,0.8434273600578308,1.0334008932113647
1761396721979888600,1.031888671875,1.6951011419296265,-0.7640172243118286,1.2517787218093872
1761396721999279000,1.051279052734375,1.654937982559204,-1.112200140953064,1.3544011116027832
1761396722018656500,1.070656494140625,1.3899829387664795,-0.9261971712112427,1.556591510772705
1761396722038020000,1.09002001953125,1.027139663696289,-0.8730534315109253,1.7815359830856323
1761396722057410800,1.109410888671875,0.7163711190223694,-0.8409839868545532,1.8669019937515259
1761396722076788000,1.1287880859375,0.6468872427940369,-0.4647020399570465,2.009840250015259
1761396722096151600,1.148151611328125,0.4946335554122925,-0.12262758612632751,2.0325942039489746
1761396722115542300,1.167542236328125,0.3765873312950134,0.12033691257238388,1.7019731998443604
1761396722134919400,1.18691943359375,0.2651077210903168,0.013896775431931019,1.0784507989883423
1761396722154283300,1.206283203125,0.09666658192873001,-0.32848310470581055,0.4228590130805969
1761396722173674000,1.225674072265625,-0.013285927474498749,-0.44133713841438293,-0.35138988494873047
1761396722193051100,1.245051025390625,-0.07986827939748764,-0.16676130890846252,-0.9877400398254395
1761396722212414700,1.264414794921875,-0.10231691598892212,0.6844543814659119,-1.6670022010803223
1761396722231805400,1.283805419921875,1.0379822254180908,-0.17974179983139038,-2.7155215740203857
1761396722251182600,1.3031826171875,2.036870241165161,-3.6670687198638916,-2.9497814178466797
1761396722270546200,1.322546142578125,1.3455437421798706,-3.502903699874878,-0.2011214643716812
1761396722289937000,1.34193701171875,0.05528167635202408,1.2836954593658447,1.4736690521240234
1761396722309314000,1.36131396484375,0.14003673195838928,3.757779598236084,0.7756233215332031
1761396722328678000,1.380677978515625,0.13713520765304565,3.6146886348724365,0.5231906771659851
1761396722348068600,1.400068603515625,0.3184041380882263,1.8143690824508667,0.6763606071472168
1761396722367445800,1.41944580078125,0.6449019908905029,-0.31855684518814087,0.6945333480834961
1761396722386809300,1.438809326171875,0.8432746529579163,-1.3524158000946045,0.5723638534545898
1761396722406200000,1.458199951171875,0.8362498879432678,-1.6079026460647583,0.34314343333244324
1761396722425577200,1.4775771484375,0.5688515305519104,-1.36371648311615,0.25563958287239075
1761396722444941000,1.496941162109375,0.10277505218982697,-0.8722898960113525,0.3889569938182831
1761396722464331800,1.516331787109375,-0.35978904366493225,-0.1185043677687645,0.5373928546905518
1761396722483709000,1.535708984375,-0.6534538269042969,0.6383354067802429,0.5473191738128662
1761396722503072500,1.555072509765625,-0.7408050298690796,1.1673290729522705,0.37231141328811646
1761396722522463200,1.574463134765625,-0.6615476012229919,1.240783452987671,0.016187451779842377
1761396722541840400,1.59384033203125,-0.5025745630264282,0.8980981707572937,-0.5050179958343506
1761396722561204000,1.613203857421875,-0.5034908652305603,0.6135960817337036,-1.1025793552398682
1761396722580594700,1.6325947265625,-0.7267554998397827,0.6693359017372131,-1.8271968364715576
1761396722599971800,1.651971923828125,-0.7728744745254517,0.1188097894191742,-2.8153951168060303
1761396722619335700,1.671335693359375,-0.44958359003067017,-1.812689185142517,-3.301018476486206
1761396722638726400,1.690726318359375,-0.05619794875383377,-2.5043210983276367,-1.4635900259017944
1761396722658103600,1.710103515625,-0.028098974376916885,-1.3253858089447021,1.240783452987671
1761396722677467100,1.729467041015625,0.24662958085536957,0.3364241421222687,1.9925837516784668
1761396722696857900,1.74885791015625,0.27839362621307373,1.2120736837387085,1.398992896080017
1761396722716235000,1.768235107421875,0.7942541241645813,1.450609564781189,0.8522846102714539
1761396722735598800,1.787598876953125,1.2855280637741089,1.1812258958816528,0.34253260493278503
1761396722754989300,1.8069892578125,1.3177502155303955,0.47111594676971436,0.4390464723110199
1761396722774366700,1.82636669921875,0.6533011198043823,-0.24647687375545502,1.2158914804458618
1761396722793730300,1.845730224609375,0.1426328420639038,-0.34604495763778687,1.468324065208435
1761396722813121000,1.86512109375,-0.08246438205242157,0.06200099736452103,1.1512943506240845
1761396722832498200,1.884498291015625,-0.36696648597717285,0.7180509567260742,0.8573241233825684
1761396722851861800,1.90386181640625,-0.682163655757904,1.4503041505813599,0.799904465675354
1761396722871252500,1.92325244140625,-0.9898779988288879,1.8140636682510376,0.7634063363075256
1761396722890629600,1.942629638671875,-1.0987615585327148,1.7348061800003052,0.5053234100341797
1761396722909993500,1.961993408203125,-1.0317209959030151,1.2531532049179077,0.003359660040587187
1761396722929384000,1.981384033203125,-0.8354863524436951,0.5477772951126099,-0.5065450668334961
1761396722948761300,2.00076123046875,-0.6117635369300842,-0.18661384284496307,-0.8090671896934509
1761396722968125000,2.020125,-0.48012593388557434,-0.8774821162223816,-0.9694145917892456
1761396722987515600,2.039515625,-0.4869979918003082,-1.3059914112091064,-0.7702783942222595
1761396723006892800,2.058892822265625,-0.06429167091846466,-0.8360971808433533,-0.10995250940322876
1761396723026256400,2.07825634765625,0.7322531342506409,0.46928340196609497,0.5108210444450378
1761396723045647000,2.097647216796875,0.6510104537010193,0.27060532569885254,0.2748812735080719
1761396723065024300,2.117024169921875,0.019394399598240852,-0.19974705576896667,-0.11942064017057419
1761396723084388000,2.13638818359375,-0.31916770339012146,0.5632011890411377,-0.22524993121623993
1761396723103778800,2.15577880859375,-0.21181128919124603,1.7334318161010742,-0.29229041934013367
1761396723123156000,2.175156005859375,-0.08582404255867004,1.9490609169006348,-0.37078428268432617
1761396723142519600,2.19451953125,-0.0587940476834774,0.9547542929649353,-0.3831539452075958
1761396723161910300,2.21391015625,-0.031916771084070206,-0.18401773273944855,-0.3026748299598694
1761396723181287400,2.233287353515625,-0.0859767496585846,-0.6879667043685913,-0.12797249853610992
1761396723200651300,2.2526513671875,-0.18401773273944855,-0.8095253109931946,0.04428642615675926
1761396723220041700,2.272041748046875,-0.3014531135559082,-0.6723901033401489,0.26495498418807983
1761396723239419100,2.291419189453125,-0.511431872844696,-0.4143071472644806,0.5612159371376038
1761396723258782700,2.31078271484375,-0.6948387622833252,-0.2176143378019333,0.8874083757400513
1761396723278173400,2.33017333984375,-0.674680769443512,-0.24006296694278717,1.1509889364242554
1761396723297550600,2.349550537109375,-0.40850409865379333,-0.7029324769973755,1.1954281330108643
1761396723316927700,2.368927734375,-0.12461283802986145,-1.3928844928741455,0.9463551044464111
1761396723336305000,2.388304931640625,-0.25029465556144714,-2.3968119621276855,0.4888305068016052
1761396723355682000,2.40768212890625,-0.4559974670410156,-3.3309500217437744,0.011911521665751934
1761396723375046000,2.4270458984375,-0.06123743951320648,-3.2875800132751465,-0.9788827300071716
1761396723394436600,2.4464365234375,0.46241137385368347,-2.6719987392425537,-2.5125675201416016
1761396723413813800,2.465813720703125,0.7458444833755493,-1.225359559059143,-2.360771894454956
1761396723433177300,2.48517724609375,0.3830012381076813,-0.5320479869842529,-0.8628217577934265
1761396723452568000,2.504568115234375,0.21746163070201874,0.17943638563156128,0.08887827396392822
1761396723471945200,2.5239453125,0.051922015845775604,1.4023525714874268,0.7421793937683105
1761396723491309000,2.54330908203125,-0.10033166408538818,2.184847831726074,1.142589807510376
1761396723510699500,2.562699462890625,-0.22524993121623993,1.9689134359359741,1.2504043579101562
1761396723530077000,2.582076904296875,-0.34161633253097534,1.2823210954666138,1.1984822750091553
1761396723549440500,2.6014404296875,-0.34879377484321594,0.9779664874076843,1.0485193729400635
1761396723568831200,2.620831298828125,-0.5227325558662415,0.8590039610862732,0.8150229454040527
1761396723588208400,2.64020849609375,-0.7495095729827881,0.7737907767295837,0.4205683469772339
1761396723607572000,2.659572021484375,-0.9352071285247803,0.5674771070480347,-0.09345962852239609
1761396723626962700,2.678962646484375,-0.9891144037246704,0.17057909071445465,-0.6139014959335327
1761396723646339800,2.69833984375,-0.8593093752861023,-0.3880407214164734,-1.0427162647247314
1761396723665703700,2.71770361328125,-0.5717530250549316,-0.8310576677322388,-1.142895221710205
1761396723685094400,2.737094482421875,-0.3127537965774536,-1.0989142656326294,-0.8493831157684326
1761396723704471600,2.756471435546875,-0.039857782423496246,-1.5280344486236572,-0.5729747414588928
1761396723723835100,2.775835205078125,0.2518217861652374,-1.6816625595092773,-0.6187883019447327
1761396723743225900,2.795225830078125,0.6398624777793884,-2.3163328170776367,-1.119377613067627
1761396723762603000,2.81460302734375,1.187639832496643,-2.381235361099243,-1.265522837638855
1761396723781966800,2.833966796875,1.3469182252883911,-2.7491180896759033,-1.074633002281189
1761396723801357300,2.853357421875,1.246586561203003,-2.7440786361694336,-1.0521844625473022
1761396723820734500,2.872734375,0.6577298045158386,-0.7941014170646667,-1.0315682888031006
1761396723840098300,2.892098388671875,0.5746545791625977,1.6369179487228394,-0.9458969831466675
1761396723859489000,2.911489013671875,0.6029062271118164,2.718728542327881,-0.8299887180328369
1761396723878866200,2.9308662109375,0.8328902125358582,1.9328734874725342,-0.4847072958946228
1761396723898229800,2.950229736328125,0.975523054599762,0.5224271416664124,0.33413344621658325
1761396723917620500,2.969620361328125,0.7276718020439148,-0.25090551376342773,1.2936217784881592
1761396723936997600,2.98899755859375,0.441795289516449,-0.22555534541606903,1.8333053588867188
1761396723956361500,3.008361572265625,0.22723518311977386,0.1244601309299469,1.844300627708435
1761396723975752200,3.027752197265625,0.0794101431965828,0.5260922312736511,1.491536259651184
1761396723995129300,3.04712939453125,0.012675080448389053,0.7434011101722717,0.8648070096969604
1761396724014493000,3.066492919921875,0.030389651656150818,0.6050441861152649,0.10644013434648514
1761396724033883600,3.085883544921875,0.06826218217611313,0.19180603325366974,-0.4978405237197876
1761396724053260800,3.1052607421875,0.12583453953266144,-0.30985227227211,-0.6403206586837769
1761396724072624600,3.124624755859375,0.14629791676998138,-0.7046123147010803,-0.45263782143592834
1761396724092015000,3.14401513671875,0.16615045070648193,-0.6151232123374939,-0.4031592011451721
1761396724111392500,3.163392578125,0.23823043704032898,-0.5653391480445862,-0.5896202921867371
1761396724130756000,3.182756103515625,0.3761292099952698,-0.7398887276649475,-0.3536805510520935
1761396724150146800,3.202146728515625,0.5004366040229797,-0.2551814317703247,0.11331216990947723
1761396724169524000,3.22152392578125,0.9501729011535645,-0.45233240723609924,0.6778877377510071
1761396724188887600,3.240887451171875,0.6795675754547119,-0.5799994468688965,2.2286763191223145
1761396724208278300,3.2602783203125,0.1692046970129013,0.3924693763256073,3.1489176750183105
1761396724227655400,3.279655517578125,-0.23349636793136597,1.9270703792572021,2.5096659660339355
1761396724247019300,3.299019287109375,-0.6033644080162048,2.72239351272583,1.666391372680664
1761396724266410000,3.318409912109375,-0.8050966858863831,2.210045337677002,1.4307570457458496
1761396724285787100,3.337787109375,-0.7473716139793396,1.2652174234390259,1.4945905208587646
1761396724305150700,3.357150634765625,-0.7690566778182983,0.6029062271118164,1.2939271926879883
1761396724324541400,3.37654150390625,-0.9874345660209656,0.11560284346342087,0.9907942414283752
1761396724343918600,3.395918701171875,-1.1955808401107788,-0.0021379655227065086,0.7382088899612427
1761396724363282200,3.4152822265625,-1.2876659631729126,0.3292466700077057,0.6565080881118774
1761396724382673000,3.4346728515625,-1.2314680814743042,0.615428626537323,0.6652126908302307
1761396724402050000,3.454050048828125,-1.0001096725463867,0.37689274549484253,0.6091674566268921
1761396724421414000,3.473413818359375,-0.6253548860549927,-0.2095206081867218,0.4156815707683563
1761396724440804600,3.4928046875,-0.3345915973186493,-0.9266552925109863,0.013438640162348747
1761396724460181800,3.512181640625,-0.2020377367734909,-1.054322361946106,-0.4769189953804016
1761396724479545300,3.53154541015625,0.05100574716925621,-0.5984776020050049,-0.9339854717254639
1761396724498936000,3.55093603515625,0.7916580438613892,-0.857782244682312,-1.654632568359375
1761396724518313200,3.570313232421875,1.2995775938034058,-2.2324941158294678,-1.9319571256637573
1761396724537677000,3.589677001953125,1.1506835222244263,-2.4954638481140137,-0.6526902914047241
1761396724557067800,3.60906787109375,0.6664343476295471,-0.47355934977531433,0.22876229882240295
1761396724576445000,3.62844482421875,0.1882936656475067,1.4251066446304321,-0.7936432957649231
1761396724595808500,3.64780859375,-0.3698680102825165,2.5852582454681396,-1.4286190271377563
1761396724615199200,3.66719921875,-0.6826218366622925,2.8772432804107666,-1.0714260339736938
1761396724634576400,3.686576416015625,-0.6449019908905029,2.2699084281921387,-0.6603258848190308
1761396724653940200,3.705940185546875,-0.3611634373664856,1.2606359720230103,-0.1916533261537552
1761396724673330700,3.72533056640625,-0.07589777559041977,0.2742704153060913,0.49448084831237793
1761396724692708000,3.7447080078125,-0.09620844572782516,-0.49982577562332153,1.0434798002243042
1761396724712071700,3.76407177734375,-0.2877090573310852,-0.7905890941619873,1.0523371696472168
1761396724731462400,3.78346240234375,-0.45477578043937683,-0.7754706144332886,0.7229377031326294
1761396724750839600,3.802839599609375,-0.43950459361076355,-0.6349757313728333,0.4637857675552368
1761396724770216700,3.822216796875,-0.3808632791042328,-0.4543176591396332,0.3805578351020813
1761396724789593900,3.84159375,-0.37735089659690857,-0.3889569938182831,0.28160059452056885
1761396724808971000,3.860970947265625,-0.4459185004234314,-0.7218687534332275,-0.06459710001945496
1761396724828334800,3.8803349609375,-0.3177932798862457,-1.2281084060668945,-0.6534538269042969
1761396724847725600,3.8997255859375,-0.09376505762338638,-1.5627000331878662,-1.324774980545044
1761396724867102700,3.919102783203125,-0.019241688773036003,-1.8085659742355347,-1.5675867795944214
1761396724886466300,3.93846630859375,0.09239064902067184,-1.2158914804458618,-1.0149227380752563
1761396724905857000,3.95785693359375,0.21471281349658966,-0.3151971995830536,-0.6444438695907593
1761396724925234200,3.977234130859375,0.5792359113693237,-0.659562349319458,-1.5017679929733276
1761396724944598000,3.996597900390625,0.9245173335075378,-0.02489202655851841,-1.9956380128860474
1761396724963988500,4.015988525390625,1.3684505224227905,1.5364335775375366,-1.230857253074646
1761396724983366000,4.035365966796875,1.8366650342941284,1.7826050519943237,-0.20814619958400726
1761396725002729500,4.0547294921875,2.122694253921509,0.6655181050300598,0.5996993184089661
1761396725022120200,4.0741201171875,2.1330785751342773,-0.7870767116546631,1.0723423957824707
1761396725041497300,4.093497314453125,1.7842848300933838,-1.5678921937942505,1.5028369426727295
1761396725060861000,4.11286083984375,1.0309574604034424,-1.583774209022522,1.7651958465576172
1761396725080251600,4.132251708984375,0.19180603325366974,-1.3933426141738892,1.6503565311431885
1761396725099628800,4.15162890625,-0.44759833812713623,-1.1928319931030273,1.496728539466858
1761396725118992600,4.17099267578125,-0.8287670016288757,-1.3156123161315918,1.4574815034866333
1761396725138383400,4.19038330078125,-1.0488247871398926,-1.5849958658218384,1.0662338733673096
1761396725157760500,4.209760498046875,-1.2963706254959106,-1.9417307376861572,0.06978929787874222
1761396725177124000,4.2291240234375,-1.4142640829086304,-2.383526086807251,-1.4913835525512695
1761396725196514800,4.248514892578125,-1.0891406536102295,-2.2320358753204346,-3.153651714324951
1761396725215892000,4.26789208984375,-0.5844281315803528,-1.7621415853500366,-4.211028099060059
1761396725235255800,4.287255859375,-0.039857782423496246,-1.1989405155181885,-3.558032512664795
1761396725254646500,4.306646484375,0.15561333298683167,-0.3458922505378723,-1.6121786832809448
1761396725274023700,4.326023681640625,0.2695363461971283,-0.5488462448120117,-0.2438807636499405
1761396725293387300,4.34538720703125,1.0813523530960083,-1.8814095258712769,-0.4143071472644806
1761396725312778000,4.364778076171875,1.5150538682937622,-2.5040156841278076,-1.6747905015945435
1761396725332155100,4.384155029296875,1.0101886987686157,0.40850409865379333,-2.560213565826416
1761396725351518700,4.403518798828125,0.564117431640625,3.552993059158325,-2.895568609237671
1761396725370909400,4.422909423828125,0.5467082858085632,3.876131296157837,-2.4016988277435303
1761396725390286800,4.442286865234375,0.6227588057518005,2.0695505142211914,-0.7913526296615601
1761396725409650400,4.461650390625,0.42453885078430176,0.333064466714859,0.9359707236289978
1761396725429041200,4.481041259765625,0.1325538605451584,-0.2176143378019333,1.7271705865859985
1761396725448418300,4.500418212890625,-0.21975229680538177,0.06673506647348404,1.7060964107513428
1761396725467782000,4.519781982421875,-0.7072083950042725,0.6349757313728333,1.3560808897018433
1761396725487172600,4.539172607421875,-1.05142080783844,1.170383334159851,1.0221002101898193
1761396725506549800,4.5585498046875,-1.2032164335250854,1.2853753566741943,0.770125687122345
1761396725525913600,4.57791357421875,-1.123958945274353,0.5847335457801819,0.3855973184108734
1761396725545304300,4.59730419921875,-1.2458230257034302,-0.125987246632576,-0.35978904366493225
1761396725564681500,4.616681396484375,-1.382958173751831,-0.8828269839286804,-1.2471973896026611
1761396725584045000,4.636045166015625,-1.0929584503173828,-1.5527737140655518,-1.7755802869796753
1761396725603435800,4.655435791015625,-1.047450304031372,-1.287207841873169,-1.2876659631729126
1761396725622813000,4.67481298828125,-1.7280869483947754,0.2110477238893509,0.4230117201805115
1761396725642176500,4.694176513671875,-2.126512050628662,1.466644287109375,1.3501251935958862
1761396725661567200,4.713567138671875,-2.4436943531036377,2.482483148574829,0.7936432957649231
1761396725680944400,4.7329443359375,-2.3503875732421875,1.9895294904708862,0.0462716780602932
1761396725700308200,4.75230810546875,-1.960056185722351,1.8823258876800537,0.3761292099952698
1761396725719699000,4.771698974609375,-1.683495044708252,1.988613247871399,1.0524898767471313
1761396725739076000,4.791076171875,-1.331952452659607,2.1975231170654297,1.8090242147445679
1761396725758439700,4.810439697265625,-1.0786035060882568,2.2172229290008545,2.2001190185546875
1761396725777830400,4.829830322265625,-0.7365291118621826,1.824142575263977,2.0559592247009277
1761396725797207600,4.84920751953125,-0.1629435122013092,1.1534323692321777,1.825058937072754
1761396725816571400,4.8685712890625,0.09743013978004456,-0.10033166408538818,1.6970864534378052
1761396725835961900,4.8879619140625,0.1050657257437706,-1.2386455535888672,1.1404517889022827
1761396725855339300,4.90733935546875,0.19241689145565033,-0.9445225596427917,0.26190075278282166
1761396725874702800,4.926702880859375,0.34039464592933655,0.08872556686401367,-0.10048437118530273
1761396725894093600,4.946093505859375,0.24311721324920654,0.41736137866973877,0.03161134570837021
1761396725913470700,4.965470703125,-0.24968381226062775,-0.025961007922887802,0.2579302489757538
1761396725932834300,4.984834228515625,-0.4915793240070343,-0.6442911624908447,0.3718532621860504
1761396725952225000,5.00422509765625,-0.4027010500431061,-0.4181249439716339,0.503948986530304
1761396725971602200,5.023602294921875,-0.46454933285713196,0.5836645364761353,0.6830799579620361
1761396725990966000,5.042966064453125,-0.5581616759300232,1.2589561939239502,0.8762603998184204
1761396726010356700,5.062356689453125,-0.3014531135559082,0.6920899152755737,1.2464338541030884
1761396726029734000,5.08173388671875,-0.35765108466148376,-0.04993676394224167,1.2919420003890991
1761396726049097500,5.101097412109375,-0.5509842038154602,-0.647803544998169,-0.10277505218982697
1761396726068488200,5.12048828125,-0.41827765107154846,-0.39384377002716064,-1.9490609169006348
1761396726087865300,5.139865234375,-0.13774605095386505,0.5734328627586365,-2.664363145828247
1761396726107229200,5.159229248046875,0.1172826737165451,0.7853968739509583,-2.3273279666900635
1761396726126620000,5.178619873046875,0.3286358118057251,0.30817243456840515,-1.103342890739441
1761396726145997000,5.1979970703125,0.0978882759809494,-0.10094250738620758,0.06001574173569679
1761396726165360600,5.217360595703125,-0.01969982497394085,-0.04856235533952713,0.21349111199378967
1761396726184751400,5.23675146484375,0.0594048947095871,0.050547610968351364,-0.2677038013935089
1761396726204128500,5.25612841796875,0.14080029726028442,-0.09315420687198639,-0.7620319724082947
1761396726223492400,5.275492431640625,0.26373329758644104,-0.3229855000972748,-0.9142856597900391
1761396726242882800,5.2948828125,0.3011476993560791,-0.594507098197937,-0.555565595626831
1761396726262260200,5.31426025390625,0.24586601555347443,-0.553274929523468,0.025350160896778107
1761396726281637400,5.333637451171875,0.25441789627075195,-0.05268557742238045,0.3130592107772827
1761396726301014500,5.3530146484375,0.1650814712047577,0.17424418032169342,0.35887277126312256
1761396726320391700,5.3723916015625,0.0030542362947016954,0.36223241686820984,0.7808154821395874
1761396726339755300,5.39175537109375,-0.16767756640911102,-0.07757759839296341,1.0640959739685059
1761396726359146000,5.41114599609375,-0.4343124032020569,-0.4259132444858551,0.9926267862319946
1761396726378523100,5.430523193359375,-0.5656445622444153,-0.35826191306114197,0.9345963001251221
1761396726397887000,5.449886962890625,-0.6691831946372986,-0.06826218217611313,1.0106468200683594
1761396726417277700,5.469277587890625,-0.992168664932251,0.3292466700077057,1.0031639337539673
1761396726436654800,5.48865478515625,-1.0611944198608398,-0.23899398744106293,0.18661384284496307
1761396726456018400,5.508018310546875,-0.6142069101333618,-0.4074351191520691,-1.2416998147964478
1761396726475409200,5.5274091796875,0.05344913527369499,0.09452861547470093,-2.1766014099121094
1761396726494786300,5.546786376953125,0.5942016839981079,0.3390202224254608,-1.884921908378601
1761396726514150100,5.566150146484375,0.7820371985435486,0.02244863659143448,-0.6019899845123291
1761396726533540600,5.58554052734375,0.43385425209999084,-0.6418477296829224,0.6180247068405151
1761396726552918000,5.60491796875,0.09437590092420578,-1.148545503616333,1.0477557182312012
1761396726572281600,5.624281494140625,0.13209572434425354,-1.3125580549240112,0.6198572516441345
1761396726591672300,5.64367236328125,0.31977853178977966,-0.7411104440689087,-0.2086043357849121
1761396726611049500,5.663049560546875,0.41110020875930786,0.05070032179355621,-0.69651859998703
1761396726630413000,5.6824130859375,0.3765873312950134,0.35322242975234985,-0.41705596446990967
1761396726649803800,5.7018037109375,0.19501298666000366,0.20127417147159576,0.4369085133075714
1761396726669181000,5.721180908203125,-0.013438640162348747,-0.20539739727973938,1.2348277568817139
1761396726688544800,5.740544677734375,-0.07375980913639069,-0.4969242513179779,1.5819417238235474
1761396726707935500,5.759935546875,-0.009315420873463154,-0.5418215394020081,1.4385453462600708
1761396726727312600,5.779312744140625,0.15943112969398499,-0.44576579332351685,0.9799517393112183
1761396726746676200,5.79867626953125,0.21501824259757996,-0.16630317270755768,0.5441122055053711
1761396726766067000,5.81806689453125,0.08750387281179428,0.14614520967006683,0.5286883115768433
1761396726785444000,5.837444091796875,0.3205420970916748,0.2718270421028137,0.7844805717468262
1761396726804808000,5.856807861328125,0.5198310017585754,-0.8128849864006042,-0.15943112969398499
1761396726824198700,5.87619873046875,0.5334223508834839,-1.7189241647720337,-1.6625735759735107
1761396726843575800,5.895575927734375,0.8651124238967896,-0.6731536984443665,-2.2923569679260254
1761396726862939400,5.914939453125,1.2983558177947998,0.18126893043518066,-2.0440475940704346
1761396726882330000,5.934330078125,1.5642271041870117,0.046577103435993195,-1.0712733268737793
1761396726901707300,5.953707275390625,1.1880979537963867,-0.04184303805232048,-0.20784078538417816
1761396726921071000,5.973071044921875,0.8608365058898926,0.2092151790857315,-0.05405998229980469
1761396726940461600,5.992461669921875,0.9422318935394287,0.5909947156906128,-0.28816720843315125
1761396726959839000,6.0118388671875,1.0923476219177246,0.8415948152542114,-0.46607646346092224
1761396726979202600,6.03120263671875,1.021031141281128,0.855491578578949,-0.5370874404907227
1761396726998593300,6.05059326171875,0.7611156702041626,0.7983773946762085,-0.5529694557189941
1761396727017970400,6.069970458984375,0.520594596862793,0.6377245187759399,-0.5013529062271118
1761396727037334000,6.089333984375,0.5181511640548706,0.6852179169654846,-0.2170034945011139
1761396727056724700,6.108724853515625,0.6322268843650818,0.6668924689292908,0.15530791878700256
1761396727076102000,6.128101806640625,0.6300889253616333,0.39048412442207336,0.4984513521194458
1761396727095479300,6.147479248046875,0.488219678401947,0.021379653364419937,0.7096518278121948
1761396727114856400,6.1668564453125,0.36513394117355347,-0.17332790791988373,0.5905365943908691
1761396727134233600,6.186233642578125,0.2360924631357193,-0.055587101727724075,0.31092125177383423
1761396727153597200,6.20559716796875,0.3058817684650421,0.30313295125961304,0.0656660795211792
1761396727172988000,6.22498779296875,0.5363239049911499,0.4030064642429352,-0.4282039403915405
1761396727192365000,6.244364990234375,0.5329642295837402,-0.324054479598999,-1.6679184436798096
1761396727211729000,6.26372900390625,-0.14309096336364746,-1.8919466733932495,-4.0340352058410645
1761396727231119400,6.283119384765625,-0.675597071647644,-0.9268079996109009,-5.1242451667785645
1761396727250496800,6.302496826171875,-0.9303203821182251,1.9282920360565186,-4.7662882804870605
1761396727269860400,6.3218603515625,-0.8298360109329224,3.4986276626586914,-4.573108196258545
1761396727289251000,6.3412509765625,-0.4181249439716339,3.8984272480010986,-3.673635482788086
1761396727308628200,6.360628173828125,0.2495311051607132,3.451134204864502,-2.0704667568206787
1761396727327991800,6.37999169921875,1.158319115638733,2.1649954319000244,-0.35138988494873047
1761396727347382500,6.399382568359375,1.8220046758651733,1.1099094152450562,1.0355387926101685
1761396727366759700,6.418759765625,1.7737476825714111,0.656660795211792,2.1862223148345947
1761396727386123500,6.43812353515625,1.411973476409912,0.6151232123374939,2.8416614532470703
1761396727405514200,6.45751416015625,1.2247487306594849,0.6792621612548828,2.9085493087768555
1761396727424891400,6.476891357421875,1.1228899955749512,0.5146388411521912,2.7607240676879883
1761396727444255000,6.4962548828125,0.9538379907608032,0.33596599102020264,2.5012667179107666
1761396727463645700,6.515645751953125,0.6271874308586121,0.3898732662200928,1.9672335386276245
1761396727483022800,6.53502294921875,0.24571330845355988,0.7253811359405518,1.4671024084091187
1761396727502386700,6.55438671875,0.009315420873463154,1.1343433856964111,1.0152281522750854
1761396727521777400,6.57377734375,0.07620319724082947,1.9418834447860718,0.2435753494501114
1761396727541154600,6.593154541015625,0.44668206572532654,1.744579792022705,-1.255443811416626
1761396727560518100,6.61251806640625,0.05238015204668045,-2.7668325901031494,-4.2710442543029785
1761396727579908900,6.631908935546875,-1.495812177658081,-6.491015911102295,-5.966145038604736
1761396727599286000,6.6512861328125,-2.08634877204895,-2.6228253841400146,-3.9903597831726074
1761396727618649900,6.67064990234375,-0.7919634580612183,2.4282705783843994,-1.7977235317230225
1761396727638040300,6.690040283203125,0.511431872844696,2.7993602752685547,-0.7565343379974365
1761396727657417700,6.709417724609375,0.7090409398078918,0.8484668135643005,0.6592568755149841
1761396727676781300,6.72878125,0.7589777112007141,-0.6024481058120728,1.8140636682510376
1761396727696172000,6.748172119140625,0.8191461563110352,-0.8617527484893799,1.9644848108291626
1761396727715549200,6.767549072265625,0.7183563709259033,-0.8287670016288757,1.4976447820663452
1761396727734912800,6.786912841796875,0.16615045070648193,-0.7705838084220886,1.2281084060668945
1761396727754303500,6.806303466796875,-0.5121954083442688,-0.6212316751480103,1.2679661512374878
1761396727773680600,6.8256806640625,-0.9112313985824585,-0.14553436636924744,1.2881242036819458
1761396727793044500,6.84504443359375,-1.0404255390167236,0.5396835803985596,1.4255647659301758
1761396727812435200,6.864435302734375,-1.004996418952942,1.2731584310531616,1.680898904800415
1761396727831812400,6.883812255859375,-1.0669974088668823,1.4667969942092896,1.7390820980072021
1761396727851176000,6.903176025390625,-1.0747857093811035,1.3821946382522583,1.3487507104873657
1761396727870566700,6.922566650390625,-1.053253412246704,0.9544488191604614,0.5410579442977905
1761396727889943800,6.94194384765625,-1.2384928464889526,-0.2157817929983139,0.27121618390083313
1761396727909307400,6.961307373046875,-1.0787562131881714,-0.43110546469688416,1.4475553035736084
1761396727928698000,6.980697998046875,-0.7226322889328003,-1.1651911735534668,2.0026626586914062
1761396727948075500,7.000075439453125,-1.012784719467163,-3.338127613067627,0.5196782946586609
1761396727967439000,7.019439208984375,-1.2488771677017212,-2.809286594390869,-0.35536038875579834
1761396727986829800,7.038829833984375,-0.8168554902076721,0.21349111199378967,-0.6332958936691284
1761396728006207000,7.05820703125,-0.1579040139913559,2.0055642127990723,-1.2548329830169678
1761396728025570600,7.077570556640625,-0.19592925906181335,1.9314990043640137,-1.2685770988464355
1761396728044961300,7.096961181640625,-0.46134239435195923,0.8756495714187622,-0.587329626083374
1761396728064338400,7.11633837890625,-0.3038965165615082,-0.12766708433628082,0.1056765764951706
1761396728083702300,7.135702392578125,-0.14828316867351532,-0.5500679612159729,0.44362783432006836
1761396728103093000,7.155093017578125,-0.20234315097332,-0.6178719997406006,0.5282301902770996
1761396728122470100,7.17447021484375,-0.4474456310272217,-0.5299099683761597,0.5752654075622559
1761396728141833700,7.193833740234375,-0.5286883115768433,-0.5425850749015808,0.5661026835441589
1761396728161224400,7.213224365234375,-0.44698747992515564,-0.5386145710945129,0.5486935377120972
1761396728180601600,7.2326015625,-0.4220954477787018,-0.46668729186058044,0.3243598937988281
1761396728199965400,7.25196533203125,-0.4387410581111908,-0.7285880446434021,0.06184828653931618
1761396728219356000,7.27135595703125,-0.26938363909721375,-1.1118947267532349,0.055739812552928925
1761396728238733000,7.290733154296875,0.09941539168357849,-1.431673288345337,0.11346487700939178
1761396728258097000,7.310096923828125,0.3358132839202881,-2.067718029022217,0.19394400715827942
1761396728277487600,7.329487548828125,0.4503471553325653,-2.033510446548462,0.2990097403526306
1761396728296864800,7.34886474609375,0.023059483617544174,-1.7134265899658203,-0.7224795818328857
1761396728316228400,7.368228271484375,-0.5008947253227234,-0.7805100679397583,-0.8405258059501648
1761396728335619000,7.387619140625,-0.22036315500736237,0.6413896083831787,0.6569662094116211
1761396728354996200,7.406996337890625,0.13896775245666504,0.598783016204834,1.6758594512939453
1761396728374360000,7.426360107421875,0.3179459869861603,0.3232909142971039,2.1362855434417725
1761396728393750800,7.445750732421875,0.2808370292186737,0.18768282234668732,2.018697500228882
1761396728413128000,7.4651279296875,0.0656660795211792,0.23853585124015808,1.333937644958496
1761396728432491500,7.484491455078125,0.029778804630041122,0.3637595474720001,0.6328377723693848
1761396728451882200,7.50388232421875,0.1459924876689911,0.2632751762866974,0.05528167635202408
1761396728471259400,7.52325927734375,-0.1453816443681717,0.3727695345878601,-0.6884248852729797
1761396728490623200,7.542623291015625,-0.5906893014907837,0.7705838084220886,-1.277281641960144
1761396728510013700,7.562013671875,-0.6896465420722961,1.2348277568817139,-1.2731584310531616
1761396728529391000,7.58139111328125,-0.35474956035614014,1.209324836730957,-0.7458444833755493
1761396728548768300,7.600768310546875,0.15500248968601227,0.3742966651916504,-0.21471281349658966
1761396728568145400,7.6201455078125,0.1948602795600891,-0.9226847887039185,-0.06780404597520828
1761396728587522600,7.6395224609375,-0.12216944992542267,-1.483747959136963,-0.5187620520591736
1761396728606886100,7.65888623046875,-0.15484978258609772,-1.2215417623519897,-1.0848647356033325
1761396728626276900,7.67827685546875,0.012216945178806782,-0.9429954290390015,-1.31622314453125
1761396728645654000,7.697654052734375,0.03833066672086716,-0.80937260389328,-0.7458444833755493
1761396728665017900,7.717017822265625,0.27686652541160583,-0.7641699314117432,0.1829487532377243
1761396728684408600,7.73640869140625,0.17439688742160797,-1.2084085941314697,0.04718795046210289
1761396728703785700,7.75578564453125,-0.3255815804004669,-1.6572285890579224,-0.9164236187934875
1761396728723149300,7.7751494140625,-0.35261157155036926,-0.8281561732292175,-0.9752176403999329
1761396728742540000,7.7945400390625,-0.14461809396743774,0.3205420970916748,-0.3912476599216461
1761396728761917200,7.813917236328125,0.29626092314720154,0.7082774043083191,0.5783196687698364
1761396728781281000,7.833281005859375,0.8756495714187622,0.5479300022125244,1.7030421495437622
1761396728800671700,7.852671630859375,1.1705360412597656,-0.03573456406593323,2.1504876613616943
1761396728820049000,7.872048828125,1.3201936483383179,-0.6206207871437073,2.063136577606201
1761396728839412500,7.89141259765625,1.3588297367095947,-0.6972821354866028,2.0613040924072266
1761396728858803200,7.91080322265625,1.0856282711029053,-0.4265241026878357,2.0379390716552734
1761396728878180400,7.930180419921875,0.5059342384338379,0.15530791878700256,1.6524945497512817
1761396728897544000,7.9495439453125,-0.13682979345321655,0.6000047326087952,0.867861270904541
1761396728916934700,7.9689345703125,-0.5219689607620239,0.648108959197998,-0.022754060104489326
1761396728936311800,7.988311767578125,-0.5746545791625977,0.5234960913658142,-0.616802990436554
1761396728955675600,8.007675537109375,-0.43797749280929565,0.3477247953414917,-0.841747522354126
1761396728975066400,8.02706640625,-0.23380178213119507,0.0010689827613532543,-0.9008470177650452
1761396728994443500,8.046443603515625,0.09452861547470093,-0.35444411635398865,-0.9558232426643372
1761396729013807000,8.06580712890625,0.4175141155719757,-0.409420371055603,-1.210546612739563
1761396729033197800,8.08519775390625,0.6122216582298279,-0.779593825340271,-1.5182608366012573
1761396729052575000,8.104574951171875,0.62627112865448,-1.8478130102157593,-1.7425944805145264
1761396729071938800,8.123938720703125,0.07559234648942947,-2.8503661155700684,-2.060235023498535
1761396729091329300,8.143329345703124,-0.08903098851442337,-1.9741055965423584,-1.6941848993301392
1761396729110706700,8.162706787109375,0.5121954083442688,0.3396310806274414,-0.9587247967720032
1761396729130070300,8.1820703125,1.0511153936386108,1.7108304500579834,-0.48638713359832764
1761396729149461000,8.2014609375,1.2000094652175903,1.8212411403656006,0.8232693672180176
1761396729168838100,8.220838134765625,1.1462548971176147,0.959793746471405,2.088792085647583
1761396729188201700,8.24020166015625,0.9559759497642517,0.08887827396392822,2.8334150314331055
1761396729207592400,8.259592529296874,0.7160657048225403,-0.24021568894386292,3.2159581184387207
1761396729226969600,8.278969482421875,0.4020902216434479,-0.3498627543449402,3.3720295429229736
1761396729246333400,8.29833349609375,-0.22540263831615448,-0.2982461750507355,3.1234147548675537
1761396729265724200,8.31772412109375,-0.9210049510002136,0.029320668429136276,2.368865728378296
1761396729285101300,8.337101318359375,-1.3299671411514282,0.49448084831237793,1.3253858089447021
1761396729304465000,8.35646484375,-1.4733636379241943,0.6235223412513733,0.43828290700912476
1761396729323855600,8.375855712890624,-1.479777455329895,0.4825693368911743,-0.3765873312950134
1761396729343232800,8.395232666015625,-1.4478607177734375,0.34879377484321594,-1.0279031991958618
1761396729362596600,8.4145966796875,-1.2917892932891846,0.3399364948272705,-1.4357964992523193
1761396729381987000,8.433987060546874,-0.9213103652000427,0.44515493512153625,-1.7346534729003906
1761396729401364500,8.453364501953125,-0.23288552463054657,0.24968381226062775,-2.071077585220337
1761396729420728000,8.47272802734375,0.33764582872390747,-0.2651077210903168,-2.404600143432617
1761396729440118800,8.492118896484374,0.776692271232605,-1.260025143623352,-2.687880754470825
1761396729459496000,8.511495849609375,0.724006712436676,-1.946770191192627,-3.3074324131011963
1761396729478859500,8.530859619140625,0.08124268800020218,-2.2150847911834717,-3.975241184234619
1761396729498250200,8.550250244140624,-0.5128062963485718,-1.629893183708191,-3.5662789344787598
1761396729517627400,8.56962744140625,-0.9029849767684937,0.2692309319972992,-1.589882731437683
1761396729536991200,8.5889912109375,-0.5430431962013245,1.2949961423873901,0.6108472347259521
1761396729556382000,8.6083818359375,0.1579040139913559,0.9191724061965942,2.7897393703460693
1761396729575759000,8.627759033203125,0.31321191787719727,-0.3833066523075104,4.611743927001953
1761396729595122700,8.647122802734375,-0.38941511511802673,-1.5614782571792603,5.340637683868408
1761396729614513400,8.666513427734374,-1.3861651420593262,-1.5903408527374268,4.954429626464844
1761396729633890600,8.685890625,-2.1475863456726074,-0.3558185398578644,3.871091842651367
1761396729653254100,8.705254150390624,-2.4401819705963135,0.8623636364936829,2.236769914627075
1761396729672644900,8.724644775390624,-2.352372884750366,1.189014196395874,0.8376243114471436
1761396729692022000,8.74402197265625,-2.1620938777923584,0.46760356426239014,0.342074453830719
1761396729711385900,8.7633857421875,-1.8916412591934204,-0.6354338526725769,0.4315635859966278
1761396729730776600,8.782776611328124,-1.3539429903030396,-1.0954018831253052,0.469741553068161
1761396729750153700,8.80215380859375,-0.776692271232605,-0.8773293495178223,0.21120044589042664
1761396729769517300,8.821517333984374,-0.9104678630828857,-0.20356485247612,-0.3095468580722809
1761396729788908000,8.840907958984374,-0.37414395809173584,0.15439164638519287,-0.8335011005401611
1761396729808285200,8.86028515625,0.7478297352790833,-0.940857470035553,-1.4979501962661743
1761396729827649000,8.87964892578125,1.0147700309753418,1.2520841360092163,-2.9545154571533203
1761396729847039700,8.899039794921874,0.23425991833209991,2.8016510009765625,-1.6063755750656128
1761396729866417000,8.9184169921875,-0.2867927849292755,2.262425422668457,0.48073679208755493
1761396729885780500,8.937780517578124,-0.5280774831771851,0.46241137385368347,0.6856760382652283
1761396729905171200,8.957171142578124,-0.7853968739509583,-0.19867807626724243,0.1635543555021286
1761396729924548400,8.97654833984375,-0.7667660117149353,-0.08964183181524277,0.1119377613067627
1761396729943912200,8.995912109375,-0.6445965766906738,-0.29794076085090637,0.11865708231925964
1761396729963302700,9.015302734375,-0.2011214643716812,-1.20504891872406,0.24494975805282593
1761396729982680000,9.03468017578125,0.2101314514875412,-1.942799687385559,0.4196520745754242
1761396730002043600,9.054043701171874,0.2993151545524597,-0.7075138092041016,0.7800519466400146
1761396730021434400,9.073434326171874,0.3245126008987427,0.23624517023563385,0.5772506594657898
1761396730040811500,9.0928115234375,0.5632011890411377,0.08170082420110703,0.34543412923812866
1761396730060175000,9.112175048828124,0.8254073858261108,-0.24998924136161804,0.8738170266151428
1761396730079565800,9.13156591796875,0.9252808690071106,0.0397050715982914,1.547734260559082
1761396730098943000,9.15094287109375,0.7663078904151917,0.4156815707683563,1.672041654586792
1761396730118306800,9.170306884765624,0.39567631483078003,0.2644968628883362,1.35226309299469
1761396730137697500,9.189697509765624,-0.023212196305394173,0.05512896552681923,0.8321266770362854
1761396730157074700,9.20907470703125,-0.09315420687198639,0.3408527672290802,0.6279509663581848
1761396730176438300,9.228438232421874,0.01710372418165207,0.47417017817497253,0.9703308939933777
1761396730195829000,9.2478291015625,-0.0006108472589403391,0.14996300637722015,1.0144646167755127
1761396730215206100,9.2672060546875,-0.04581354558467865,0.34665581583976746,1.0221002101898193
1761396730234569700,9.28656982421875,0.004886778071522713,0.8825215697288513,1.345391035079956
1761396730253960400,9.30596044921875,0.17241163551807404,0.47798797488212585,1.3220261335372925
1761396730273337600,9.325337646484375,0.10644013434648514,-0.32512345910072327,0.8502993583679199
1761396730292701400,9.344701416015624,-0.23242738842964172,-0.4220954477787018,0.16553960740566254
1761396730312092200,9.364092041015626,-0.3148917555809021,0.05085303261876106,-0.1519482582807541
1761396730331469300,9.38346923828125,-0.031916771084070206,0.3205420970916748,-0.3962871730327606
1761396730350833000,9.4028330078125,0.4384356141090393,-0.18905723094940186,-0.8018897175788879
1761396730370223600,9.4222236328125,0.7099572420120239,-0.6520794630050659,-0.5381564497947693
1761396730389600800,9.441600830078125,0.3381039500236511,-0.2757975459098816,0.18340688943862915
1761396730408964600,9.460964599609374,-0.25411245226860046,-0.054365407675504684,0.2658712565898895
1761396730428355300,9.480355224609376,-0.6952968835830688,-0.12048961967229843,-0.38636088371276855
1761396730447732500,9.499732421875,-0.7905890941619873,0.11774080991744995,-0.990183413028717
1761396730467096000,9.519095947265624,-0.6881194114685059,0.04611896723508835,-0.7369872331619263
1761396730486486800,9.53848681640625,-0.4680617153644562,0.06872031837701797,0.05405998229980469
1761396730505864000,9.557864013671875,-0.4159869849681854,-0.14049486815929413,0.569309651851654
1761396730525227800,9.577227783203124,-0.5037962794303894,-0.49356457591056824,0.5761816501617432
1761396730544618200,9.5966181640625,-0.49264830350875854,-0.39735615253448486,0.4822639226913452
1761396730563995600,9.61599560546875,-0.4819584786891937,-0.2038702666759491,0.5990884304046631
1761396730583359200,9.635359130859374,-0.3721587061882019,-0.23059484362602234,0.7409577369689941
1761396730602750000,9.65475,-0.1844758689403534,-0.4793623983860016,0.867250382900238
1761396730622127000,9.674127197265625,-0.1041494607925415,-0.7327113151550293,0.9730796813964844
1761396730641490700,9.69349072265625,-0.18035265803337097,-0.2238755226135254,0.816550076007843
1761396730660881400,9.71288134765625,-0.1250709742307663,0.31351736187934875,0.4694361090660095
1761396730680258600,9.732258544921875,0.0462716780602932,0.02473931387066841,-0.42011019587516785
1761396730699622400,9.751622314453124,0.05070032179355621,0.10155335813760757,-1.389830231666565
1761396730719013000,9.77101318359375,0.08063183724880219,0.09147437661886215,-1.8812568187713623
1761396730738390300,9.790390380859375,0.26663482189178467,-0.1913478970527649,-1.910424828529358
1761396730757753900,9.80975390625,0.46332764625549316,-0.07360709458589554,-1.643179178237915
1761396730777144600,9.82914453125,0.7032378911972046,-0.39796698093414307,-1.030041217803955
1761396730796521700,9.848521728515625,0.5653391480445862,-0.6116108298301697,-0.43080002069473267
1761396730815885300,9.86788525390625,0.18142163753509521,-0.5201364159584045,-0.4434750974178314
1761396730835276000,9.887276123046876,-0.16111096739768982,-0.07925742864608765,-1.1577082872390747
1761396730854653200,9.906653076171875,-0.2486148327589035,0.5050179958343506,-1.5501775741577148
1761396730874017000,9.92601708984375,-0.13988402485847473,0.555260181427002,-1.0178242921829224
1761396730893407700,9.94540771484375,-0.08353336155414581,-0.0021379655227065086,-0.14828316867351532
1761396730912785000,9.964784912109375,-0.1650814712047577,-0.5775560736656189,0.4294256269931793
1761396730932148500,9.9841484375,-0.4372139275074005,-0.5144860744476318,0.7594358325004578
1761396730951539200,10.003539306640626,-0.6555918455123901,0.1447708010673523,0.7598940134048462
1761396730970916400,10.022916259765625,-0.6615476012229919,0.8267817497253418,0.5302154421806335
1761396730990280200,10.0422802734375,-0.3461976945400238,1.2157387733459473,0.7324058413505554
1761396731009670700,10.061670654296876,0.17745113372802734,1.1862653493881226,1.602710485458374
1761396731029048000,10.081048095703125,0.3426853120326996,1.4321314096450806,1.747175931930542
1761396731048411600,10.10041162109375,0.7684458494186401,0.8240329623222351,-0.2670929729938507
1761396731067802400,10.11980224609375,0.7078192830085754,0.9197832345962524,-3.118680715560913
1761396731087179500,10.139179443359374,0.5007420182228088,1.6500511169433594,-3.8203914165496826
1761396731106543000,10.158543212890624,0.4727957844734192,1.4593141078948975,-2.256317138671875
1761396731125933800,10.177933837890626,0.5216635465621948,-0.3739912211894989,-0.6971294283866882
1761396731145311000,10.19731103515625,0.18768282234668732,-1.1503781080245972,-0.3032856583595276
1761396731164674800,10.2166748046875,-0.40483900904655457,-0.568393349647522,-0.5144860744476318
1761396731184065500,10.2360654296875,-0.682163655757904,-0.20096874237060547,-0.8492304086685181
1761396731203442700,10.255442626953124,-0.5841227173805237,-0.8877137899398804,-0.8244910836219788
1761396731222806300,10.27480615234375,-0.42728766798973083,-1.3883031606674194,-0.40544986724853516
1761396731242197000,10.294197021484376,-0.33169007301330566,-0.7959339618682861,-0.18142163753509521
1761396731261574100,10.31357421875,-0.31886225938796997,0.06245913356542587,-0.46302223205566406
1761396731280938000,10.33293798828125,-0.30160582065582275,0.13835690915584564,-0.5140279531478882
1761396731300328400,10.352328369140626,-0.30786702036857605,-0.11147962510585785,-0.06795676052570343
1761396731319705900,10.371705810546874,-0.23349636793136597,0.04169032722711563,0.6604785919189453
1761396731339069400,10.3910693359375,-0.2313583940267563,0.038636088371276855,1.0683718919754028
1761396731358460200,10.410460205078126,-0.2585411071777344,-0.1629435122013092,0.9147437810897827
1761396731377837300,10.42983740234375,-0.23655059933662415,-0.06123743951320648,0.7290462255477905
1761396731397201000,10.449200927734376,-0.05894676223397255,0.6560499668121338,0.4695888161659241
1761396731416591600,10.468591552734376,0.17592400312423706,0.9523108601570129,0.16691401600837708
1761396731435968800,10.48796875,0.19318044185638428,0.5132644176483154,0.4355340898036957
1761396731455332600,10.50733251953125,0.03130592033267021,-0.12690351903438568,0.9497147798538208
1761396731474723300,10.526723388671876,-0.2930539846420288,-0.6858287453651428,0.5196782946586609
1761396731494100500,10.5461005859375,-0.6108472347259521,-0.41354358196258545,-0.5453338623046875
1761396731513464000,10.565464111328126,-0.49417543411254883,-0.24632415175437927,-1.3359229564666748
1761396731532854800,10.584854736328126,-0.2104368805885315,-0.15912571549415588,-1.5796509981155396
1761396731552232000,10.60423193359375,-0.0022906772792339325,-0.15912571549415588,-0.9559759497642517
1761396731571595500,10.623595458984376,-0.0859767496585846,-0.5789304971694946,-0.05131116881966591
1761396731590986200,10.642986328125,-0.21440738439559937,-0.7098045349121094,-0.011453386396169662
1761396731610363400,10.66236328125,0.12675081193447113,-0.2880144715309143,-0.5027272701263428
1761396731629727200,10.681727294921876,0.45202696323394775,-0.046729814261198044,-0.804791271686554
1761396731649118000,10.701117919921876,0.6145123243331909,0.1985253542661667,-0.6772769093513489
1761396731668495000,10.7204951171875,0.4695888161659241,0.615428626537323,-0.16126367449760437
1761396731687858700,10.739858642578126,0.02473931387066841,0.3426853120326996,0.6592568755149841
1761396731707249400,10.75924951171875,-0.31565532088279724,-0.19654010236263275,1.2581926584243774
1761396731726626600,10.77862646484375,-0.4005630910396576,-0.2644968628883362,1.6277552843093872
1761396731745990100,10.797990234375,-0.3184041380882263,0.07116370648145676,1.4674078226089478
1761396731765380900,10.817380859375,-0.2782409191131592,0.4781406819820404,0.7783721089363098
1761396731784758000,10.836758056640624,-0.3038965165615082,0.4225535988807678,0.36757734417915344
1761396731804121900,10.856121826171876,-0.28999972343444824,0.25945737957954407,0.7812736630439758
1761396731823512600,10.8755126953125,-0.005497625097632408,0.31825143098831177,1.0495883226394653
1761396731842889700,10.8948896484375,0.1682884246110916,0.021379653364419937,-0.32344362139701843
1761396731862253300,10.91425341796875,-0.29091599583625793,0.16492876410484314,-1.835595965385437
1761396731881644000,10.93364404296875,-0.30633988976478577,0.7437065243721008,-1.5727789402008057
1761396731901021200,10.953021240234374,0.2411319613456726,0.14813046157360077,-0.4921901822090149
1761396731920385000,10.972385009765626,0.5506787896156311,-1.0558494329452515,-0.18157434463500977
1761396731939775700,10.991775634765625,0.7337802648544312,-1.1334271430969238,-0.26067906618118286
1761396731959153000,11.01115283203125,0.48516544699668884,-0.4947862923145294,-0.5512896776199341
1761396731978516500,11.0305166015625,-0.31260108947753906,-0.19333316385746002,-1.202147364616394
1761396731997907200,11.0499072265625,-0.6473453640937805,-0.2579302489757538,-1.4440429210662842
1761396732017284400,11.069284423828124,-0.025961007922887802,-0.45615020394325256,-0.9168817400932312
1761396732036648000,11.08864794921875,0.22433365881443024,-0.4289674758911133,-0.4161396920681
1761396732056038700,11.10803857421875,-0.14813046157360077,-0.06123743951320648,-0.2773246467113495
1761396732075415800,11.127415771484374,-0.2811424434185028,0.3746020793914795,-0.31229567527770996
1761396732094779600,11.146779541015626,-0.26877278089523315,0.9840749502182007,-0.453095942735672
1761396732114170400,11.16617041015625,-0.4790569543838501,1.196191668510437,-0.02229592576622963
1761396732133547500,11.185547607421874,-0.1629435122013092,0.27625566720962524,0.8591566681861877
1761396732152911000,11.2049111328125,0.01969982497394085,0.2441861927509308,1.0427162647247314
1761396732172301800,11.2243017578125,-0.261442631483078,0.2987042963504791,1.2081031799316406
1761396732191679000,11.243678955078124,-0.2283041626214981,0.3906368315219879,1.2902621030807495
