time,seconds_elapsed,z,y,x
1761299160778961700,0.084961669921875,-0.0041819605976343155,0.0034774579107761383,0.04142235219478607
1761299160799085800,0.1050859375,-0.008504868485033512,-0.05762611702084541,0.05819481238722801
1761299160819209000,0.125208984375,-0.01097832154482603,-0.06848286092281342,0.04091816395521164
1761299160839331800,0.145331787109375,-0.04015276953577995,-0.06476753950119019,-0.00886952318251133
1761299160859455000,0.165455078125,-0.13395202159881592,-0.07183904945850372,-0.05599018186330795
1761299160879577900,0.185577880859375,-0.17564783990383148,-0.07265891879796982,-0.08256299048662186
1761299160899701000,0.205700927734375,-0.11574298143386841,-0.05619436502456665,-0.10026592761278152
1761299160919825000,0.225824951171875,-0.04585020989179611,-0.07617063075304031,-0.07296527177095413
1761299160939947800,0.24594775390625,0.021775947883725166,-0.09811925143003464,0.023890065029263496
1761299160960071000,0.26607080078125,0.04447665438055992,-0.03561108931899071,0.09799695014953613
1761299160980193800,0.28619384765625,0.022599875926971436,0.009807972237467766,0.06105394661426544
1761299161000317000,0.30631689453125,0.02056877315044403,0.013815393671393394,-0.02880023419857025
1761299161020439800,0.326439697265625,0.03951167315244675,0.0011705700308084488,-0.010205309838056564
1761299161040563700,0.346563720703125,0.053548116236925125,-0.014485303312540054,0.061885688453912735
1761299161060686000,0.36668603515625,0.060570236295461655,-0.014497930184006691,0.14121560752391815
1761299161080809200,0.386809326171875,0.051431335508823395,0.01410573162138462,0.15770283341407776
1761299161100932000,0.40693212890625,0.041970521211624146,0.0022948840633034706,0.0711776465177536
1761299161121055200,0.42705517578125,0.034404780715703964,0.015076583251357079,0.02437693066895008
1761299161141178000,0.44717822265625,0.007656235247850418,-0.00460674986243248,0.041116129606962204
1761299161161302000,0.467302001953125,-0.009390788152813911,0.0029582157731056213,0.051561322063207626
1761299161181425200,0.487425048828125,-0.02172047458589077,0.014908012002706528,0.005084053613245487
1761299161201548000,0.507548095703125,-0.0305350162088871,0.03291182965040207,-0.026119111105799675
1761299161221671200,0.527671142578125,-0.021653195843100548,0.04159461706876755,-0.039375223219394684
1761299161241794000,0.5477939453125,-0.002837889129295945,0.011783162131905556,-0.04035288095474243
1761299161261917200,0.567917236328125,0.011090242303907871,-0.05986092612147331,-0.05693572387099266
1761299161282041000,0.588041015625,0.03316604346036911,-0.12462152540683746,-0.06248227506875992
1761299161302164000,0.6081640625,0.01740519143640995,-0.16967369616031647,-0.07787534594535828
1761299161322287000,0.628287109375,0.005160879343748093,-0.16086304187774658,-0.07378920912742615
1761299161342410000,0.648409912109375,-0.02260686084628105,-0.11861267685890198,-0.08227691799402237
1761299161362533000,0.668533203125,-0.019803950563073158,-0.029280144721269608,-0.06689915060997009
1761299161382656000,0.688656005859375,-0.013170722872018814,0.03955794498324394,-0.02068151719868183
1761299161402780200,0.7087802734375,-0.020485732704401016,0.08758074790239334,0.04207422956824303
1761299161422903000,0.728903076171875,-0.02408602088689804,0.1042328029870987,0.07203391194343567
1761299161443026200,0.749026123046875,-0.02254185825586319,0.056997139006853104,0.039496760815382004
1761299161463149000,0.769149169921875,-0.0012646117247641087,-0.04196161776781082,0.013507670722901821
1761299161483272200,0.789272216796875,0.017384178936481476,-0.07504288852214813,0.033992547541856766
1761299161503395000,0.80939501953125,0.0281161330640316,-0.038128871470689774,0.06247223541140556
1761299161523519000,0.82951904296875,0.013608030043542385,0.03235941007733345,0.028259936720132828
1761299161543642000,0.84964208984375,-0.006522625684738159,0.0675925761461258,-0.041831497102975845
1761299161563765000,0.869764892578125,-0.005283216945827007,0.06096194311976433,-0.06724359095096588
1761299161583888100,0.88988818359375,0.024530263617634773,0.03348720818758011,-0.049912791699171066
1761299161604011000,0.910010986328125,0.044745415449142456,-0.040404438972473145,-0.010265560820698738
1761299161624134100,0.930134033203125,0.028039952740073204,-0.0793369710445404,-0.005252720322459936
1761299161644258300,0.95025830078125,0.04612690210342407,-0.0749918594956398,-0.018122375011444092
1761299161664381200,0.970381103515625,0.048586905002593994,-0.09153211116790771,-0.015558098442852497
1761299161684504000,0.990504150390625,0.043514735996723175,-0.09178626537322998,0.014135311357676983
1761299161704627000,1.010626953125,0.02879420295357704,-0.07327419519424438,0.04531247913837433
1761299161724750000,1.03075,0.005341503769159317,-0.033800672739744186,0.052032120525836945
1761299161744873000,1.050873046875,0.0013948901323601604,0.03372221440076828,0.055305421352386475
1761299161764997000,1.0709970703125,0.026506012305617332,0.0817878395318985,0.08955040574073792
1761299161785120300,1.091120361328125,0.0499323308467865,0.06799203157424927,0.136408269405365
1761299161805243100,1.1112431640625,0.05165218561887741,0.007551662623882294,0.16089275479316711
1761299161825366300,1.1313662109375,0.053421296179294586,-0.05202740803360939,0.17065836489200592
1761299161845489200,1.1514892578125,0.03729388117790222,-0.04354613274335861,0.14973676204681396
1761299161865612300,1.1716123046875,0.012755338102579117,-0.006052637938410044,0.09359542280435562
1761299161885736200,1.191736083984375,0.034518763422966,0.05199731886386871,0.02304801344871521
1761299161905859300,1.211859375,0.06838743388652802,0.026219068095088005,-0.028040435165166855
1761299161925982200,1.231982177734375,0.07576020807027817,-0.04438675567507744,-0.04343263432383537
1761299161946105300,1.252105224609375,0.05635804310441017,-0.10356840491294861,-0.0470895878970623
1761299161966228200,1.272228271484375,0.049261126667261124,-0.029510188847780228,-0.05718311294913292
1761299161986351400,1.292351318359375,0.028535060584545135,0.025564035400748253,-0.043863020837306976
1761299162006475300,1.312475341796875,0.02756507322192192,0.002213168889284134,-0.022974375635385513
1761299162026598100,1.33259814453125,0.006003593560308218,-0.061558112502098083,-0.007340073119848967
1761299162046721300,1.35272119140625,-0.01771594025194645,-0.06825613975524902,-0.0010012886486947536
1761299162066844400,1.372844482421875,-0.01823253184556961,-0.005440136883407831,0.0017551025375723839
1761299162086967600,1.392967529296875,0.01690707914531231,0.10238166898488998,0.017298376187682152
1761299162107090400,1.41309033203125,0.04118429124355316,0.13366594910621643,0.056210290640592575
1761299162127214300,1.43321435546875,0.03737475350499153,0.06636901199817657,0.0747002586722374
1761299162147337500,1.45333740234375,0.035796474665403366,0.02033556066453457,0.06254696100950241
1761299162167460400,1.47346044921875,0.0407201386988163,0.028721800073981285,0.036446623504161835
1761299162187583500,1.49358349609375,0.057465460151433945,0.003168391063809395,0.009442657232284546
1761299162207706400,1.513706298828125,0.07102487236261368,-0.01565880887210369,-0.015716640278697014
1761299162227829500,1.53382958984375,0.0701235830783844,-0.023759033530950546,-0.04481710121035576
1761299162247953400,1.553953369140625,0.04910435155034065,-0.026026323437690735,-0.12454941123723984
1761299162268076500,1.57407666015625,-0.005479338578879833,-0.04654008895158768,-0.21862156689167023
1761299162288199400,1.594199462890625,-0.036898475140333176,-0.03855103254318237,-0.202609121799469
1761299162308322300,1.614322265625,-0.015188539400696754,0.006753412075340748,-0.05942010134458542
1761299162328445400,1.634445556640625,0.033255547285079956,0.033657509833574295,0.07702352851629257
1761299162348568300,1.654568359375,0.02980998158454895,0.04477768391370773,0.10880601406097412
1761299162368691500,1.67469140625,-0.025011053308844566,0.03218252211809158,0.07761428505182266
1761299162388815400,1.6948154296875,-0.08321011066436768,0.022212712094187737,0.03692983090877533
1761299162408938500,1.7149384765625,-0.09337974339723587,0.059288255870342255,0.007817521691322327
1761299162429061400,1.735061279296875,-0.06149988994002342,0.09807446599006653,0.03996795415878296
1761299162449184500,1.7551845703125,-0.03797023370862007,0.12379699945449829,0.06591106951236725
1761299162469307400,1.775307373046875,-0.030457518994808197,0.09358610212802887,0.051955446600914
1761299162489430500,1.795430419921875,-0.03685733675956726,0.05490437522530556,-0.013092314824461937
1761299162509554400,1.815554443359375,-0.02567000314593315,0.005528606474399567,-0.07688673585653305
1761299162529677300,1.83567724609375,0.011995629407465458,-0.03559917211532593,-0.08728320896625519
1761299162549800400,1.855800537109375,0.03370419517159462,-0.05291854217648506,-0.06131419911980629
1761299162569923300,1.87592333984375,0.01855519227683544,-0.05226842314004898,-0.06421807408332825
1761299162590046500,1.89604638671875,0.013289148919284344,-0.03789038211107254,-0.10402347147464752
1761299162610169300,1.91616943359375,0.024891769513487816,-0.0037468993104994297,-0.09140333533287048
1761299162630293200,1.936293212890625,0.015873951837420464,0.011891799047589302,-0.048007089644670486
1761299162650416400,1.95641650390625,-0.019591670483350754,0.01990274339914322,-0.02537946030497551
1761299162670539300,1.976539306640625,-0.03816387057304382,0.02459196001291275,-0.00004365207860246301
1761299162690662400,1.996662353515625,-0.022765764966607094,0.03949245065450668,0.0515090748667717
1761299162710785300,2.016785400390625,-0.005590149201452732,0.05175141990184784,0.10203250497579575
1761299162730908400,2.036908447265625,-0.004012915305793285,0.07000428438186646,0.09688761085271835
1761299162751032300,2.0570322265625,-0.01939278282225132,0.11640205979347229,0.042803965508937836
1761299162771155500,2.077155517578125,-0.0503498874604702,0.13086242973804474,0.005719686392694712
1761299162791278300,2.0972783203125,-0.07305403798818588,0.03776084631681442,-0.016969069838523865
1761299162811401500,2.1174013671875,-0.08078611642122269,-0.10868426412343979,-0.013117329217493534
1761299162831524400,2.1375244140625,-0.08644060790538788,-0.18659211695194244,0.06252536922693253
1761299162851647500,2.1576474609375,-0.07424631714820862,-0.17744870483875275,0.11313153803348541
1761299162871770400,2.177770263671875,-0.04417116567492485,-0.10317876935005188,0.023548385128378868
1761299162891894300,2.197894287109375,0.00100265524815768,-0.0413181371986866,-0.1081835925579071
1761299162912017400,2.218017333984375,0.01304349210113287,-0.01816922053694725,-0.1340276151895523
1761299162932140300,2.238140380859375,-0.003719648811966181,-0.009755470789968967,-0.04415031149983406
1761299162952263400,2.258263427734375,-0.013919010758399963,0.022413598373532295,0.0704321637749672
1761299162972386300,2.27838623046875,0.016860421746969223,0.08726364374160767,0.10113532841205597
1761299162992509400,2.298509521484375,0.036017224192619324,0.13642923533916473,0.08806809037923813
1761299163012633300,2.31863330078125,0.0010765906190499663,0.14553523063659668,0.09653312712907791
1761299163032756200,2.338756103515625,-0.029965002089738846,0.15263143181800842,0.11239262670278549
1761299163052879400,2.35887939453125,-0.04276902228593826,0.20591546595096588,0.05289416015148163
1761299163073002000,2.379001953125,-0.022192640230059624,0.23042213916778564,-0.009814496152102947
1761299163093124900,2.399124755859375,0.00020627235062420368,0.16379119455814362,-0.00967549066990614
1761299163113247700,2.419247802734375,0.001730510382913053,0.09222708642482758,0.0013655098155140877
1761299163133372000,2.439371826171875,0.029471175745129585,0.020911704748868942,-0.03304102644324303
1761299163153494800,2.459494873046875,-0.012538047507405281,-0.10089041292667389,-0.11135769635438919
1761299163173618000,2.479617919921875,0.02974020689725876,-0.16995060443878174,-0.11422254145145416
1761299163193740800,2.49974072265625,0.06354589015245438,-0.16692784428596497,-0.0695265531539917
1761299163213864000,2.519864013671875,0.037447620183229446,-0.13447126746177673,-0.06586877256631851
1761299163233986800,2.53998681640625,0.01754617504775524,-0.10802804678678513,-0.07002270221710205
1761299163254111000,2.560111083984375,-0.005834984593093395,-0.09501396119594574,-0.04607713222503662
1761299163274234000,2.580234130859375,-0.01978464424610138,-0.10669688880443573,-0.03514416143298149
1761299163294357000,2.60035693359375,-0.02436784841120243,-0.10664720833301544,-0.03932416811585426
1761299163314479900,2.62047998046875,-0.021899867802858353,-0.030495837330818176,0.012650937773287296
1761299163334602800,2.640602783203125,-0.0022805510088801384,0.13218465447425842,0.09484832733869553
1761299163354726000,2.660725830078125,0.03138138726353645,0.24572515487670898,0.09181356430053711
1761299163374850000,2.68085009765625,0.026161285117268562,0.1927478313446045,0.025038614869117737
1761299163394973000,2.700972900390625,0.022397033870220184,0.08840654045343399,-0.009679803624749184
1761299163415096000,2.721095947265625,0.05269930884242058,0.018162092193961143,0.019210221245884895
1761299163435219000,2.741218994140625,0.08995462954044342,-0.005915673449635506,0.05372008681297302
1761299163455342000,2.761342041015625,0.12604272365570068,-0.014810338616371155,0.05371677130460739
1761299163475465000,2.78146484375,0.13960762321949005,-0.022263560444116592,0.03361477330327034
1761299163495587800,2.801587890625,0.11699586361646652,-0.016452841460704803,0.02270219661295414
1761299163515712000,2.8217119140625,0.08495733141899109,0.017519904300570488,0.0002474231878295541
1761299163535835100,2.841835205078125,0.07258673012256622,-0.004973843693733215,0.00131340348161757
1761299163555958000,2.8619580078125,0.09846866130828857,-0.0609646737575531,0.04400147870182991
1761299163576081200,2.8820810546875,0.11217101663351059,-0.08054820448160172,0.09919057786464691
1761299163596204000,2.9022041015625,0.10519662499427795,-0.029003649950027466,0.11352803558111191
1761299163616327200,2.9223271484375,0.07550497353076935,0.11361394822597504,0.09643653780221939
1761299163636451000,2.942451171875,0.08962322771549225,0.16420911252498627,0.10474501550197601
1761299163656574000,2.962573974609375,0.1497034728527069,0.09621565043926239,0.1166614443063736
1761299163676697000,2.982697021484375,0.1581009477376938,-0.06391596794128418,0.0877874568104744
1761299163696820000,3.002820068359375,0.09261281043291092,-0.1894911378622055,0.06641467660665512
1761299163716943000,3.022943115234375,0.03974902257323265,-0.16542957723140717,0.10170979052782059
1761299163737066000,3.04306591796875,0.06167391687631607,-0.02456655725836754,0.13453719019889832
1761299163757189000,3.063189208984375,0.09802115708589554,0.09755394607782364,0.12885010242462158
1761299163777313000,3.08331298828125,0.08898350596427917,0.10251176357269287,0.15316054224967957
1761299163797436000,3.103435791015625,0.06640628725290298,0.07968179881572723,0.2280668467283249
1761299163817559000,3.12355908203125,0.07710535824298859,0.09034186601638794,0.2600894868373871
1761299163837682000,3.143681884765625,0.08466912806034088,0.10193033516407013,0.21150678396224976
1761299163857805000,3.16380517578125,0.05495885759592056,0.09813978523015976,0.13875797390937805
1761299163877928000,3.183927978515625,0.010132757015526295,0.04889756068587303,0.06828414648771286
1761299163898052000,3.204052001953125,-0.00487337913364172,-0.0465678833425045,0.01681685633957386
1761299163918175000,3.224175048828125,0.021660756319761276,-0.11528940498828888,0.03285536915063858
1761299163938298000,3.244298095703125,0.03258240967988968,-0.07571175694465637,0.03684457391500473
1761299163958421000,3.2644208984375,-0.007147757336497307,-0.01711396872997284,-0.006707294378429651
1761299163978543900,3.2845439453125,-0.015247113071382046,0.019002025946974754,-0.02915026806294918
1761299163998667000,3.3046669921875,-0.027501294389367104,0.02622256986796856,-0.04372205585241318
1761299164018791000,3.324791015625,-0.07532742619514465,0.028109217062592506,-0.06937184184789658
1761299164038914000,3.3449140625,-0.09762874990701675,-0.011621363461017609,-0.07379452884197235
1761299164059037000,3.365036865234375,-0.07730342447757721,-0.022492170333862305,-0.06462116539478302
1761299164079160300,3.385160400390625,-0.05239695683121681,-0.024690547958016396,-0.1263488233089447
1761299164099283200,3.405283203125,-0.031975723803043365,-0.08712349086999893,-0.17185354232788086
1761299164119406300,3.42540625,-0.016630081459879875,-0.13687390089035034,-0.11656919866800308
1761299164139530500,3.445530517578125,0.003204368520528078,-0.14389489591121674,-0.07240685820579529
1761299164159653400,3.4656533203125,0.014674019068479538,-0.09671705216169357,-0.06837711483240128
1761299164179776500,3.485776611328125,0.008085017092525959,-0.055497415363788605,-0.07291246950626373
1761299164199899400,3.5058994140625,-0.03156677633523941,-0.03888200223445892,-0.0596102736890316
1761299164220022300,3.526022216796875,-0.07615039497613907,-0.03671111539006233,-0.06973711401224136
1761299164240145200,3.546145263671875,-0.07135772705078125,-0.03808840364217758,-0.04280587285757065
1761299164260268300,3.566268310546875,-0.05100402235984802,0.013793323189020157,0.012920322827994823
1761299164280392400,3.586392333984375,-0.031015651300549507,0.037219494581222534,0.03751229867339134
1761299164300515300,3.606515380859375,-0.0312814898788929,0.04405577853322029,0.05704392492771149
1761299164320638500,3.626638427734375,-0.04317236319184303,0.026874633505940437,0.07688858360052109
1761299164340761300,3.64676123046875,-0.053411684930324554,0.06758823990821838,0.07553649693727493
1761299164360884500,3.666884521484375,-0.06045162305235863,0.052884943783283234,0.055856794118881226
1761299164381007400,3.68700732421875,-0.07587414979934692,0.017864782363176346,0.029605578631162643
1761299164401131300,3.70713134765625,-0.09187933802604675,0.007370252162218094,-0.01825905777513981
1761299164421254400,3.72725439453125,-0.10330858081579208,0.011926213279366493,-0.0467350110411644
1761299164441377300,3.747377197265625,-0.09619062393903732,-0.06714247912168503,-0.059637077152729034
1761299164461500400,3.76750048828125,-0.06657396256923676,-0.09976211190223694,-0.06141987442970276
1761299164481623300,3.787623291015625,-0.0539800263941288,-0.04250088334083557,-0.0451817624270916
1761299164501746400,3.807746337890625,-0.05075644701719284,-0.027230938896536827,-0.026375355198979378
1761299164521869300,3.827869384765625,-0.08758014440536499,-0.036531899124383926,0.013484912924468517
1761299164541993500,3.847993408203125,-0.18602855503559113,0.006992700509727001,0.04210472106933594
1761299164562116400,3.868116455078125,-0.2612714171409607,0.028211684897542,0.010468211024999619
1761299164582239500,3.888239501953125,-0.2724965810775757,0.02671012468636036,-0.018567314371466637
1761299164602362400,3.9083623046875,-0.20121321082115173,-0.006241742521524429,0.0188713651150465
1761299164622485500,3.928485595703125,-0.12112750113010406,-0.021007858216762543,0.08290190994739532
1761299164642608400,3.9486083984375,-0.1133919358253479,0.021038316190242767,0.07400225102901459
1761299164662732300,3.968732177734375,-0.13100142776966095,0.047929078340530396,-0.001967197749763727
1761299164682855400,3.98885546875,-0.14815427362918854,0.0371926985681057,-0.06675440073013306
1761299164702978300,4.008978271484375,-0.1330001801252365,-0.0030374513007700443,-0.06128886342048645
1761299164723101400,4.029101318359375,-0.08796697854995728,-0.06747114658355713,-0.022224469110369682
1761299164743224300,4.049224365234375,-0.04733741655945778,-0.07947149872779846,-0.010044723749160767
1761299164763347500,4.069347412109375,-0.036015674471855164,-0.07156982272863388,-0.06072663515806198
1761299164783471400,4.089471435546875,-0.034452132880687714,-0.05292130261659622,-0.147219717502594
1761299164803594200,4.10959423828125,-0.03134354203939438,-0.08438289165496826,-0.16969947516918182
1761299164823717400,4.12971728515625,-0.03174390271306038,-0.13944153487682343,-0.1463930457830429
1761299164843840300,4.14984033203125,-0.005619443953037262,-0.1210981234908104,-0.11986447125673294
1761299164863963400,4.16996337890625,-0.008719642646610737,-0.0863635316491127,-0.11176230758428574
1761299164884086300,4.190086181640625,-0.029411405324935913,-0.09435167908668518,-0.09507825970649719
1761299164904209400,4.21020947265625,-0.00986541248857975,-0.08401830494403839,-0.0352788120508194
1761299164924333300,4.230333251953125,0.0006250714650377631,-0.049336325377225876,0.02568967454135418
1761299164944456400,4.25045654296875,-0.017413737252354622,-0.01686219498515129,0.062498997896909714
1761299164964579300,4.270579345703125,-0.06111394986510277,0.058229655027389526,0.10105718672275543
1761299164984702500,4.290702392578125,-0.12673154473304749,0.13698264956474304,0.11306305974721909
1761299165004825300,4.310825439453125,-0.16106276214122772,0.20560649037361145,0.054877907037734985
1761299165024948500,4.330948486328125,-0.14239893853664398,0.18177524209022522,-0.0026921378448605537
1761299165045071400,4.3510712890625,-0.101101815700531,0.08849743753671646,0.00827846024185419
1761299165065195300,4.3711953125,-0.08120720833539963,0.03444991633296013,0.033239737153053284
1761299165085319200,4.391319091796875,-0.07149083912372589,0.003157956525683403,-0.023286426439881325
1761299165105442300,4.4114423828125,-0.05982179939746857,-0.023235592991113663,-0.08193337917327881
1761299165125565200,4.431565185546875,-0.06499917060136795,-0.06758260726928711,-0.0933418869972229
1761299165145688300,4.451688232421875,-0.04721498116850853,-0.1008596122264862,-0.08440840989351273
1761299165165811200,4.471811279296875,-0.03959459438920021,-0.1323944330215454,-0.048455119132995605
1761299165185934300,4.491934326171875,-0.04370066896080971,-0.14710009098052979,0.0048848302103579044
1761299165206057200,4.51205712890625,-0.03017551824450493,-0.08026787638664246,0.049593281000852585
1761299165226181400,4.532181396484375,-0.007810897193849087,0.09517001360654831,0.0491541363298893
1761299165246304300,4.55230419921875,0.0022800425067543983,0.19710028171539307,0.011232559569180012
1761299165266427400,4.572427490234375,0.003870970569550991,0.17320097982883453,-0.003372953040525317
1761299165286550300,4.59255029296875,-0.04131852090358734,0.05238312482833862,0.007781769149005413
1761299165306673400,4.61267333984375,-0.07827667891979218,-0.08049739897251129,0.015402550809085369
1761299165326796300,4.63279638671875,-0.08108259737491608,-0.16106222569942474,-0.01575704663991928
1761299165346920200,4.652920166015625,-0.028511330485343933,-0.1639467179775238,-0.021112948656082153
1761299165367043300,4.673043212890625,0.0176943838596344,-0.20987772941589355,0.03780630603432655
1761299165387166200,4.693166259765625,0.08658131957054138,-0.20303985476493835,0.05228812247514725
1761299165407289300,4.713289306640625,0.1130702793598175,-0.09798969328403473,-0.010960124433040619
1761299165427412200,4.733412109375,0.14028996229171753,-0.03881973773241043,-0.06552918255329132
1761299165447535400,4.753535400390625,0.15815149247646332,0.10857297480106354,0.03262926638126373
1761299165467658200,4.773658203125,0.15769746899604797,0.1853562742471695,0.13561053574085236
1761299165487782100,4.7937822265625,0.23527169227600098,0.1769619584083557,0.17477381229400635
1761299165507905300,4.8139052734375,0.27396711707115173,0.1607472449541092,0.21558989584445953
1761299165528028200,4.834028076171875,0.2444814294576645,0.13343818485736847,0.27098140120506287
1761299165548151300,4.8541513671875,0.17371010780334473,0.10858375579118729,0.27587005496025085
1761299165568274200,4.874274169921875,0.1264062225818634,0.06271329522132874,0.19797170162200928
1761299165588397300,4.894397216796875,0.09022577106952667,0.017594607546925545,0.15330974757671356
1761299165608520200,4.914520263671875,0.00556954788044095,-0.01365283690392971,0.12912701070308685
1761299165628644400,4.934644287109375,-0.08331525325775146,0.003329882398247719,0.08674478530883789
1761299165648767200,4.954767333984375,-0.12286853790283203,0.049741387367248535,0.04737093672156334
1761299165668890000,4.97489013671875,-0.10786265134811401,0.09144844859838486,0.03509166091680527
1761299165689013200,4.99501318359375,-0.06315666437149048,0.0857297033071518,0.04667488858103752
1761299165709136100,5.01513623046875,-0.051921673119068146,0.02678392268717289,0.06486313790082932
1761299165729259300,5.03525927734375,-0.09971051663160324,-0.00009265821427106857,0.04647255316376686
1761299165749383200,5.055383056640625,-0.1428246945142746,-0.03246098384261131,0.008838356472551823
1761299165769506300,5.07550634765625,-0.16597415506839752,-0.02492848038673401,-0.0042175049893558025
1761299165789629200,5.095629150390625,-0.1690095067024231,-0.0076959384605288506,0.0017281490145251155
1761299165809752300,5.11575244140625,-0.15459388494491577,-0.025657594203948975,-0.027929071336984634
1761299165829875200,5.135875244140625,-0.13845393061637878,-0.07410631328821182,-0.05024871975183487
1761299165849998300,5.155998291015625,-0.11667438596487045,-0.08097600936889648,-0.021804608404636383
1761299165870122200,5.176122314453125,-0.07511026412248611,-0.03899678587913513,0.025043893605470657
1761299165890245000,5.1962451171875,-0.04993545264005661,0.015238715335726738,0.025693174451589584
1761299165910368300,5.2163681640625,-0.05188465490937233,0.044699810445308685,-0.014213834889233112
1761299165930491100,5.2364912109375,-0.1032550111413002,-0.04131824150681496,-0.025943636894226074
1761299165950614300,5.2566142578125,-0.15148384869098663,-0.1593189239501953,0.006009482778608799
1761299165970737200,5.276737060546875,-0.13985413312911987,-0.1989801675081253,0.025242915377020836
1761299165990860300,5.2968603515625,-0.08242392539978027,-0.12684504687786102,-0.045612238347530365
1761299166010984200,5.316984130859375,-0.02366526611149311,-0.024673940613865852,-0.15691319108009338
1761299166031107000,5.337107177734375,0.05988573282957077,0.04522719606757164,-0.12765486538410187
1761299166051230200,5.357230224609375,0.10613983869552612,0.023414330556988716,0.028885221108794212
1761299166071352800,5.377352783203125,0.14163106679916382,0.04607858508825302,0.19189715385437012
1761299166091476000,5.39747607421875,0.1491033434867859,-0.041672736406326294,0.1988978534936905
1761299166111598800,5.417598876953125,0.013906661421060562,-0.07220864295959473,0.07191348075866699
1761299166131722000,5.437721923828125,-0.03923118859529495,0.03248181194067001,-0.001403470290824771
1761299166151846000,5.457845947265625,-0.05369288846850395,0.05330107361078262,0.0009066831553354859
1761299166171969000,5.477968994140625,-0.03169369325041771,-0.010937375947833061,0.046637777239084244
1761299166192092000,5.498091796875,0.008459532633423805,-0.032347120344638824,0.10927356779575348
1761299166212215000,5.518215087890625,0.036468327045440674,-0.024099037051200867,0.057400383055210114
1761299166232338000,5.538337890625,0.018775464966893196,-0.004500223323702812,-0.09818077832460403
1761299166252461000,5.5584609375,-0.013065097853541374,-0.025680841878056526,-0.1777227371931076
1761299166272585000,5.5785849609375,0.015313826501369476,-0.03323468565940857,-0.11949754506349564
1761299166292707800,5.598707763671875,0.039136916399002075,-0.0345238521695137,-0.043779559433460236
1761299166312831000,5.6188310546875,0.07537999004125595,-0.09619805216789246,-0.031242022290825844
1761299166332953900,5.638953857421875,0.10188381373882294,-0.1009453535079956,-0.049635786563158035
1761299166353077000,5.659076904296875,0.06830891966819763,-0.08387036621570587,-0.12943294644355774
1761299166373200000,5.679199951171875,0.03635728359222412,-0.06984339654445648,-0.16660141944885254
1761299166393323000,5.699322998046875,0.05233072489500046,-0.06392878293991089,-0.06701149046421051
1761299166413447000,5.719447021484375,0.12275023013353348,-0.05457869917154312,0.07596338540315628
1761299166433569800,5.73956982421875,0.16686023771762848,0.006384261883795261,0.1364593505859375
1761299166453693000,5.75969287109375,0.15114949643611908,0.05981559306383133,0.04878547042608261
1761299166473815800,5.77981591796875,0.09866933524608612,0.0894000232219696,-0.0774802565574646
1761299166493939000,5.79993896484375,0.0728633776307106,0.07163538038730621,-0.1263660341501236
1761299166514061800,5.820061767578125,0.0669114887714386,0.0501132532954216,-0.09659672528505325
1761299166534186000,5.84018603515625,0.1277601271867752,0.051027510315179825,-0.05186399817466736
1761299166554308900,5.860308837890625,0.16516175866127014,0.030561428517103195,-0.045305799692869186
1761299166574432000,5.880431884765625,0.16122877597808838,0.0017695548012852669,-0.056981198489665985
1761299166594555000,5.900554931640625,0.14321531355381012,0.0013837981969118118,-0.07298620790243149
1761299166614678000,5.920677978515625,0.16167272627353668,0.001414555124938488,-0.07734853029251099
1761299166634801000,5.94080078125,0.18957823514938354,-0.01416455116122961,-0.05761818587779999
1761299166654924000,5.960924072265625,0.18478359282016754,-0.01303901243954897,-0.007139497436583042
1761299166675048000,5.9810478515625,0.1562105268239975,-0.008955535478889942,0.05368766188621521
1761299166695170800,6.0011708984375,0.12940578162670135,0.021176638081669807,0.1063234955072403
1761299166715294000,6.0212939453125,0.11010517179965973,0.08380994945764542,0.10103913396596909
1761299166735416800,6.041416748046875,0.07844038307666779,0.16272184252738953,0.05053628981113434
1761299166755540000,6.0615400390625,0.042015016078948975,0.16784967482089996,0.026761552318930626
1761299166775662800,6.081662841796875,0.02975495345890522,0.13287918269634247,0.043551310896873474
1761299166795786000,6.101785888671875,-0.022888384759426117,0.14114868640899658,0.0583265945315361
1761299166815910000,6.121909912109375,-0.027747374027967453,0.09254781156778336,-0.03306925669312477
1761299166836032800,6.14203271484375,0.06811025738716125,0.021668795496225357,-0.14330138266086578
1761299166856156000,6.162156005859375,0.14708682894706726,-0.05827983468770981,-0.12400758266448975
1761299166876278800,6.18227880859375,0.12291007488965988,-0.11172793060541153,-0.0705501064658165
1761299166896402000,6.20240185546875,0.06862704455852509,-0.11400970071554184,-0.10952013731002808
1761299166916524800,6.22252490234375,0.031558677554130554,-0.06867137551307678,-0.15993903577327728
1761299166936649000,6.24264892578125,0.049056436866521835,-0.02545807883143425,-0.11433440446853638
1761299166956771800,6.262771728515625,0.08489370346069336,-0.006360725965350866,-0.027717018499970436
1761299166976895000,6.28289501953125,0.07554033398628235,0.017165416851639748,0.01810017041862011
1761299166997017900,6.303017822265625,0.02698729746043682,0.0035556768998503685,0.000848654075525701
1761299167017141000,6.32314111328125,0.004447379615157843,0.04500160366296768,0.018182875588536263
1761299167037264000,6.343263916015625,0.004529937636107206,0.09020289778709412,0.0656912699341774
1761299167057386800,6.36338671875,0.033482179045677185,0.06856225430965424,0.059778742492198944
1761299167077511000,6.383510986328125,0.04629196971654892,-0.0032165460288524628,0.023038331419229507
1761299167097633800,6.4036337890625,0.02815045230090618,-0.07882876694202423,0.005769043229520321
1761299167117757000,6.4237568359375,-0.0027326035778969526,-0.1138739287853241,-0.030428273603320122
1761299167137879800,6.4438798828125,0.01259179599583149,-0.14130623638629913,-0.0915958434343338
1761299167158003000,6.4640029296875,0.0578630231320858,-0.11464487761259079,-0.12528792023658752
1761299167178125800,6.484125732421875,0.10738887637853622,0.0036738505586981773,-0.09469442814588547
1761299167198249700,6.504249755859375,0.10258711874485016,0.02342042699456215,-0.02572840079665184
1761299167218372900,6.524372802734375,0.07121570408344269,-0.028136594220995903,0.05714354291558266
1761299167238495700,6.544495849609375,0.03191637992858887,0.02393537200987339,0.09387876838445663
1761299167258619000,6.564618896484375,0.026824235916137695,0.09671840816736221,0.0676330178976059
1761299167278741800,6.58474169921875,0.06479650735855103,0.13228973746299744,0.04995989799499512
1761299167298865000,6.604864990234375,0.06971384584903717,0.1199728399515152,0.10527917742729187
1761299167318987800,6.62498779296875,0.03343483805656433,0.06666743010282516,0.1464659869670868
1761299167339111700,6.645111572265625,0.00048273173160851,-0.00253822049126029,0.16691429913043976
1761299167359234800,6.66523486328125,-0.033353209495544434,0.13469506800174713,0.14047805964946747
1761299167379357700,6.685357666015625,-0.006213978864252567,0.20117679238319397,0.039764855057001114
1761299167399480800,6.705480712890625,-0.00437771575525403,0.12300790846347809,-0.03451232984662056
1761299167419603700,6.725603759765625,-0.0009737771470099688,0.06677384674549103,-0.013765414245426655
1761299167439726800,6.745726806640625,0.022651098668575287,-0.07378049939870834,0.03815402835607529
1761299167459850800,6.765850830078125,0.026777783408761024,-0.13238754868507385,0.07553577423095703
1761299167479974000,6.785973876953125,0.018003350123763084,-0.08393673598766327,0.06289426237344742
1761299167500096800,6.8060966796875,0.013397199101746082,0.023591117933392525,0.002382606966421008
1761299167520220000,6.826219970703125,0.06290503591299057,0.102134108543396,0.0014358337502926588
1761299167540342800,6.8463427734375,0.048620037734508514,0.13688597083091736,0.10141678899526596
1761299167560466000,6.8664658203125,-0.004012048244476318,0.07661957293748856,0.15546062588691711
1761299167580588800,6.8865888671875,0.0002524559386074543,0.07453358173370361,0.08889295905828476
1761299167600712700,6.906712646484375,-0.036211200058460236,0.17442497611045837,0.00031286198645830154
1761299167620835800,6.9268359375,-0.057543959468603134,0.20904889702796936,-0.028131745755672455
1761299167640958700,6.946958740234375,-0.03425407037138939,0.16352370381355286,-0.006807576399296522
1761299167661081900,6.967081787109375,-0.04911945387721062,0.1630593091249466,0.029865125194191933
1761299167681204700,6.987204833984375,-0.02352122962474823,0.12217958271503448,0.008288892917335033
1761299167701328000,7.007327880859375,0.01003143098205328,-0.016030333936214447,-0.0639725774526596
1761299167721450800,7.02745068359375,0.013014541007578373,-0.08809695392847061,-0.06988475471735
1761299167741574700,7.04757470703125,0.015000155195593834,-0.07902314513921738,-0.07312972843647003
1761299167761697800,7.06769775390625,0.0016777050914242864,-0.063226118683815,-0.07621556520462036
1761299167781820700,7.087820556640625,-0.037775035947561264,-0.08379875123500824,-0.036256544291973114
1761299167801943800,7.10794384765625,-0.0550137422978878,-0.02652161568403244,0.03256526589393616
1761299167822066700,7.128066650390625,-0.03806509077548981,0.06425424665212631,0.020654600113630295
1761299167842189800,7.14818994140625,-0.030872270464897156,0.09499210864305496,-0.02445419691503048
1761299167862313700,7.168313720703125,-0.018447929993271828,0.07501295208930969,-0.005487475078552961
1761299167882436900,7.188436767578125,0.009850868955254555,0.06044500321149826,0.04956543445587158
1761299167902559700,7.208559814453125,0.005947703495621681,0.09697651863098145,0.0786454826593399
1761299167922683000,7.228682861328125,-0.005504559259861708,0.10214467346668243,0.07669097185134888
1761299167942805800,7.2488056640625,-0.011830506846308708,0.08330630511045456,0.05624379962682724
1761299167962929000,7.268928955078125,-0.0011423267424106598,0.11618974804878235,-0.0156807079911232
1761299167983051800,7.2890517578125,0.01857720874249935,0.10532234609127045,-0.08765412122011185
1761299168003175700,7.30917578125,0.03328978270292282,0.010066375136375427,-0.07406871765851974
1761299168023298800,7.329298828125,0.03975239768624306,-0.035817719995975494,0.011440228670835495
1761299168043421700,7.349421630859375,0.023422693833708763,0.012433167546987534,0.012038108892738819
1761299168063544800,7.369544921875,0.03315840661525726,0.06942616403102875,-0.061585087329149246
1761299168083668500,7.38966845703125,0.04040827602148056,0.07704436779022217,-0.08516836166381836
1761299168103791400,7.409791259765625,0.01470451895147562,0.04805688560009003,-0.0300168227404356
1761299168123915500,7.42991552734375,0.00304061989299953,0.09314493834972382,-0.040301043540239334
1761299168144038400,7.450038330078125,-0.007939184084534645,0.18808020651340485,-0.061759233474731445
1761299168164161500,7.47016162109375,-0.041487421840429306,0.16069889068603516,-0.08776658773422241
1761299168184284400,7.490284423828125,-0.05462691932916641,0.1307593584060669,-0.18152892589569092
1761299168204407600,7.510407470703125,-0.02691461518406868,0.13272882997989655,-0.2615117132663727
1761299168224530400,7.530530517578125,-0.0165708065032959,0.1892668455839157,-0.24453414976596832
1761299168244653600,7.550653564453125,-0.10961475968360901,0.33506783843040466,0.09093034267425537
1761299168264777500,7.570777587890625,-0.03388865664601326,0.026745237410068512,-0.01573294959962368
1761299168284900400,7.590900390625,0.06869111210107803,0.09053432941436768,-0.2827664911746979
1761299168305023500,7.6110234375,0.05773986130952835,0.10035981237888336,-0.4771001636981964
1761299168325146400,7.631146484375,-0.03164501115679741,-0.04291800409555435,-0.3334236741065979
1761299168345269500,7.65126953125,-0.0003750466275960207,-0.34900733828544617,-0.05611271411180496
