time,seconds_elapsed,z,y,x
1761397129656811000,0.24981103515625,-1.0188665390014648,-0.3370695114135742,0.5162510871887207
1761397129676188000,0.26918798828125,-0.7282133102416992,-0.09183168411254883,0.6989939212799072
1761397129695564500,0.288564453125,-0.15261125564575195,0.045786380767822266,1.014704704284668
1761397129714941400,0.30794140625,0.22142934799194336,0.12773847579956055,0.7543575763702393
1761397129734318300,0.327318359375,0.4394564628601074,0.24753665924072266,0.6909970045089722
1761397129753695200,0.3466953125,1.0108447074890137,0.2562832832336426,0.7649368047714233
1761397129773072000,0.36607177734375,1.6682405471801758,0.18790292739868164,0.29998779296875
1761397129792448800,0.38544873046875,1.763932228088379,0.18953990936279297,-0.05260193347930908
1761397129811825700,0.40482568359375,1.509437084197998,0.34130859375,0.22989928722381592
1761397129831202300,0.424202392578125,1.1831536293029785,0.4671473503112793,0.6697502136230469
1761397129850579200,0.4435791015625,0.7116727828979492,0.484220027923584,0.6198992729187012
1761397129869956000,0.4629560546875,-0.16972970962524414,0.44130516052246094,0.6054997444152832
1761397129889332700,0.482332763671875,-0.2842526435852051,0.4890270233154297,0.5478414297103882
1761397129908709600,0.501709716796875,-0.16938304901123047,0.5298070907592773,0.4313077926635742
1761397129928086500,0.52108642578125,-0.5779194831848145,0.5238504409790039,0.09517514705657959
1761397129947463200,0.540463134765625,-0.8459048271179199,0.2683529853820801,0.11661827564239502
1761397129966840000,0.559840087890625,0.1182551383972168,-0.20467853546142578,0.6410902738571167
1761397129986217000,0.579217041015625,1.3150701522827148,-0.6878619194030762,0.7106262445449829
1761397130005593600,0.598593505859375,1.8971128463745117,-0.8521513938903809,0.3034786581993103
1761397130024970500,0.617970458984375,1.8761582374572754,-0.9360933303833008,0.4260318875312805
1761397130044347400,0.637347412109375,1.4834351539611816,-0.8616743087768555,0.6881752610206604
1761397130063724300,0.656724365234375,0.6403732299804688,-0.8933038711547852,0.9426817893981934
1761397130083087600,0.676087646484375,-1.0670056343078613,-0.9417376518249512,0.7066065073013306
1761397130102477800,0.695477783203125,-2.604630947113037,-0.8039841651916504,-0.045559704303741455
1761397130121854700,0.714854736328125,-2.6452364921569824,-0.8265600204467773,-0.11353832483291626
1761397130141231400,0.7342314453125,-2.098801612854004,-0.9660959243774414,0.32359522581100464
1761397130160608300,0.753608154296875,-1.5439772605895996,-1.220369815826416,0.6035598516464233
1761397130179985200,0.772985107421875,-0.9234094619750977,-1.3257393836975098,0.8933236002922058
1761397130199348500,0.792348388671875,0.6886591911315918,-1.8441047668457031,0.9846789240837097
1761397130218738700,0.81173876953125,1.7921991348266602,-2.210156202316284,0.7027217149734497
1761397130238115600,0.831115478515625,1.0944862365722656,-2.197822093963623,0.4049125909805298
1761397130257479000,0.85047900390625,-1.0045695304870605,-2.087721824645996,0.1960802525281906
1761397130276869000,0.869869140625,-2.8854641914367676,-1.7499580383300781,0.09553508460521698
1761397130296246000,0.88924609375,-3.6066088676452637,-1.457960605621338,0.5729928016662598
1761397130315622700,0.90862255859375,-3.235219955444336,-1.080747127532959,0.6126810908317566
1761397130334999600,0.92799951171875,-1.5590877532958984,-0.8350915908813477,0.9496621489524841
1761397130354376400,0.94737646484375,-0.30255126953125,-0.47627782821655273,1.6919426918029785
1761397130373739800,0.96673974609375,0.3475937843322754,-0.3723745346069336,1.760313630104065
1761397130393130000,0.9861298828125,1.556565284729004,0.33441162109375,0.9201326370239258
1761397130412507000,1.0055068359375,2.7896175384521484,0.4868292808532715,1.6234946250915527
1761397130431883800,1.0248837890625,2.977902889251709,0.6011300086975098,1.9751076698303223
1761397130451260400,1.044260498046875,4.214334011077881,1.6842446327209473,1.9855108261108398
1761397130470637300,1.06363720703125,7.698491096496582,2.6173391342163086,2.8170125484466553
1761397130490000600,1.083000732421875,11.728548049926758,2.7437849044799805,2.609713077545166
1761397130509390800,1.102390869140625,13.55986213684082,2.2841176986694336,3.07411789894104
1761397130528767700,1.121767822265625,11.289886474609375,1.4985251426696777,5.0752716064453125
1761397130548131000,1.141131103515625,6.155806064605713,0.7475996017456055,4.6627912521362305
1761397130567521300,1.160521240234375,-0.49324941635131836,0.7431445121765137,2.921783447265625
1761397130586898200,1.179898193359375,-3.5925440788269043,0.2556924819946289,2.669076681137085
1761397130606261500,1.199261474609375,-0.4256319999694824,-0.6632146835327148,1.1783056259155273
1761397130625651700,1.218651611328125,0.5325479507446289,-1.2550153732299805,0.754346489906311
1761397130645028600,1.238028564453125,1.0234861373901367,-0.9359273910522461,0.08985483646392822
1761397130664392000,1.257391845703125,-0.8973550796508789,-1.2007331848144531,-0.6963300704956055
1761397130683782400,1.276782470703125,-5.710309028625488,-2.422530174255371,-0.09299156069755554
1761397130703159000,1.296158935546875,-9.832143783569336,-2.4134724140167236,1.1476701498031616
1761397130722522400,1.3155224609375,-10.075809478759766,-2.5103280544281006,0.5431481599807739
1761397130741912800,1.334912841796875,-9.33773422241211,-2.602281093597412,-0.01391458511352539
1761397130761289500,1.35428955078125,-6.996825218200684,-2.268094301223755,-1.3557263612747192
1761397130780652800,1.37365283203125,-4.986311912536621,-1.1799826622009277,-2.748587131500244
1761397130800043300,1.393043212890625,-1.9541940689086914,-0.7666633129119873,-4.039935111999512
1761397130819420000,1.412419921875,-0.4510526657104492,-1.9403724670410156,-3.1238808631896973
1761397130838783200,1.431783203125,0.020954132080078125,-0.5763843059539795,-1.2988171577453613
1761397130858173700,1.451173583984375,1.9616260528564453,0.8039050102233887,0.38498353958129883
1761397130877550300,1.47055029296875,4.796874046325684,3.2472424507141113,-2.6499667167663574
1761397130896913700,1.48991357421875,5.138210296630859,6.704050540924072,-4.755343437194824
1761397130916304100,1.50930419921875,7.914370536804199,3.6539077758789062,6.7329206466674805
1761397130935680800,1.5286806640625,15.538662910461426,-1.9232814311981201,13.890986442565918
1761397130955044400,1.54804443359375,21.557239532470703,-4.3594279289245605,7.395379066467285
1761397130974434600,1.5674345703125,15.305371284484863,-1.2621521949768066,-1.2228014469146729
1761397130993811200,1.586811279296875,3.933757781982422,1.101522445678711,2.445791721343994
1761397131013174500,1.606174560546875,-3.9000372886657715,3.2328171730041504,6.556949615478516
1761397131032565000,1.62556494140625,-9.948161125183105,2.2952017784118652,5.716996192932129
1761397131051942000,1.64494189453125,-13.282218933105469,-0.273317813873291,2.703352689743042
1761397131071305200,1.66430517578125,-12.227845191955566,-2.1559765338897705,0.08591079711914062
1761397131090695400,1.6836953125,-8.442564964294434,-3.2543535232543945,-1.877405047416687
1761397131110072300,1.703072265625,-5.217134475708008,-3.8364248275756836,-2.4372024536132812
1761397131129435600,1.722435546875,-6.17683219909668,-4.117550373077393,-2.52213978767395
1761397131148825900,1.741825927734375,-8.93418025970459,-3.774610757827759,-2.404752731323242
1761397131168202800,1.76120263671875,-10.908805847167969,-3.4340641498565674,-0.6498895287513733
1761397131187566000,1.780566162109375,-11.032768249511719,-3.008920431137085,0.6645761132240295
1761397131206956300,1.799956298828125,-8.43830680847168,-2.4173953533172607,1.236444354057312
1761397131226333200,1.819333251953125,-4.102069854736328,-1.6917130947113037,1.2294341325759888
1761397131245696500,1.838696533203125,3.615860939025879,-0.026450634002685547,0.25412797927856445
1761397131265086700,1.858086669921875,13.774136543273926,4.068048477172852,-0.7646439671516418
1761397131284463600,1.877463623046875,17.532180786132812,7.141213893890381,0.23643803596496582
1761397131303827000,1.896826904296875,18.34424591064453,7.13797664642334,1.047053337097168
1761397131323217200,1.916217041015625,21.365943908691406,3.830174446105957,4.808259963989258
1761397131342594000,1.935593994140625,21.366985321044922,0.8310942649841309,6.227973937988281
1761397131361957400,1.954957275390625,13.027105331420898,0.6281061172485352,3.0386199951171875
1761397131381347600,1.97434765625,3.0308074951171875,1.1255731582641602,1.097721815109253
1761397131400724500,1.993724365234375,-4.3136444091796875,1.0260167121887207,-0.040952056646347046
1761397131420087800,2.013087890625,-7.884146690368652,-0.07416486740112305,-2.015239953994751
1761397131439478000,2.03247802734375,-10.262496948242188,-2.2090601921081543,-0.5489811897277832
1761397131458855000,2.05185498046875,-10.466293334960938,-5.039391040802002,3.6081125736236572
1761397131478218200,2.07121826171875,-9.476744651794434,-7.6131205558776855,4.0724921226501465
1761397131497608400,2.0906083984375,-8.312881469726562,-8.410135269165039,1.3011506795883179
1761397131516985300,2.1099853515625,-8.273838996887207,-8.640305519104004,0.1371617466211319
1761397131536348700,2.1293486328125,-9.768180847167969,-7.662123680114746,-0.42079347372055054
1761397131555739100,2.1487392578125,-10.690102577209473,-6.6570963859558105,0.4859578013420105
1761397131575115800,2.16811572265625,-9.72255802154541,-5.4843902587890625,0.5423988103866577
1761397131594479000,2.18747900390625,-7.924117088317871,-4.079158782958984,0.3245631754398346
1761397131613869300,2.206869384765625,-5.4026265144348145,-2.664367437362671,0.7025136947631836
1761397131633246200,2.22624609375,1.3268041610717773,-1.2494091987609863,1.5825592279434204
1761397131652609500,2.245609619140625,8.416932106018066,2.361344337463379,-2.2632405757904053
1761397131672000000,2.265,7.495128631591797,6.726998329162598,-4.041293144226074
1761397131691376600,2.284376708984375,8.172709465026855,7.2586212158203125,0.447292298078537
1761397131710740000,2.303739990234375,20.664196014404297,4.494490146636963,3.753053903579712
1761397131730130400,2.32313037109375,29.13884735107422,1.60689115524292,2.0659890174865723
1761397131749507000,2.342507080078125,26.625167846679688,1.8837823867797852,-1.8964495658874512
1761397131768870400,2.361870361328125,12.289825439453125,2.597003936767578,0.22621293365955353
1761397131788260900,2.3812607421875,-3.1480112075805664,3.8009047508239746,2.6146466732025146
1761397131807637500,2.400637451171875,-14.625103950500488,3.597480297088623,1.0184412002563477
1761397131827000800,2.420000732421875,-16.032806396484375,0.898155689239502,0.2818922996520996
1761397131846391300,2.439391357421875,-10.76528549194336,-1.5648818016052246,-0.691728949546814
1761397131865768000,2.458767822265625,-5.027259826660156,-3.8527181148529053,-0.8712571263313293
1761397131885131300,2.47813134765625,-4.028120517730713,-5.138237476348877,-2.434896230697632
1761397131904521700,2.497521728515625,-6.822048664093018,-5.441887855529785,-2.5904595851898193
1761397131923898600,2.516898681640625,-8.859989166259766,-4.926911354064941,-1.1760039329528809
1761397131943262000,2.536261962890625,-9.459461212158203,-4.132959365844727,0.7850308418273926
1761397131962652200,2.555652099609375,-8.873533248901367,-3.437540054321289,2.1522209644317627
1761397131982028800,2.57502880859375,-7.418990612030029,-3.1266746520996094,1.7024480104446411
1761397132001392000,2.59439208984375,-4.676016330718994,-2.8587803840637207,0.7457824349403381
1761397132020782600,2.613782470703125,-2.737830638885498,-2.5530152320861816,0.9706863164901733
1761397132040159500,2.633159423828125,-0.5930619239807129,-1.5440394878387451,1.900388240814209
1761397132059522800,2.652522705078125,2.879380226135254,0.09025955200195312,2.6393041610717773
1761397132078913000,2.6719130859375,6.239982604980469,4.7199249267578125,0.3006289005279541
1761397132098290000,2.6912900390625,7.305707931518555,7.061447620391846,1.4334365129470825
1761397132117653200,2.7106533203125,16.176021575927734,6.34069299697876,5.452300071716309
1761397132137043500,2.73004345703125,25.131729125976562,4.04771089553833,5.664713382720947
1761397132156420400,2.74942041015625,22.03863525390625,3.407870292663574,0.8905209898948669
1761397132175783700,2.76878369140625,11.082411766052246,3.7968711853027344,-0.17516019940376282
1761397132195174000,2.788173828125,1.121077060699463,2.754490852355957,2.6326546669006348
1761397132214550800,2.80755078125,-5.601487159729004,1.4623327255249023,0.8086521625518799
1761397132233914000,2.8269140625,-9.57774543762207,0.30370616912841797,-2.1587233543395996
1761397132253304300,2.84630419921875,-9.460657119750977,-1.4311671257019043,-2.2668817043304443
1761397132272681200,2.86568115234375,-6.338667392730713,-2.6186060905456543,-1.5427132844924927
1761397132292044500,2.88504443359375,-2.3871536254882812,-2.9112548828125,-0.9080294966697693
1761397132311434800,2.904434814453125,-4.2778167724609375,-3.206942558288574,0.8209313750267029
1761397132330811600,2.923811767578125,-7.862290859222412,-3.3935320377349854,2.6208674907684326
1761397132350175000,2.943175048828125,-10.421161651611328,-3.2653260231018066,2.5744781494140625
1761397132369565200,2.962565185546875,-12.094947814941406,-3.6077191829681396,1.2250428199768066
1761397132388942000,2.981942138671875,-12.084859848022461,-3.723240375518799,-0.23337282240390778
1761397132408305400,3.001305419921875,-10.57653522491455,-3.586381673812866,-1.727927803993225
1761397132427695600,3.020695556640625,-7.924391269683838,-3.2872471809387207,-1.893043041229248
1761397132447072500,3.040072509765625,-5.543936729431152,-2.837334156036377,-0.8157399296760559
1761397132466435800,3.059435791015625,-0.9566211700439453,-2.123392343521118,-0.7045937776565552
1761397132485826000,3.078825927734375,4.843611240386963,-0.2072739601135254,-1.0559762716293335
1761397132505203000,3.098202880859375,8.106208801269531,4.0614728927612305,-1.1925792694091797
1761397132524566300,3.117566162109375,8.156930923461914,6.535327434539795,0.8625531792640686
1761397132543956700,3.136956787109375,8.090408325195312,8.818172454833984,4.1626739501953125
1761397132563333400,3.15633349609375,16.018707275390625,2.103602409362793,9.360770225524902
1761397132582696700,3.17569677734375,19.475236892700195,1.1578264236450195,-2.515205144882202
1761397132602087000,3.1950869140625,11.832476615905762,2.5996570587158203,-7.990024566650391
1761397132621463800,3.2144638671875,3.7815208435058594,3.858242988586426,-2.316596031188965
1761397132640827100,3.2338271484375,-2.1372337341308594,3.26835298538208,3.598705768585205
1761397132660217600,3.253217529296875,-5.1525163650512695,1.5747456550598145,4.7802581787109375
1761397132679594200,3.27259423828125,-4.7848687171936035,-0.5292448997497559,4.277727127075195
1761397132698957600,3.29195751953125,-1.6956787109375,-2.157445192337036,2.340235471725464
1761397132718348000,3.31134814453125,-0.8632550239562988,-3.195955753326416,1.268378734588623
1761397132737724700,3.330724609375,-3.716494083404541,-3.7670888900756836,1.0905709266662598
1761397132757088000,3.350087890625,-8.347297668457031,-4.051565170288086,1.4214290380477905
1761397132776478500,3.369478515625,-11.579291343688965,-4.026632308959961,1.865575909614563
1761397132795855000,3.388855224609375,-10.824335098266602,-3.9581847190856934,0.9395596385002136
1761397132815218400,3.408218505859375,-8.219287872314453,-3.7099997997283936,-0.5312049984931946
1761397132834609000,3.42760888671875,-6.5377678871154785,-3.250561237335205,-0.9579023718833923
1761397132853985500,3.446985595703125,-4.776012897491455,-2.6147186756134033,-0.7041105628013611
1761397132873348900,3.466348876953125,-1.0559635162353516,-1.8682494163513184,-0.024349063634872437
1761397132892739300,3.4857392578125,1.8775997161865234,0.2571268081665039,0.20044955611228943
1761397132912116200,3.5051162109375,3.693889617919922,4.232480049133301,-2.5427188873291016
1761397132931479600,3.5244794921875,5.956066131591797,5.837223052978516,-1.965651035308838
1761397132950869800,3.543869873046875,10.048332214355469,4.080532550811768,5.3137311935424805
1761397132970246700,3.56324658203125,15.220532417297363,2.3735294342041016,6.2324042320251465
1761397132989609700,3.582609619140625,17.14009666442871,2.1760177612304688,-0.5153226852416992
1761397133009000200,3.602000244140625,14.126420021057129,3.5703043937683105,-3.233297109603882
1761397133028377000,3.621377197265625,7.971540451049805,3.55145263671875,-0.7696517109870911
1761397133047740400,3.640740478515625,-0.5423245429992676,2.3305163383483887,-0.6384743452072144
1761397133067130600,3.660130615234375,-5.878918647766113,0.8805785179138184,-1.6326192617416382
1761397133086507500,3.679507568359375,-7.721762180328369,-0.7292032241821289,-0.3574191927909851
1761397133105870800,3.698870849609375,-9.539443016052246,-2.1387200355529785,1.3767377138137817
1761397133125261000,3.718260986328125,-10.603137969970703,-3.1970293521881104,1.1241718530654907
1761397133144638000,3.737637939453125,-10.567049980163574,-4.386973857879639,-0.06675267219543457
1761397133164001300,3.757001220703125,-7.812129497528076,-4.914661884307861,-1.4792029857635498
1761397133183391500,3.7763916015625,-4.56792688369751,-4.175201416015625,-2.300692081451416
1761397133202768400,3.795768310546875,-2.3666248321533203,-3.337437391281128,-0.9281375408172607
1761397133222131700,3.815131591796875,-4.106388568878174,-2.7089955806732178,0.9085129499435425
1761397133241522000,3.83452197265625,-6.155519962310791,-1.9728028774261475,1.1864806413650513
1761397133260898800,3.85389892578125,-7.39553689956665,-1.043898105621338,-0.6282332539558411
1761397133280262100,3.87326220703125,-3.877936840057373,-0.3962991237640381,-2.346827507019043
1761397133299652400,3.89265234375,0.7974367141723633,0.6249661445617676,-1.5212182998657227
1761397133319029200,3.912029296875,0.5544071197509766,3.1802821159362793,-0.42898184061050415
1761397133338392600,3.931392578125,10.475994110107422,4.78380823135376,2.888477325439453
1761397133357782800,3.95078271484375,23.873262405395508,1.024688720703125,12.08508014678955
1761397133377159700,3.97015966796875,21.88986587524414,-0.08925771713256836,5.561988353729248
1761397133396523000,3.98952294921875,15.782002449035645,2.188699722290039,0.4522686004638672
1761397133415913200,4.008913330078125,10.761673927307129,3.5891194343566895,4.072663307189941
1761397133435290000,4.0282900390625,1.8926019668579102,4.010750770568848,2.629662036895752
1761397133454653400,4.0476533203125,-4.813199996948242,3.377908706665039,0.9405652284622192
1761397133474044000,4.0670439453125,-4.902182102203369,2.38555908203125,1.1739397048950195
1761397133493420500,4.086420654296875,-5.02524471282959,0.8218507766723633,-0.19418418407440186
1761397133512784000,4.105783935546875,-6.294195175170898,-0.5205559730529785,-1.461755633354187
1761397133532174300,4.12517431640625,-6.546173095703125,-1.9449677467346191,-1.937582015991211
1761397133551551000,4.144551025390625,-7.280294895172119,-3.246246576309204,-2.3554654121398926
1761397133570914300,4.163914306640625,-8.71943473815918,-3.7180910110473633,-2.636725664138794
1761397133590304800,4.1833046875,-10.033539772033691,-3.893303632736206,-2.1322851181030273
1761397133609681400,4.202681396484375,-10.263362884521484,-3.693032741546631,-1.193204402923584
1761397133629058300,4.222058349609375,-9.305194854736328,-3.144603967666626,-0.4948003888130188
1761397133648435200,4.241435302734375,-6.889194488525391,-2.841705799102783,-0.03444695472717285
1761397133667811800,4.260811767578125,-1.3576459884643555,-2.488269805908203,1.2107369899749756
1761397133687175200,4.280175048828125,2.848111152648926,-1.2912683486938477,0.8372126817703247
1761397133706565600,4.299565673828125,5.205466270446777,1.1623806953430176,-0.43478161096572876
1761397133725942500,4.318942626953125,8.259206771850586,4.252292633056641,-1.8271301984786987
1761397133745305900,4.338305908203125,14.179913520812988,3.7213187217712402,1.1241207122802734
1761397133764696000,4.357696044921875,17.37105941772461,2.1428470611572266,4.568220615386963
1761397133784073000,4.377072998046875,16.201480865478516,1.0581178665161133,3.4457643032073975
1761397133803436000,4.39643603515625,12.498867988586426,1.8296384811401367,-1.2914204597473145
1761397133822826500,4.415826416015625,6.909052848815918,2.3163862228393555,-1.7805919647216797
1761397133842203400,4.435203369140625,-0.08715248107910156,2.0470995903015137,-0.5116468667984009
1761397133861566700,4.454566650390625,-5.5193095207214355,1.4425163269042969,0.008619964122772217
1761397133880957000,4.47395703125,-7.8871660232543945,0.5258307456970215,1.5294857025146484
1761397133900333800,4.493333740234375,-7.3843183517456055,-0.30454158782958984,2.019681930541992
1761397133919697200,4.512697265625,-6.766542434692383,-1.4326844215393066,1.7749689817428589
1761397133939087400,4.53208740234375,-6.966344833374023,-2.770805835723877,1.6403462886810303
1761397133958464300,4.55146435546875,-7.9393792152404785,-3.4661684036254883,0.26059186458587646
1761397133977827600,4.57082763671875,-8.92166805267334,-3.952575445175171,-1.0006119012832642
1761397133997217800,4.5902177734375,-9.293124198913574,-4.014639854431152,-1.4600934982299805
1761397134016594700,4.6095947265625,-11.547152519226074,-4.435526371002197,-0.8924373388290405
1761397134035958000,4.6289580078125,-11.848976135253906,-4.027056694030762,-1.6194318532943726
1761397134055348200,4.64834814453125,-9.413350105285645,-2.6056532859802246,-3.4518353939056396
1761397134074725000,4.66772509765625,-1.2333917617797852,0.024982452392578125,-4.478825569152832
1761397134094088400,4.68708837890625,8.729455947875977,4.550102233886719,-2.5292701721191406
1761397134113478700,4.706478759765625,18.342247009277344,4.825606346130371,3.452159881591797
1761397134132855600,4.72585546875,25.418437957763672,1.7431535720825195,10.39211368560791
1761397134152219000,4.745218994140625,23.541515350341797,1.4455928802490234,4.810795783996582
1761397134171609000,4.764609130859375,17.640125274658203,2.947564125061035,-2.1121387481689453
1761397134190986000,4.783986083984375,11.549336433410645,3.2757554054260254,-0.5823973417282104
1761397134210349300,4.803349365234375,2.151674270629883,2.5290632247924805,1.6996099948883057
1761397134229739500,4.822739501953125,-6.1643781661987305,1.3038663864135742,1.3432574272155762
1761397134249116400,4.842116455078125,-9.194247245788574,-0.22484207153320312,1.1137628555297852
1761397134268479700,4.861479736328125,-10.190717697143555,-1.7154817581176758,1.558606743812561
1761397134287870200,4.8808701171875,-11.361228942871094,-3.4553518295288086,0.6499421000480652
1761397134307246800,4.900246826171875,-11.346735000610352,-4.427302360534668,-1.2497730255126953
1761397134326610200,4.919610107421875,-11.074187278747559,-4.812209129333496,-1.4267786741256714
1761397134346000600,4.939000732421875,-12.088117599487305,-4.944926738739014,-0.5931710004806519
1761397134365377300,4.958377197265625,-13.578007698059082,-4.709527492523193,-0.048087239265441895
1761397134384740600,4.97774072265625,-12.791162490844727,-3.499757766723633,-0.8885051012039185
1761397134404131000,4.997131103515625,-8.512142181396484,-2.3848156929016113,-1.4852322340011597
1761397134423507700,5.0165078125,0.059734344482421875,-1.1986331939697266,0.3470184803009033
1761397134442871000,5.03587109375,11.351879119873047,0.5596446990966797,3.8823704719543457
1761397134462261500,5.055261474609375,17.890987396240234,3.4126996994018555,1.4878535270690918
1761397134481638400,5.074638427734375,18.858444213867188,3.2017908096313477,-0.30427348613739014
1761397134501001500,5.09400146484375,22.972530364990234,3.2061872482299805,-0.27097296714782715
1761397134520392000,5.113391845703125,24.181196212768555,3.2802767753601074,-0.9693869948387146
1761397134539768800,5.132768798828125,18.517824172973633,3.9233274459838867,-0.8087061047554016
1761397134559132200,5.152132080078125,6.506300926208496,3.9362263679504395,2.296419143676758
1761397134578522400,5.1715224609375,-4.390905857086182,3.7085676193237305,3.3341026306152344
1761397134597899300,5.190899169921875,-8.029253959655762,2.3367176055908203,2.766958713531494
1761397134617262600,5.2102626953125,-7.469499588012695,0.2715730667114258,1.8618717193603516
1761397134636652800,5.22965283203125,-7.8918352127075195,-2.341048240661621,0.7893046140670776
1761397134656029700,5.24902978515625,-8.562712669372559,-4.575942039489746,-0.4724833369255066
1761397134675393000,5.26839306640625,-9.65218448638916,-5.664839744567871,-0.5173602104187012
1761397134694783200,5.287783203125,-11.394233703613281,-6.755529880523682,-0.5161124467849731
1761397134714160000,5.30716015625,-12.962689399719238,-6.808785915374756,-1.577903389930725
1761397134733523500,5.3265234375,-13.694476127624512,-6.435583591461182,-2.2546534538269043
1761397134752913700,5.34591357421875,-11.680856704711914,-6.104541778564453,-2.1951212882995605
1761397134772290600,5.36529052734375,-7.216552734375,-5.420022487640381,-1.6408789157867432
1761397134791654000,5.38465380859375,-3.423074245452881,-3.3935492038726807,-1.6308269500732422
1761397134811044000,5.404044189453125,-0.7230620384216309,-1.1594748497009277,-0.17943096160888672
1761397134830421000,5.4234208984375,6.473324775695801,4.162493705749512,-3.3064961433410645
1761397134849784300,5.442784423828125,12.794127464294434,7.761908531188965,-4.590827465057373
1761397134869174500,5.462174560546875,19.147375106811523,3.750436305999756,5.56159782409668
1761397134888551400,5.481551513671875,32.93824768066406,-0.5682311058044434,10.472329139709473
1761397134907914800,5.500914794921875,33.392677307128906,-1.0825493335723877,4.589916706085205
1761397134927305000,5.520304931640625,15.374822616577148,0.5417623519897461,0.24686896800994873
1761397134946681900,5.539681884765625,-2.227524757385254,1.653681755065918,0.4318431615829468
1761397134966045200,5.559045166015625,-13.904857635498047,1.7055845260620117,1.299843192100525
1761397134985435600,5.578435546875,-17.68463706970215,0.12139701843261719,2.0783236026763916
1761397135004812300,5.597812255859375,-15.86306381225586,-3.2557191848754883,2.3117213249206543
1761397135024175600,5.617175537109375,-12.0303955078125,-5.703968048095703,0.3960270285606384
1761397135043565800,5.63656591796875,-8.527237892150879,-6.797582149505615,-1.6486530303955078
1761397135062942700,5.655942626953125,-6.914893627166748,-6.803954601287842,-2.746112823486328
1761397135082319600,5.675319580078125,-7.101659774780273,-5.926502227783203,-2.480990171432495
1761397135101696500,5.694696533203125,-9.207108497619629,-4.903304100036621,-1.4382294416427612
1761397135121073200,5.7140732421875,-10.050390243530273,-3.4104981422424316,-1.5864429473876953
1761397135140436500,5.7334365234375,-6.187263488769531,-1.4660320281982422,-1.3387725353240967
1761397135159827000,5.752826904296875,1.560506820678711,0.3346133232116699,1.3583612442016602
1761397135179203600,5.77220361328125,14.324854850769043,2.6909985542297363,2.7281720638275146
1761397135198567000,5.79156689453125,17.166709899902344,4.987995147705078,-1.1684234142303467
1761397135217957400,5.810957275390625,13.737787246704102,3.900151252746582,-2.326443672180176
1761397135237334000,5.830333984375,16.850341796875,2.4854722023010254,-0.7929078936576843
1761397135256697300,5.849697265625,17.575504302978516,1.2356925010681152,0.6986194849014282
1761397135276087800,5.869087890625,10.482723236083984,1.5139427185058594,1.5240774154663086
1761397135295464700,5.888464599609375,-0.2884502410888672,1.2103629112243652,2.1334564685821533
1761397135314828000,5.907828125,-8.295948028564453,0.33220958709716797,0.6315363645553589
1761397135334218200,5.92721826171875,-11.72552490234375,-1.003514289855957,-0.3366795778274536
1761397135353595100,5.94659521484375,-11.774751663208008,-2.6239047050476074,-0.4838918447494507
1761397135372958500,5.96595849609375,-10.468729972839355,-4.103508949279785,-0.17547976970672607
1761397135392348700,5.9853486328125,-7.941591739654541,-5.121273994445801,-0.3842092752456665
1761397135411725600,6.0047255859375,-6.454436302185059,-5.5445027351379395,-1.1536897420883179
1761397135431089000,6.0240888671875,-7.153409957885742,-5.104953765869141,-2.492678165435791
1761397135450479000,6.04347900390625,-8.812684059143066,-3.8419411182403564,-1.8772304058074951
1761397135469856000,6.06285595703125,-8.05595588684082,-1.8592214584350586,-0.21182668209075928
1761397135489219300,6.08221923828125,-2.303865432739258,0.07262516021728516,1.1927241086959839
1761397135508609500,6.101609619140625,6.059793472290039,3.2172765731811523,0.6266903877258301
1761397135527986400,6.120986328125,12.810469627380371,4.808175086975098,1.0958234071731567
1761397135547349800,6.140349853515625,17.91530418395996,2.9861550331115723,2.8043212890625
1761397135566740000,6.159739990234375,22.664749145507812,1.7444276809692383,0.35667240619659424
1761397135586116900,6.179116943359375,19.81077003479004,1.8130249977111816,-2.5992021560668945
1761397135605480200,6.198480224609375,10.209556579589844,2.984142780303955,-3.0006511211395264
1761397135624870400,6.217870361328125,-0.7689599990844727,2.9223766326904297,-0.8221434354782104
1761397135644247300,6.237247314453125,-8.251165390014648,1.5757079124450684,0.7586864233016968
1761397135663610600,6.256610595703125,-9.793045043945312,-0.2851066589355469,1.8041245937347412
1761397135683000800,6.276000732421875,-6.23175048828125,-2.01590895652771,1.0992742776870728
1761397135702377700,6.295377685546875,-2.224926471710205,-2.8844614028930664,-1.1788848638534546
1761397135721741000,6.314740966796875,-1.94024658203125,-3.6195735931396484,-2.5730905532836914
1761397135741131500,6.334131591796875,-4.851759910583496,-4.125875473022461,-2.856874465942383
1761397135760508200,6.353508056640625,-7.034187316894531,-4.0509796142578125,-2.092777729034424
1761397135779871500,6.37287158203125,-9.339731216430664,-3.6018660068511963,-0.22142040729522705
1761397135799262000,6.392261962890625,-10.080022811889648,-3.3103246688842773,0.9550771713256836
1761397135818638600,6.411638671875,-7.983793258666992,-2.879521131515503,-0.6644931435585022
1761397135838002000,6.431001953125,-4.67989444732666,-2.442744731903076,-2.5948987007141113
1761397135857392400,6.450392333984375,-0.13077783584594727,-1.808215856552124,-1.7473288774490356
1761397135876769000,6.46976904296875,4.1475324630737305,-0.6726570129394531,-0.2798953056335449
1761397135896132400,6.48913232421875,5.41254186630249,1.0426373481750488,-3.0087838172912598
1761397135915522800,6.508522705078125,3.0118565559387207,2.552497386932373,-6.502320289611816
1761397135934899700,6.527899658203125,2.147266387939453,3.600248336791992,-4.599205017089844
1761397135954263000,6.547262939453125,6.1031694412231445,2.70090913772583,2.398956298828125
1761397135973653200,6.5666533203125,12.684633255004883,1.2404217720031738,9.45703125
1761397135993030100,6.586030029296875,14.764223098754883,2.4597229957580566,5.9557952880859375
1761397136012393200,6.605393310546875,10.671721458435059,3.5295844078063965,0.19897222518920898
1761397136031783700,6.62478369140625,5.725927829742432,3.2372307777404785,1.0946087837219238
1761397136051160600,6.64416064453125,0.757561206817627,2.2674379348754883,3.2086873054504395
1761397136070524000,6.66352392578125,-2.566143035888672,0.7615289688110352,2.4218499660491943
1761397136089914000,6.6829140625,-3.6263222694396973,-0.7534422874450684,0.9853777885437012
1761397136109291000,6.702291015625,-3.4067435264587402,-2.078275442123413,0.21088099479675293
1761397136128654300,6.721654296875,-2.9875688552856445,-3.1213271617889404,-0.1275184154510498
1761397136148044500,6.74104443359375,-3.6699399948120117,-3.8742129802703857,0.04920792579650879
1761397136167421400,6.76042138671875,-5.018905162811279,-4.219184875488281,-0.23225867748260498
1761397136186784800,6.77978466796875,-6.734465599060059,-4.193177700042725,-1.0656136274337769
1761397136206175000,6.799175048828125,-7.739779949188232,-3.7768921852111816,-1.2998629808425903
1761397136225552000,6.8185517578125,-6.937559604644775,-3.4413790702819824,-0.5032373070716858
1761397136244915200,6.837915283203125,-4.056451797485352,-2.9865968227386475,0.762306272983551
1761397136264305400,6.857305419921875,-1.4178695678710938,-1.861252784729004,0.2356012463569641
1761397136283682300,6.876682373046875,0.2187972068786621,-0.2561488151550293,-1.619816780090332
1761397136303045600,6.896045654296875,2.2368927001953125,2.800724983215332,-3.1162049770355225
1761397136322435800,6.915435791015625,3.7977585792541504,5.050568580627441,-2.23846173286438
1761397136341812700,6.934812744140625,7.8394551277160645,3.7696657180786133,1.0858681201934814
1761397136361176000,6.954176025390625,14.329504013061523,0.953303337097168,2.680234909057617
1761397136380566500,6.97356640625,14.561717987060547,0.33841753005981445,-0.7827747464179993
1761397136399943200,6.992943115234375,8.848337173461914,1.4646759033203125,-4.24613618850708
1761397136419306500,7.012306396484375,3.321107864379883,2.8234481811523438,-3.3646647930145264
1761397136438696700,7.03169677734375,-0.9540481567382812,3.197648525238037,-1.4665086269378662
1761397136458073600,7.051073486328125,-4.427585124969482,1.1628060340881348,0.04919496178627014
1761397136477437000,7.07043701171875,-5.035826206207275,-1.2824158668518066,2.632715940475464
1761397136496827400,7.089827392578125,-3.732332944869995,-3.4512243270874023,4.916582107543945
1761397136516204000,7.1092041015625,-2.5975522994995117,-4.501714706420898,4.224654197692871
1761397136535567400,7.1285673828125,-2.8527703285217285,-4.81313943862915,2.1051008701324463
1761397136554957800,7.147957763671875,-4.0752153396606445,-4.949061870574951,1.1952548027038574
1761397136574334500,7.16733447265625,-6.7868266105651855,-4.995804786682129,1.7811836004257202
1761397136593697800,7.18669775390625,-9.224202156066895,-5.248517990112305,1.9354753494262695
1761397136613088300,7.206088134765625,-10.025934219360352,-4.826880931854248,1.045830488204956
1761397136632465000,7.22546484375,-8.148355484008789,-4.263922691345215,0.5651466846466064
1761397136651828200,7.244828125,-3.802091598510742,-3.3142240047454834,0.46407371759414673
1761397136671218700,7.26421875,0.09251689910888672,-1.8348917961120605,0.539136528968811
1761397136690595600,7.283595703125,3.782743453979492,0.16837310791015625,-1.0414297580718994
1761397136709959000,7.302958984375,6.768436908721924,1.3107810020446777,-2.854736804962158
1761397136729349000,7.32234912109375,8.582279205322266,1.50352144241333,-0.561211347579956
1761397136748726000,7.34172607421875,10.769885063171387,1.5480427742004395,1.986323356628418
1761397136768102700,7.3611025390625,9.087145805358887,2.1937003135681152,0.8614134788513184
1761397136787479600,7.3804794921875,6.111100196838379,2.7758984565734863,-1.0812461376190186
1761397136806856400,7.3998564453125,4.836796760559082,3.166240692138672,-0.9287757873535156
1761397136826219800,7.4192197265625,3.1067094802856445,2.8840651512145996,0.7788660526275635
1761397136845610000,7.43860986328125,0.7464675903320312,1.6865711212158203,2.024259328842163
1761397136864987000,7.45798681640625,0.25127506256103516,0.0814518928527832,1.7284889221191406
1761397136884350200,7.47735009765625,0.6461191177368164,-0.28357934951782227,0.2204897403717041
1761397136903740400,7.496740478515625,-1.7297582626342773,-0.4113779067993164,-0.4089944362640381
1761397136923117300,7.516117431640625,-5.013645172119141,-0.5034976005554199,-0.7609469890594482
1761397136942480600,7.535480712890625,-7.259428024291992,-1.325394630432129,-0.7299150228500366
1761397136961870800,7.554870849609375,-7.846243858337402,-2.401395797729492,-1.0449910163879395
1761397136981247700,7.574247802734375,-7.284457683563232,-2.8476946353912354,-1.8656314611434937
1761397137000624600,7.593624755859375,-6.299050331115723,-2.6851863861083984,-2.606289863586426
1761397137020001500,7.61300146484375,-4.6325836181640625,-2.6073243618011475,-2.4095301628112793
1761397137039378200,7.632378173828125,-1.400735855102539,-2.60807204246521,-1.2394087314605713
1761397137058741500,7.651741455078125,1.548818588256836,-2.8568594455718994,2.0014615058898926
1761397137078131700,7.671131591796875,3.1083736419677734,-1.8661949634552002,3.283993721008301
1761397137097508600,7.690508544921875,3.340731143951416,0.16639375686645508,0.3256356716156006
1761397137116872000,7.709871826171875,5.7576117515563965,-0.10632753372192383,0.574819803237915
1761397137136262400,7.729262451171875,8.146358489990234,0.12082719802856445,2.30466365814209
1761397137155639000,7.74863916015625,7.133864879608154,0.31998586654663086,2.830714464187622
1761397137175002400,7.76800244140625,6.516794204711914,0.5989985466003418,1.0780901908874512
1761397137194392800,7.787392822265625,7.177853584289551,1.4446802139282227,-2.7833638191223145
1761397137213769500,7.80676953125,7.488858222961426,2.258668899536133,-5.054477691650391
1761397137233146400,7.826146484375,6.395368576049805,2.7273755073547363,-4.779853820800781
1761397137252523300,7.845523193359375,5.026891708374023,2.3548336029052734,-1.8009827136993408
1761397137271900000,7.86489990234375,3.3661623001098633,1.5154356956481934,1.448555588722229
1761397137291263200,7.88426318359375,0.8842802047729492,0.4763035774230957,2.4451894760131836
1761397137310653700,7.90365380859375,-2.387990951538086,-0.44931674003601074,1.6990443468093872
1761397137330030600,7.923030517578125,-4.5217766761779785,-1.3498175144195557,1.1084399223327637
1761397137349394000,7.942393798828125,-4.745037078857422,-1.7940638065338135,0.25366854667663574
1761397137368784100,7.9617841796875,-4.256595611572266,-2.093430995941162,-0.5102488994598389
1761397137388161000,7.9811611328125,-3.975856304168701,-2.2516376972198486,-1.2031692266464233
1761397137407524400,8.0005244140625,-4.788038730621338,-2.3298120498657227,-0.9477901458740234
1761397137426914600,8.01991455078125,-5.115321636199951,-2.0281381607055664,-0.11672103404998779
1761397137446291500,8.03929150390625,-3.233829975128174,-1.7966127395629883,0.18236327171325684
1761397137465668000,8.058668212890625,-4.18078088760376,-2.6061670780181885,0.8182387351989746
1761397137485045000,8.078044921875,-5.114495277404785,-2.6867949962615967,0.715420126914978
1761397137504422000,8.097421875,-4.679332256317139,-2.083385467529297,0.3411998748779297
1761397137523785200,8.11678515625,-1.8560662269592285,-1.5375990867614746,-0.32665616273880005
1761397137543175400,8.136175537109375,0.7727851867675781,-0.6577839851379395,-2.1783502101898193
1761397137562552300,8.15555224609375,2.4494285583496094,1.549039363861084,-3.943843364715576
1761397137581915600,8.17491552734375,4.796150207519531,4.645005226135254,-4.474410533905029
1761397137601305900,8.194305908203125,5.697175025939941,6.148197174072266,-1.8684296607971191
1761397137620682800,8.213682861328126,6.064758777618408,5.718866348266602,3.149169683456421
1761397137640046000,8.233046142578125,8.480756759643555,4.784575462341309,5.5317511558532715
1761397137659436300,8.252436279296875,10.462179183959961,3.8303022384643555,4.1309123039245605
1761397137678813200,8.271813232421875,7.70897102355957,4.480558395385742,-0.5849469304084778
1761397137698176500,8.291176513671875,3.5706071853637695,4.277771472930908,-3.01524019241333
1761397137717566700,8.310566650390625,2.1634531021118164,3.536799907684326,-2.541855573654175
1761397137736943600,8.329943603515625,0.7920851707458496,2.069207191467285,0.014779627323150635
1761397137756307000,8.349306884765625,-2.6118016242980957,0.45271873474121094,2.3456904888153076
1761397137775697400,8.368697509765624,-4.655228614807129,-1.3560070991516113,3.3103928565979004
1761397137795074000,8.388073974609375,-4.583779335021973,-2.9364256858825684,1.9870240688323975
1761397137814437400,8.407437255859374,-4.067000389099121,-3.9943227767944336,0.4788006544113159
1761397137833827800,8.426827880859374,-4.538457870483398,-4.399699687957764,0.26611003279685974
1761397137853204500,8.44620458984375,-5.61108922958374,-4.457236289978027,0.6929634809494019
1761397137872567800,8.46556787109375,-6.322500705718994,-4.302518844604492,1.3285272121429443
1761397137891958300,8.484958251953126,-6.908367156982422,-4.094805717468262,1.4354177713394165
1761397137911335000,8.5043349609375,-8.212014198303223,-3.799980640411377,0.6077518463134766
1761397137930698200,8.5236982421875,-7.901862144470215,-3.678739547729492,-0.17003241181373596
1761397137950088700,8.543088623046875,-6.177903175354004,-3.0918946266174316,-0.8494628071784973
1761397137969465600,8.562465576171874,-4.201935768127441,-2.33803653717041,-0.9185284972190857
1761397137988829000,8.581828857421876,-1.6695938110351562,-1.0955028533935547,-1.5541229248046875
1761397138008219100,8.60121923828125,1.5123744010925293,1.4107842445373535,-3.7999253273010254
1761397138027596000,8.620595947265626,3.5751495361328125,3.140481472015381,-4.321706771850586
1761397138046959000,8.639958984375,4.305039882659912,4.06587028503418,-1.4909005165100098
1761397138066349600,8.659349609375,6.751780986785889,4.142133712768555,3.3909478187561035
1761397138085726500,8.6787265625,9.433975219726562,4.09027099609375,4.835883617401123
1761397138105089800,8.69808984375,10.37896728515625,4.32974910736084,1.8005379438400269
1761397138124480000,8.71747998046875,10.137304306030273,3.8992233276367188,2.7557308673858643
1761397138143857000,8.73685693359375,9.792440414428711,4.055276870727539,2.021273374557495
1761397138163220200,8.75622021484375,6.320378303527832,3.6435112953186035,-1.8792423009872437
1761397138182610400,8.7756103515625,3.199202537536621,2.791637897491455,-2.0812699794769287
1761397138201987300,8.7949873046875,0.864466667175293,1.1639080047607422,0.4656480550765991
1761397138221350700,8.8143505859375,-1.2289314270019531,-0.3470768928527832,2.541792631149292
1761397138240740900,8.833740966796874,-1.8438053131103516,-1.856055498123169,1.1255115270614624
1761397138260117800,8.85311767578125,-2.120175361633301,-3.0108070373535156,-1.0673092603683472
1761397138279481000,8.872481201171874,-3.46530818939209,-3.9721486568450928,-1.3463290929794312
1761397138298871300,8.891871337890626,-5.066512584686279,-4.262001991271973,0.4027009606361389
1761397138318248200,8.911248291015625,-7.055130481719971,-4.379157066345215,2.3302395343780518
1761397138337611500,8.930611572265626,-8.044926643371582,-4.128472328186035,2.1088783740997314
1761397138357001700,8.950001708984376,-7.977339267730713,-4.086343288421631,0.4301567077636719
1761397138376378600,8.969378662109374,-6.394786834716797,-3.882692337036133,-1.5266507863998413
1761397138395755500,8.988755615234375,-5.736520290374756,-3.3222293853759766,-0.6947803497314453
1761397138415132400,9.00813232421875,-6.312916278839111,-2.427509069442749,2.4037892818450928
1761397138434509000,9.027509033203126,-4.8637919425964355,-0.9525666236877441,1.6903421878814697
1761397138453872400,9.046872314453125,-1.012887954711914,0.007260799407958984,-1.6848348379135132
1761397138473262600,9.0662626953125,2.475126266479492,1.9097323417663574,-3.165436267852783
1761397138492639500,9.085639404296876,4.983295440673828,3.578305244445801,-2.5426175594329834
1761397138512002800,9.1050029296875,7.756100654602051,3.4249744415283203,-0.24601879715919495
1761397138531393300,9.124393310546875,7.832529544830322,2.893118381500244,2.384840250015259
1761397138550770000,9.14377001953125,7.54340934753418,3.0278139114379883,-0.07785198092460632
1761397138570133200,9.16313330078125,7.234212875366211,3.4853410720825195,-3.80311918258667
1761397138589523700,9.182523681640625,5.001127243041992,4.164502143859863,-3.646955728530884
1761397138608900400,9.201900390625,2.0137710571289062,4.73344612121582,-1.5754694938659668
1761397138628263700,9.221263671875,0.14182043075561523,3.931185245513916,-0.4851752519607544
1761397138647654100,9.240654052734374,-0.13828420639038086,2.251293182373047,-0.24255722761154175
1761397138667030800,9.26003076171875,-0.284207820892334,0.1872568130493164,1.3467894792556763
1761397138686394000,9.27939404296875,0.673304557800293,-1.618706464767456,2.8157312870025635
1761397138705784600,9.29878466796875,1.582468032836914,-2.8144702911376953,2.172959566116333
1761397138725161500,9.318161376953125,0.5931673049926758,-3.6301474571228027,1.4859429597854614
1761397138744524800,9.33752490234375,-1.7836027145385742,-4.1271653175354,1.3797333240509033
1761397138763915000,9.3569150390625,-3.9635114669799805,-4.440432548522949,0.7811880707740784
1761397138783292000,9.3762919921875,-5.962602138519287,-4.465238094329834,0.8020009994506836
1761397138802655200,9.3956552734375,-7.000647068023682,-4.33452844619751,1.1771122217178345
1761397138822045400,9.41504541015625,-7.219108581542969,-4.152773380279541,1.0330802202224731
1761397138841422300,9.43442236328125,-7.343602657318115,-3.7171010971069336,1.0745772123336792
1761397138860785700,9.45378564453125,-8.032598495483398,-3.2200634479522705,1.4205653667449951
1761397138880175900,9.47317578125,-7.798605442047119,-2.5600228309631348,0.40467569231987
1761397138899552800,9.492552734375,-5.407830238342285,-1.003183364868164,-1.4287548065185547
1761397138918916000,9.511916015625,-2.216407299041748,1.6603398323059082,-3.2548093795776367
1761397138938306300,9.531306396484375,0.5346121788024902,4.548488616943359,-3.433927536010742
1761397138957683200,9.55068310546875,6.649551868438721,4.838587760925293,0.5417193174362183
1761397138977046500,9.570046630859375,13.99835205078125,4.905036449432373,4.293023109436035
1761397138996436700,9.589436767578125,17.807918548583984,4.406936168670654,2.9175353050231934
1761397139015813600,9.608813720703125,16.138809204101562,4.976170539855957,-2.257390260696411
1761397139035177000,9.628177001953125,12.540388107299805,5.95146369934082,-2.684166431427002
1761397139054567200,9.647567138671874,7.61482048034668,6.145265102386475,0.13406246900558472
1761397139073944000,9.666944091796875,1.2955646514892578,4.180119514465332,1.5015064477920532
1761397139093307400,9.686307373046875,-2.8232874870300293,1.8008294105529785,0.47885438799858093
1761397139112697600,9.705697509765624,-4.923665523529053,0.1192631721496582,-0.7781346440315247
1761397139132074500,9.725074462890625,-6.223124027252197,-1.226499080657959,-0.0008760988712310791
1761397139151437800,9.744437744140624,-6.512979507446289,-2.820736885070801,0.9910380840301514
1761397139170828300,9.763828369140626,-6.353250503540039,-4.401791095733643,0.4742830991744995
1761397139190205000,9.783204833984374,-7.048002243041992,-5.504341125488281,0.03691381216049194
1761397139209568300,9.802568359375,-8.131681442260742,-6.170126914978027,0.19528529047966003
1761397139228958700,9.821958740234376,-9.08816909790039,-6.044844627380371,0.254830539226532
1761397139248335400,9.84133544921875,-9.783449172973633,-5.210193157196045,0.8812034726142883
1761397139267712300,9.860712158203125,-9.671638488769531,-4.506579399108887,0.7113291621208191
1761397139287089200,9.880089111328125,-7.873617172241211,-3.1872453689575195,-0.8582950830459595
1761397139306465800,9.8994658203125,-3.690481185913086,-1.8202624320983887,-0.04377555847167969
1761397139325829000,9.9188291015625,1.7701897621154785,0.043324947357177734,2.3007655143737793
1761397139345219600,9.938219482421875,8.172744750976562,2.9728236198425293,0.4858134388923645
1761397139364596500,9.957596435546876,12.854199409484863,4.511768341064453,-2.5952844619750977
1761397139383959800,9.976959716796875,12.054609298706055,4.633159160614014,-1.4314271211624146
1761397139403350000,9.99635009765625,13.522470474243164,5.543379783630371,-1.4107282161712646
1761397139422726700,10.0157265625,15.152416229248047,5.521187782287598,-2.4064254760742188
1761397139442090200,10.03509033203125,12.460433959960938,5.3852763175964355,-1.5749354362487793
1761397139461480400,10.05448046875,6.2045769691467285,5.519656658172607,0.2835249900817871
1761397139480857300,10.073857421875,-0.8465776443481445,4.242959976196289,3.249401569366455
1761397139500220700,10.093220703125,-5.753998756408691,2.006622314453125,4.015369415283203
1761397139519611000,10.11261083984375,-7.153435707092285,-0.9907517433166504,1.993868112564087
1761397139538987800,10.13198779296875,-5.0111846923828125,-3.733121633529663,-0.30005887150764465
1761397139558351000,10.15135107421875,-4.000919342041016,-5.291523456573486,-0.3151390254497528
1761397139577741300,10.1707412109375,-4.060698509216309,-5.590089321136475,0.6835110783576965
1761397139597118200,10.1901181640625,-4.3260087966918945,-5.320078372955322,0.9345850944519043
1761397139616481500,10.2094814453125,-5.3494343757629395,-4.7513322830200195,0.6906354427337646
1761397139635871700,10.228871826171876,-6.032546520233154,-4.29849910736084,0.035098135471343994
1761397139655248600,10.24824853515625,-5.581091403961182,-3.822747230529785,-0.49309563636779785
1761397139674625500,10.26762548828125,-4.922551155090332,-3.245366096496582,0.44858062267303467
1761397139694002200,10.287002197265625,-3.909303665161133,-2.569241523742676,1.1410763263702393
1761397139713379000,10.306379150390624,-2.0858006477355957,-2.2179408073425293,-0.2216257005929947
1761397139732742400,10.325742431640625,-0.7984504699707031,-1.420341968536377,-2.1684889793395996
1761397139752132600,10.345132568359375,-0.6052350997924805,1.2127203941345215,-2.3520236015319824
1761397139771509500,10.364509521484376,-1.8670411109924316,3.688448905944824,-1.6130539178848267
1761397139790872800,10.383872802734375,-3.8053648471832275,2.78428316116333,-1.794574499130249
1761397139810263000,10.403262939453125,-2.2216544151306152,2.5885567665100098,-0.1312440037727356
1761397139829640000,10.422639892578125,9.001126289367676,1.228471279144287,0.6643878221511841
1761397139849003300,10.442003173828125,15.126249313354492,0.904935359954834,-0.7063879370689392
1761397139868393700,10.461393798828125,9.93844223022461,2.725996494293213,-2.117802143096924
1761397139887770400,10.480770263671875,1.3582744598388672,2.7128214836120605,1.034294605255127
1761397139907147300,10.500147216796876,1.9790763854980469,2.6664276123046875,1.681012749671936
1761397139926524200,10.519524169921874,5.429476737976074,3.231811046600342,-1.324450969696045
1761397139945900800,10.53890087890625,6.051388740539551,2.6295719146728516,0.22586512565612793
1761397139965264100,10.55826416015625,3.600553512573242,0.5217747688293457,3.660750389099121
1761397139984654600,10.577654541015624,-0.6144700050354004,-1.9711642265319824,3.8611292839050293
1761397140004031200,10.59703125,-0.11342716217041016,-0.5260467529296875,-1.5113855600357056
1761397140023394600,10.61639453125,-1.2087221145629883,-1.6523776054382324,-2.3325841426849365
1761397140042785000,10.635784912109376,-2.9586100578308105,-2.3445448875427246,-0.2332901954650879
1761397140062161700,10.65516162109375,-4.445795059204102,-2.3267617225646973,1.4128780364990234
1761397140081538600,10.67453857421875,-1.6568546295166016,-2.829482078552246,1.187437891960144
1761397140100915500,10.69391552734375,-1.1944756507873535,-2.7531094551086426,0.9011717438697815
1761397140120292400,10.713292236328124,-1.49298095703125,-2.715102195739746,1.08317232131958
1761397140139669000,10.7326689453125,-0.6572299003601074,-2.438201904296875,0.1475481390953064
1761397140159046000,10.7520458984375,-1.1722502708435059,-2.263350248336792,1.2570735216140747
1761397140178422800,10.7714228515625,-1.7739205360412598,-1.7212200164794922,1.146355152130127
1761397140197786000,10.7907861328125,0.2050313949584961,-0.777031421661377,-0.7393678426742554
1761397140217176300,10.81017626953125,-1.6506390571594238,0.22731590270996094,0.6991903781890869
1761397140236553200,10.82955322265625,-3.052237033843994,1.6511735916137695,1.7905728816986084
1761397140255916500,10.84891650390625,-4.28983736038208,1.8840465545654297,1.7387672662734985
1761397140275306800,10.868306640625,-4.826489448547363,1.5948724746704102,1.9760850667953491
1761397140294683600,10.88768359375,1.9780426025390625,0.8485994338989258,0.023135606199502945
1761397140314047000,10.907046875,10.377519607543945,-0.22741031646728516,0.18075814843177795
1761397140333437200,10.926437255859375,9.766023635864258,-0.724212646484375,3.3144028186798096
1761397140352814000,10.94581396484375,1.931544303894043,-0.6411418914794922,2.3927597999572754
1761397140372177400,10.965177490234375,-1.369422435760498,-0.2720513343811035,-2.1672074794769287
