time,seconds_elapsed,z,y,x
1761397129539430100,0.13243017578125,0.19974705576896667,0.6807892918586731,-0.19027891755104065
1761397129558807000,0.15180712890625,0.2145601063966751,0.649483323097229,-0.06963659077882767
1761397129578183700,0.17118359375,0.31122666597366333,0.5682406425476074,-0.06169557198882103
1761397129597560600,0.190560546875,0.46164780855178833,0.45828816294670105,-0.1044548824429512
1761397129616937500,0.2099375,0.5674771070480347,0.33627140522003174,-0.11743538826704025
1761397129636314000,0.229314208984375,0.6351284384727478,0.23975755274295807,-0.08857285231351852
1761397129655691000,0.24869091796875,0.6531484127044678,0.12934690713882446,-0.04734066128730774
1761397129675068000,0.26806787109375,0.6174138784408569,-0.01695101149380207,-0.05131116881966591
1761397129694444500,0.287444580078125,0.5428904891014099,-0.12247487902641296,-0.0653606578707695
1761397129713821400,0.306821533203125,0.4468347728252411,-0.10552386194467545,-0.08643488585948944
1761397129733198300,0.3261982421875,0.42133188247680664,-0.046577103435993195,-0.15912571549415588
1761397129752575200,0.3455751953125,0.35856732726097107,0.007024743594229221,-0.2208212912082672
1761397129771951900,0.364951904296875,0.3130592107772827,0.08368607610464096,-0.16630317270755768
1761397129791328800,0.384328857421875,0.37597647309303284,0.12140589207410812,-0.03451287001371384
1761397129810705700,0.40370556640625,0.4340069890022278,0.049173206090927124,0.12766708433628082
1761397129830082300,0.423082275390625,0.40697699785232544,-0.04428642615675926,0.25808295607566833
1761397129849459200,0.442459228515625,0.35536038875579834,-0.022754060104489326,0.35978904366493225
1761397129868836000,0.461836181640625,0.31977853178977966,0.01725643500685692,0.33886751532554626
1761397129888212700,0.481212646484375,0.31504446268081665,-0.03680354729294777,0.2095206081867218
1761397129907589600,0.500589599609375,0.33947837352752686,-0.009620844386518002,0.16019469499588013
1761397129926966500,0.519966552734375,0.3306210935115814,-0.047646086663007736,0.1369825005531311
1761397129946343200,0.53934326171875,0.33886751532554626,-0.3709369897842407,-0.030847785994410515
1761397129965720000,0.558719970703125,0.36192700266838074,-0.742026686668396,-0.30908870697021484
1761397129985097000,0.578096923828125,0.38254308700561523,-0.5111264586448669,-0.44546034932136536
1761397130004473600,0.5974736328125,0.5028799772262573,-0.1695101112127304,-0.4086568057537079
1761397130023850500,0.6168505859375,0.6667397618293762,-0.07437065243721008,-0.2351761907339096
1761397130043227400,0.636227294921875,0.7330167293548584,-0.03833066672086716,0.030847785994410515
1761397130062604300,0.655604248046875,0.6882721781730652,0.019088976085186005,0.34726667404174805
1761397130081967600,0.674967529296875,0.5435013771057129,0.14141114056110382,0.5630484819412231
1761397130101357800,0.69435791015625,0.46760356426239014,0.2796153426170349,0.5051707029342651
1761397130120734700,0.713734619140625,0.4946335554122925,0.18997350335121155,0.29977330565452576
1761397130140111400,0.733111328125,0.4178195297718048,0.01175880990922451,0.10384403169155121
1761397130159488300,0.75248828125,0.33352261781692505,-0.08872556686401367,-0.033291175961494446
1761397130178865200,0.771865234375,0.29503923654556274,-0.3205420970916748,-0.1707318127155304
1761397130198228500,0.791228515625,0.2877090573310852,-0.5230379700660706,-0.2348707765340805
1761397130217618700,0.81061865234375,0.3712424337863922,-0.31855684518814087,-0.010995250195264816
1761397130236995600,0.82999560546875,0.5540384650230408,0.04337015375494957,0.30313295125961304
1761397130256359000,0.84935888671875,0.7589777112007141,0.27320143580436707,0.45889899134635925
1761397130275749000,0.8687490234375,0.9373451471328735,0.23471805453300476,0.3361186981201172
1761397130295126000,0.8881259765625,1.0040801763534546,0.07528692483901978,-0.07498150318861008
1761397130314502700,0.907502685546875,1.044243335723877,0.20845162868499756,-0.5274665951728821
1761397130333879600,0.926879638671875,1.107924222946167,0.34818294644355774,-0.8335011005401611
1761397130353256400,0.94625634765625,1.0920422077178955,0.6203153729438782,-0.7886037826538086
1761397130372619800,0.965619873046875,0.940857470035553,0.9174925684928894,-0.5877877473831177
1761397130392010000,0.985010009765625,0.8310576677322388,0.6479562520980835,-0.5201364159584045
1761397130411387000,1.004386962890625,0.8218950033187866,0.5615213513374329,-0.2880144715309143
1761397130430763800,1.023763671875,0.8121214509010315,0.9775083065032959,0.04153761267662048
1761397130450140400,1.043140380859375,0.9066500663757324,1.3854016065597534,0.07452336698770523
1761397130469517300,1.062517333984375,0.9428427219390869,1.456870675086975,-0.10109522193670273
1761397130488880600,1.081880615234375,0.9956810474395752,1.8284186124801636,-0.11682453751564026
1761397130508270800,1.101270751953125,1.1928319931030273,2.340003252029419,0.2238755226135254
1761397130527647700,1.120647705078125,1.0796725749969482,2.65535306930542,0.8186880350112915
1761397130547011000,1.140010986328125,0.5123481154441833,2.4291868209838867,1.0837957859039307
1761397130566401300,1.1594013671875,0.1363716572523117,1.6876182556152344,0.4869979918003082
1761397130585778200,1.178778076171875,-0.12216944992542267,0.9295567870140076,-0.8773293495178223
1761397130605141500,1.1981416015625,-0.3402419090270996,-0.2993151545524597,-1.9162278175354004
1761397130624531700,1.21753173828125,-0.4234698712825775,-1.5379606485366821,-2.018697500228882
1761397130643908600,1.23690869140625,-0.4756973087787628,-2.540208339691162,-1.7241164445877075
1761397130663272000,1.25627197265625,-0.19424942135810852,-3.763735294342041,-1.3979239463806152
1761397130682662400,1.275662353515625,0.16935740411281586,-4.237447261810303,-1.2673553228378296
1761397130702039000,1.2950390625,0.14309096336364746,-3.6291961669921875,-1.577818512916565
1761397130721402400,1.31440234375,-0.05757235363125801,-2.4372806549072266,-1.867512822151184
1761397130740792800,1.333792724609375,-0.25090551376342773,-1.5107779502868652,-2.004342555999756
1761397130760169500,1.35316943359375,-0.569004237651825,-0.8487722873687744,-1.893473744392395
1761397130779532800,1.37253271484375,-0.577861487865448,0.39201122522354126,-1.4182345867156982
1761397130798923300,1.39192333984375,-0.17409147322177887,1.5868284702301025,-0.48455458879470825
1761397130818300000,1.4112998046875,0.46851983666419983,2.108644723892212,0.6725428104400635
1761397130837663200,1.430663330078125,0.465007483959198,1.2438377141952515,0.786160409450531
1761397130857053700,1.4500537109375,0.19394400715827942,1.3452383279800415,0.9654440879821777
1761397130876430300,1.469430419921875,0.21303297579288483,1.608208179473877,1.482373595237732
1761397130895793700,1.488793701171875,0.8674030900001526,1.1771026849746704,1.5463597774505615
1761397130915184000,1.50818408203125,0.8747332692146301,-2.117501974105835,0.09605573117733002
1761397130934560800,1.527560791015625,-0.49051034450531006,-3.7469370365142822,-1.6039321422576904
1761397130953924400,1.54692431640625,-0.8359444737434387,-0.9949174523353577,-1.0552386045455933
1761397130973314600,1.566314453125,0.557550847530365,2.088486671447754,0.9407047629356384
1761397130992691200,1.585691162109375,1.3953278064727783,1.8539214134216309,1.961125135421753
1761397131012054500,1.605054443359375,0.5445703268051147,-0.42453885078430176,1.7911568880081177
1761397131031445000,1.624445068359375,-0.8843541145324707,-2.337865114212036,1.192984700202942
1761397131050822000,1.64382177734375,-1.698155403137207,-2.0580971240997314,0.09284878522157669
1761397131070185200,1.663185302734375,-2.010298252105713,-0.6503996253013611,-0.9513946175575256
1761397131089575400,1.682575439453125,-2.004800796508789,0.2919849753379822,-1.2809467315673828
1761397131108952300,1.701952392578125,-1.8749957084655762,0.2426590770483017,-0.6934643387794495
1761397131128315600,1.721315673828125,-1.6282134056091309,-0.20845162868499756,0.26342788338661194
1761397131147705900,1.740705810546875,-1.2971341609954834,-0.5335750579833984,0.7866185307502747
1761397131167082800,1.760082763671875,-1.1812258958816528,-0.8680139780044556,0.7278245091438293
1761397131186446000,1.779446044921875,-1.3288981914520264,-1.1488510370254517,0.28496024012565613
1761397131205836300,1.798836181640625,-1.5704883337020874,-1.1461021900177002,-0.2113531529903412
1761397131225213200,1.818213134765625,-1.735722541809082,-1.1293038129806519,-0.5196782946586609
1761397131244576500,1.837576416015625,-1.7190768718719482,-1.454885482788086,-0.7988355159759521
1761397131263966700,1.856966796875,-1.3644800186157227,-1.1303728818893433,-0.23425991833209991
1761397131283343600,1.876343505859375,-1.4454172849655151,-0.9866710305213928,0.765849769115448
1761397131302707000,1.89570703125,-1.7204513549804688,-1.7925312519073486,0.5433486104011536
1761397131322097200,1.91509716796875,-1.6836477518081665,-2.3499293327331543,-0.10705098509788513
1761397131341474000,1.93447412109375,-1.4125843048095703,-0.8385405540466309,0.24128466844558716
1761397131360837400,1.95383740234375,-0.897334635257721,1.307671308517456,1.311947226524353
1761397131380227600,1.9732275390625,-0.6510104537010193,1.8418571949005127,1.7893242835998535
1761397131399604500,1.9926044921875,-0.7685985565185547,1.2166550159454346,1.5990453958511353
1761397131418967800,2.0119677734375,-0.9000834226608276,0.3035911023616791,1.1363285779953003
1761397131438358000,2.03135791015625,-0.6601731777191162,-0.23380178213119507,0.448361873626709
1761397131457735000,2.05073486328125,-0.8177717924118042,-0.38009971380233765,-0.2107423096895218
1761397131477098200,2.07009814453125,-1.5165810585021973,-0.3834593594074249,-0.5741963982582092
1761397131496488400,2.089488525390625,-1.8719414472579956,-0.40422818064689636,-0.5292991399765015
1761397131515865300,2.108865234375,-1.745954155921936,-0.5479300022125244,-0.22815145552158356
1761397131535228700,2.128228759765625,-1.4047960042953491,-0.5877877473831177,-0.03130592033267021
1761397131554619100,2.147619140625,-1.2154333591461182,-0.4286620616912842,-0.14034216105937958
1761397131573995800,2.166995849609375,-1.2670499086380005,-0.5141806602478027,-0.3220692276954651
1761397131593359000,2.186359130859375,-1.330578088760376,-1.0888352394104004,-0.4297310411930084
1761397131612749300,2.205749267578125,-1.3621894121170044,-1.7250326871871948,-0.605960488319397
1761397131632126200,2.225126220703125,-1.515970230102539,-1.9388291835784912,-0.7224795818328857
1761397131651489500,2.244489501953125,-1.491230845451355,-1.3841798305511475,-0.12339114397764206
1761397131670880000,2.2638798828125,-0.7945595979690552,-0.35856732726097107,0.36284327507019043
1761397131690256600,2.283256591796875,-0.7922688722610474,-1.0303466320037842,-1.0014840364456177
1761397131709620000,2.302619873046875,-1.2678134441375732,-2.089097738265991,-2.5666275024414062
1761397131729010400,2.322010498046875,-1.0190459489822388,-0.43324342370033264,-1.5449854135513306
1761397131748387000,2.341386962890625,-0.12812520563602448,0.9556705355644226,0.8683193922042847
1761397131767750400,2.36075048828125,0.663838267326355,0.5143333673477173,2.953904628753662
1761397131787140900,2.380140869140625,0.2689255177974701,-0.5967977643013,3.1089072227478027
1761397131806517500,2.399517578125,-0.11621369421482086,-0.38132140040397644,1.6254645586013794
1761397131825880800,2.418880859375,-0.168899267911911,0.7450809478759766,-0.4459185004234314
1761397131845271300,2.438271240234375,-0.4799732267856598,0.4999784827232361,-1.8638477325439453
1761397131864648000,2.45764794921875,-0.7638645172119141,-0.48989951610565186,-1.8349851369857788
1761397131884011300,2.47701123046875,-0.7808154821395874,-1.1738957166671753,-0.8820634484291077
1761397131903401700,2.496401611328125,-0.34482327103614807,-1.063179612159729,-0.10934165865182877
1761397131922778600,2.515778564453125,0.07101099193096161,-0.4524851143360138,0.11209046840667725
1761397131942142000,2.535141845703125,0.23212195932865143,0.11285403370857239,0.03420744836330414
1761397131961532200,2.5545322265625,-0.02641914412379265,0.09483403712511063,-0.17684027552604675
1761397131980908800,2.57390869140625,-0.43141087889671326,-0.3258870244026184,-0.40697699785232544
1761397132000272100,2.593272216796875,-0.5615213513374329,-0.4656183123588562,-0.3721587061882019
1761397132019662600,2.61266259765625,-0.5118899941444397,-0.5464028716087341,-0.07024743407964706
1761397132039039500,2.63203955078125,-0.5673243999481201,-0.8727480173110962,0.17989452183246613
1761397132058402800,2.65140283203125,-0.7430956959724426,-1.1247224807739258,0.2919849753379822
1761397132077793000,2.67079296875,-0.6007682681083679,-0.5650337338447571,0.3946073353290558
1761397132097170000,2.690169921875,-0.2585411071777344,-0.008399149402976036,-0.013744063675403595
1761397132116533200,2.709533203125,-0.7363763451576233,-1.3137797117233276,-1.276059865951538
1761397132135923500,2.72892333984375,-0.9411629438400269,-0.7966975569725037,-0.8518264889717102
1761397132155300400,2.74830029296875,-0.34665581583976746,0.8762603998184204,0.8641961812973022
1761397132174663700,2.76766357421875,0.4480564594268799,0.9894198179244995,2.071993827819824
1761397132194054000,2.787053955078125,0.3736858069896698,0.30786702036857605,2.0148797035217285
1761397132213430800,2.8064306640625,-0.2611372172832489,-0.14003673195838928,1.1158652305603027
1761397132232794000,2.825794189453125,-0.36009445786476135,0.43141087889671326,-0.09743013978004456
1761397132252184300,2.845184326171875,-0.2411319613456726,0.8921424150466919,-1.181836724281311
1761397132271561200,2.864561279296875,-0.2160872220993042,0.5512896776199341,-1.6731106042861938
1761397132290924500,2.883924560546875,-0.07101099193096161,-0.32878854870796204,-1.047144889831543
1761397132310314800,2.903314697265625,0.10720369219779968,-0.7125533223152161,0.1250709742307663
1761397132329691600,2.922691650390625,-0.08246438205242157,-0.8211314082145691,0.7828007340431213
1761397132349055000,2.942054931640625,-0.603975236415863,-0.7114843726158142,0.9402466416358948
1761397132368445200,2.961445068359375,-1.019962191581726,-0.5118899941444397,0.6716265678405762
1761397132387822000,2.980822021484375,-1.2343696355819702,-0.2360924631357193,0.21883602440357208
1761397132407185400,3.000185302734375,-1.2128372192382812,0.07574506103992462,-0.20096874237060547
1761397132426575600,3.01957568359375,-1.0017894506454468,-0.05085303261876106,-0.2990097403526306
1761397132445952500,3.038952392578125,-0.9442171454429626,-0.5474718809127808,-0.1907370537519455
1761397132465315800,3.05831591796875,-0.992168664932251,-1.0208784341812134,-0.05512896552681923
1761397132484706000,3.0777060546875,-0.660936713218689,-1.011104941368103,0.3662029206752777
1761397132504083000,3.0970830078125,-0.13652436435222626,-0.5544965863227844,1.1810731887817383
1761397132523446300,3.1164462890625,-0.3465031087398529,-1.238034725189209,1.1019684076309204
1761397132542836700,3.135836669921875,-0.7423321604728699,-2.6620724201202393,-0.7718055248260498
1761397132562213400,3.15521337890625,-1.0071344375610352,-1.307365894317627,-2.9050369262695312
1761397132581576700,3.17457666015625,-0.4975350797176361,2.227912664413452,-2.1452956199645996
1761397132600967200,3.19396728515625,0.9999569654464722,2.725600481033325,-0.6065713167190552
1761397132620343800,3.21334375,1.6941848993301392,0.5838172435760498,0.24006296694278717
1761397132639707100,3.23270703125,1.1013575792312622,-1.4539692401885986,0.14186927676200867
1761397132659097600,3.25209765625,0.36284327507019043,-1.652036428451538,-0.48638713359832764
1761397132678474200,3.27147412109375,-0.0978882759809494,-0.638640820980072,-1.2661336660385132
1761397132697837600,3.290837646484375,-0.3232909142971039,0.4818057715892792,-1.3748644590377808
1761397132717228000,3.31022802734375,-0.24662958085536957,0.7873821258544922,-0.5835118293762207
1761397132736604700,3.329604736328125,-0.2576248347759247,0.399952232837677,0.37383851408958435
1761397132755968000,3.348968017578125,-0.3752129375934601,-0.0068720318377017975,0.8266290426254272
1761397132775358500,3.3683583984375,-0.6384881138801575,-0.296108216047287,0.5175403356552124
1761397132794735000,3.387735107421875,-0.9011524319648743,-0.1441599577665329,-0.08964183181524277
1761397132814098400,3.407098388671875,-0.8770239353179932,0.2707580327987671,-0.31855684518814087
1761397132833489000,3.426489013671875,-0.7424848675727844,0.3020639717578888,-0.13423368334770203
1761397132852865500,3.445865478515625,-0.731184184551239,-0.07085828483104706,0.0050394898280501366
1761397132872228900,3.465228759765625,-0.777303159236908,-0.6555918455123901,0.15714046359062195
1761397132891619300,3.484619384765625,-0.8238802552223206,-0.8693883419036865,0.5277720093727112
1761397132910996200,3.503996337890625,-0.7757760286331177,-0.4756973087787628,0.6316160559654236
1761397132930359600,3.523359619140625,-0.36360684037208557,-0.492495596408844,0.12858334183692932
1761397132949749800,3.542749755859375,-0.4181249439716339,-1.353790283203125,-1.052947998046875
1761397132969126700,3.562126708984375,-0.92711341381073,-0.34482327103614807,-1.6065282821655273
1761397132988489700,3.58148974609375,-0.8012788891792297,0.9492566585540771,-1.064706802368164
1761397133007880200,3.600880126953125,-0.050547610968351364,0.6432221531867981,-0.08078455179929733
1761397133027257000,3.620257080078125,0.275186687707901,-0.22967857122421265,0.9237537384033203
1761397133046620400,3.639620361328125,0.0859767496585846,-1.2172658443450928,1.4507622718811035
1761397133066010600,3.6590107421875,0.1560714691877365,-1.9988449811935425,1.014006495475769
1761397133085387500,3.678387451171875,0.36131614446640015,-2.2063803672790527,0.35505497455596924
1761397133104750800,3.697750732421875,0.23441264033317566,-1.69387948513031,-0.18676654994487762
1761397133124141000,3.71714111328125,-0.14049486815929413,-0.7731798887252808,-0.8348754644393921
1761397133143518000,3.73651806640625,-0.40331190824508667,0.19272230565547943,-1.4817627668380737
1761397133162881300,3.75588134765625,-0.5523586273193359,0.5625903010368347,-1.877744436264038
1761397133182271500,3.775271484375,-0.46073153614997864,0.38162681460380554,-1.621646761894226
1761397133201648400,3.7946484375,-0.3086305856704712,-0.13866232335567474,-0.6803311109542847
1761397133221011700,3.81401171875,-0.38849884271621704,-0.8541171550750732,0.37689274549484253
1761397133240402000,3.83340185546875,-0.7879929542541504,-0.6038225293159485,0.6810947060585022
1761397133259778800,3.85277880859375,-0.9399412274360657,0.04703523963689804,0.4750864505767822
1761397133279142100,3.87214208984375,-0.7114843726158142,0.26938363909721375,0.007941014133393764
1761397133298532400,3.891532470703125,0.023823043331503868,0.4065188467502594,0.11254860460758209
1761397133317909200,3.9109091796875,0.388651579618454,1.0437852144241333,0.06459710001945496
1761397133337272600,3.9302724609375,0.2079934924840927,0.5221216678619385,-1.3131688833236694
1761397133356662800,3.949662841796875,-0.6337540149688721,-1.4635900259017944,-1.4157912731170654
1761397133376039700,3.969039794921875,-1.1233481168746948,-0.07360709458589554,-0.337798535823822
1761397133395403000,3.988403076171875,-0.3239017724990845,1.1178505420684814,0.045202698558568954
1761397133414793200,4.007793212890625,-0.2354816198348999,0.12278030067682266,0.4731011986732483
1761397133434170000,4.027170166015625,-0.8176190853118896,-1.229330062866211,0.70308518409729
1761397133453533400,4.046533447265625,-0.9152019023895264,-1.4842060804367065,0.029473381116986275
1761397133472924000,4.065923828125,-1.035386085510254,-0.9084826111793518,-0.6455128192901611
1761397133492300500,4.085300537109375,-1.3513468503952026,-0.695907711982727,-0.6308525204658508
1761397133511663900,4.104663818359375,-1.5489559173583984,-0.9704836010932922,-0.429883748292923
1761397133531054300,4.124054443359375,-1.6831896305084229,-1.2559019327163696,-0.14889401197433472
1761397133550431000,4.143430908203125,-1.6914360523223877,-1.0265288352966309,0.27091076970100403
1761397133569794300,4.162794189453125,-1.4936742782592773,-0.4868452548980713,0.6424586176872253
1761397133589184800,4.182184814453125,-1.2542221546173096,-0.08780929446220398,0.7786775231361389
1761397133608561400,4.2015615234375,-1.152668833732605,-0.0975828468799591,0.681858241558075
1761397133627938300,4.220938232421875,-1.2748382091522217,-0.4318690001964569,0.4871506989002228
1761397133647315200,4.240315185546875,-1.4478607177734375,-0.6155813336372375,0.2695363461971283
1761397133666691800,4.25969189453125,-1.5509412288665771,-0.5943543910980225,0.3706315755844116
1761397133686055200,4.27905517578125,-1.6221048831939697,-0.5700731873512268,0.8499939441680908
1761397133705445600,4.298445556640625,-1.575222373008728,-0.5381564497947693,0.957503080368042
1761397133724822500,4.317822509765625,-1.3621894121170044,-0.499673068523407,0.5587725043296814
1761397133744185900,4.337185791015625,-1.1790878772735596,-1.2581926584243774,-0.3286358118057251
1761397133763576000,4.356576171875,-1.0680664777755737,-1.1613733768463135,-0.7957812547683716
1761397133782953000,4.375952880859375,-1.0714260339736938,0.02901524491608143,-0.8826742768287659
1761397133802316000,4.39531591796875,-0.7149966955184937,0.8771766424179077,-0.5734328627586365
1761397133821706500,4.41470654296875,-0.24097923934459686,0.6533011198043823,-0.13530266284942627
1761397133841083400,4.43408349609375,-0.23838314414024353,-0.11483928561210632,0.004581354558467865
1761397133860446700,4.45344677734375,-0.32726141810417175,-0.4750864505767822,-0.40544986724853516
1761397133879837000,4.4728369140625,-0.37796175479888916,-0.07925742864608765,-0.9840749502182007
1761397133899213800,4.4922138671875,-0.6114581227302551,0.3229855000972748,-1.1694670915603638
1761397133918577200,4.5115771484375,-0.8955020904541016,0.22463907301425934,-0.864959716796875
1761397133937967400,4.53096728515625,-1.1934428215026855,-0.23212195932865143,-0.2754921019077301
1761397133957344300,4.55034423828125,-1.3997565507888794,-0.5370874404907227,0.33230090141296387
1761397133976707600,4.56970751953125,-1.352568507194519,-0.46851983666419983,0.8458707332611084
1761397133996097800,4.589097900390625,-1.1519051790237427,-0.14583978056907654,1.4098354578018188
1761397134015474700,4.608474609375,-1.0663865804672241,-0.23746687173843384,1.6349326372146606
1761397134034838000,4.627838134765625,-1.1201411485671997,-0.564728319644928,1.2200146913528442
1761397134054228200,4.647228271484375,-1.0237799882888794,-1.3762388229370117,0.4330907166004181
1761397134073605000,4.666605224609375,-0.7134696245193481,-2.5186760425567627,-0.35505497455596924
1761397134092968400,4.685968505859375,-0.36666107177734375,-2.734152317047119,-0.7091936469078064
1761397134112358700,4.705358642578125,-0.39109495282173157,-3.002466917037964,-1.362647533416748
1761397134131735600,4.724735595703125,-0.6368082761764526,-1.7322101593017578,-1.7094560861587524
1761397134151099000,4.744098876953125,-1.093263864517212,1.053253412246704,-0.9761339426040649
1761397134170489000,4.763489013671875,-0.7130114436149597,1.325080394744873,-0.527161180973053
1761397134189866000,4.782865966796875,-0.3834593594074249,0.04978405311703682,-0.06291726976633072
1761397134209229300,4.802229248046875,-0.4844018816947937,-0.1450762301683426,0.34375429153442383
1761397134228619500,4.82161962890625,-0.5946598052978516,0.596492350101471,0.1782146841287613
1761397134247996400,4.840996337890625,-0.6439857482910156,0.9203941226005554,-0.2480039894580841
1761397134267359700,4.86035986328125,-0.8628217577934265,0.6784985661506653,-0.23685602843761444
1761397134286750200,4.879750244140625,-1.1567920446395874,0.1901262104511261,0.03817795217037201
1761397134306126800,4.899126953125,-1.203063726425171,-0.3449759781360626,0.3596363365650177
1761397134325490200,4.918490234375,-1.0214893817901611,-0.7585195899009705,0.881605327129364
1761397134344880600,4.937880615234375,-0.9923213720321655,-1.1410627365112305,1.3501251935958862
1761397134364257300,4.95725732421875,-1.1630531549453735,-1.579803705215454,1.2146698236465454
1761397134383620600,4.97662060546875,-1.326149344444275,-1.8852273225784302,0.46607646346092224
1761397134403011000,4.996010986328125,-1.2114628553390503,-2.0322887897491455,-0.6183301210403442
1761397134422387700,5.0153876953125,-0.9330691695213318,-1.853157877922058,-1.5701829195022583
1761397134441751000,5.0347509765625,-0.9350544214248657,-1.1942063570022583,-1.6106514930725098
1761397134461141500,5.0541416015625,-1.2704095840454102,-0.2279987335205078,-0.9607100486755371
1761397134480518400,5.073518310546875,-1.2249014377593994,-0.712247908115387,-1.1752700805664062
1761397134499881500,5.092881591796875,-0.8926005363464355,-0.8625163435935974,-1.4750434160232544
1761397134519272000,5.11227197265625,-0.39979952573776245,-0.09651386737823486,-0.5891621708869934
1761397134538648800,5.13164892578125,0.0719272643327713,-0.6442911624908447,0.610236406326294
1761397134558012200,5.15101220703125,0.20081603527069092,-1.0430216789245605,1.3035480976104736
1761397134577402400,5.17040234375,-0.09529217332601547,-0.43141087889671326,0.8689302206039429
1761397134596779300,5.189779296875,-0.5155550837516785,0.2927485406398773,-0.06368082761764526
1761397134616142600,5.209142578125,-0.8832851648330688,0.3506263196468353,-0.36131614446640015
1761397134635532800,5.22853271484375,-1.0666919946670532,0.17286977171897888,0.01847812905907631
1761397134654909700,5.24790966796875,-1.0566130876541138,-0.3474193811416626,0.5740436911582947
1761397134674273000,5.26727294921875,-1.1566393375396729,-1.1048699617385864,1.1051753759384155
1761397134693663200,5.286663330078125,-1.4635900259017944,-1.3679924011230469,1.4877184629440308
1761397134713040100,5.3060400390625,-1.6662386655807495,-1.347987174987793,1.4721418619155884
1761397134732403500,5.325403564453125,-1.7054855823516846,-1.2696460485458374,0.9886562824249268
1761397134751793700,5.344793701171875,-1.641957402229309,-1.284153699874878,0.25090551376342773
1761397134771170600,5.364170654296875,-1.5949221849441528,-1.4228159189224243,-0.241742804646492
1761397134790534000,5.383533935546875,-1.5123051404953003,-1.4498459100723267,-0.2802261710166931
1761397134809924000,5.402924072265625,-1.3994510173797607,-1.5878974199295044,-0.5951179265975952
1761397134829301000,5.422301025390625,-1.416249394416809,-1.230857253074646,-1.099066972732544
1761397134848664300,5.441664306640625,-0.9150491952896118,-1.6497457027435303,-1.5541481971740723
1761397134868054500,5.461054443359375,-0.7438592314720154,-3.5392489433288574,-3.1203606128692627
1761397134887431400,5.480431396484375,-0.8985562920570374,-1.8607934713363647,-3.3333935737609863
1761397134906794800,5.499794677734375,-0.5888567566871643,1.2681188583374023,-0.3017585575580597
1761397134926185000,5.51918505859375,-0.1378987729549408,1.4648116827011108,2.3473331928253174
1761397134945561900,5.538561767578125,-0.009620844386518002,1.0283613204956055,3.196410894393921
1761397134964925200,5.55792529296875,-0.3023693859577179,0.7858549952507019,2.279834747314453
1761397134984315600,5.577315673828125,-0.8783983588218689,0.7661551833152771,0.488219678401947
1761397135003692300,5.5966923828125,-1.5510939359664917,0.8200624585151672,-0.9726215600967407
1761397135023055600,5.6160556640625,-1.9515042304992676,0.8916842937469482,-1.5888136625289917
1761397135042445800,5.63544580078125,-1.9687607288360596,1.094791054725647,-1.284153699874878
1761397135061822700,5.65482275390625,-1.6514256000518799,0.9704836010932922,-0.3567348122596741
1761397135081199600,5.67419970703125,-1.3049224615097046,0.09681928902864456,0.7119424939155579
1761397135100576500,5.693576416015625,-1.2224581241607666,-1.2378820180892944,1.3137797117233276
1761397135119953200,5.712953125,-1.2925528287887573,-2.3538999557495117,1.061499834060669
1761397135139316500,5.73231640625,-1.2224581241607666,-2.8285281658172607,0.13117945194244385
1761397135158707000,5.75170703125,-1.0728005170822144,-2.346722364425659,-0.906802773475647
1761397135178083600,5.77108349609375,-1.2372710704803467,-0.9063445925712585,-1.0161443948745728
1761397135197447000,5.790447021484375,-1.423426866531372,0.12720894813537598,-0.07299624383449554
1761397135216837400,5.80983740234375,-1.342336893081665,-1.146865725517273,-0.511431872844696
1761397135236214000,5.829214111328125,-0.9816315174102783,-2.115211248397827,-1.3020209074020386
1761397135255577300,5.848577392578125,-0.47554460167884827,-1.4547327756881714,-0.7301151752471924
1761397135274967800,5.8679677734375,-0.07528692483901978,-0.6806365847587585,0.5908420085906982
1761397135294344700,5.8873447265625,-0.23624517023563385,-0.6258130073547363,1.350888729095459
1761397135313708000,5.9067080078125,-0.6223006248474121,-1.0364550352096558,1.073258638381958
1761397135333098200,5.92609814453125,-0.8191461563110352,-1.2691879272460938,0.2596100866794586
1761397135352475100,5.94547509765625,-0.8470924496650696,-0.9955283403396606,-0.4647020399570465
1761397135371838500,5.96483837890625,-0.9278770089149475,-0.624285876750946,-0.8344173431396484
1761397135391228700,5.984228759765625,-1.1593880653381348,-0.44072631001472473,-0.7421793937683105
1761397135410605600,6.00360546875,-1.349514365196228,-0.27197974920272827,-0.072843536734581
1761397135429969000,6.022968994140625,-1.285833477973938,-0.3258870244026184,0.7243121266365051
1761397135449359000,6.042359130859375,-1.0836430788040161,-0.9214630722999573,0.9843803644180298
1761397135468736000,6.061736083984375,-1.0862390995025635,-1.5700302124023438,0.453095942735672
1761397135488099300,6.081099365234375,-1.3243168592453003,-1.8594191074371338,-0.5613686442375183
1761397135507489500,6.100489501953125,-1.3638691902160645,-1.0747857093811035,-1.2274975776672363
1761397135526866400,6.119866455078125,-1.2271921634674072,-0.06352811306715012,-1.4435847997665405
1761397135546229800,6.139229736328125,-1.4767231941223145,-0.5543438792228699,-1.8716360330581665
1761397135565620000,6.158619873046875,-1.362647533416748,-0.22097399830818176,-1.4301460981369019
1761397135584996900,6.177996826171875,-0.6253548860549927,0.49524441361427307,0.06383354216814041
1761397135604360200,6.197360107421875,0.05482354015111923,-0.2530434727668762,1.093569278717041
1761397135623750400,6.21675048828125,0.2858765125274658,-1.4776395559310913,1.0198094844818115
1761397135643127300,6.236127197265625,0.12461283802986145,-2.1222360134124756,-0.1563768982887268
1761397135662490600,6.25549072265625,-0.12003148347139359,-1.514748454093933,-1.5863703489303589
1761397135681880800,6.274880859375,-0.5508314967155457,-0.656660795211792,-2.371461868286133
1761397135701257700,6.2942578125,-0.9213103652000427,-0.2996205687522888,-1.9591398239135742
1761397135720621000,6.31362109375,-0.9512419104576111,-0.25594499707221985,-0.6439857482910156
1761397135740011500,6.333011474609375,-0.8176190853118896,-0.5077667832374573,0.4205683469772339
1761397135759388200,6.35238818359375,-0.6522321701049805,-0.5651864409446716,1.0294303894042969
1761397135778751500,6.37175146484375,-0.6549809575080872,-0.21120044589042664,1.2907202243804932
1761397135798142000,6.391141845703125,-1.0344698429107666,0.030542362481355667,1.0109522342681885
1761397135817518600,6.4105185546875,-1.4211361408233643,0.2620534598827362,0.5763344168663025
1761397135836882000,6.4298818359375,-1.3473763465881348,0.3042019307613373,0.2742704153060913
1761397135856272400,6.4492724609375,-0.9927794933319092,-0.08735115826129913,0.18600298464298248
1761397135875649000,6.46864892578125,-0.841747522354126,-0.1963873952627182,0.6004628539085388
1761397135895012400,6.488012451171875,-0.7849387526512146,0.013133215717971325,1.4690876007080078
1761397135914402800,6.50740283203125,-0.2730487287044525,-0.6420004963874817,1.6051539182662964
1761397135933779700,6.52677978515625,0.367730051279068,-2.308849811553955,0.47019967436790466
1761397135953143000,6.54614306640625,0.5847335457801819,-4.0456414222717285,-1.2953015565872192
1761397135972533200,6.565533203125,0.21746163070201874,-3.4664053916931152,-2.120403528213501
1761397135991910100,6.58491015625,-0.07391251623630524,-0.5036435723304749,-1.4672551155090332
1761397136011273200,6.604273193359375,0.4819584786891937,1.401283621788025,-0.41766682267189026
1761397136030663700,6.62366357421875,0.7994463443756104,1.0094250440597534,0.14553436636924744
1761397136050040600,6.64304052734375,0.23563432693481445,-0.3104631304740906,0.1751604527235031
1761397136069404000,6.66240380859375,-0.457830011844635,-0.7455390691757202,-0.20127417147159576
1761397136088794000,6.681794189453125,-0.7327113151550293,-0.10934165865182877,-0.5648810267448425
1761397136108171000,6.7011708984375,-0.8101361989974976,0.6294780969619751,-0.7200362086296082
1761397136127534300,6.720534423828125,-0.9400939345359802,0.9955283403396606,-0.4825693368911743
1761397136146924500,6.739924560546875,-1.1402990818023682,0.895349383354187,0.030695075169205666
1761397136166301400,6.759301513671875,-1.3751698732376099,0.5835118293762207,0.5428904891014099
1761397136185664800,6.778664794921875,-1.4907727241516113,0.43293800950050354,0.8629744648933411
1761397136205055000,6.798054931640625,-1.3985347747802734,0.39353835582733154,0.901915967464447
1761397136224431900,6.817431884765625,-1.3672288656234741,0.34604495763778687,0.7356128096580505
1761397136243795200,6.836795166015625,-1.5048222541809082,0.2701472043991089,0.7430956959724426
1761397136263185400,6.856185302734375,-1.7506881952285767,-0.021226942539215088,1.0590564012527466
1761397136282562300,6.875562255859375,-1.6899089813232422,-0.28969430923461914,1.1885560750961304
1761397136301925600,6.894925537109375,-1.3528739213943481,0.07024743407964706,1.1077715158462524
1761397136321315800,6.91431591796875,-1.0841012001037598,-0.23410721123218536,0.5699204802513123
1761397136340692700,6.933692626953125,-1.389830231666565,-2.0083131790161133,-0.8567132949829102
1761397136360056000,6.95305615234375,-1.4901618957519531,-1.7997087240219116,-1.511541485786438
1761397136379446500,6.972446533203125,-0.8428165316581726,0.8736643195152283,-0.5137225389480591
1761397136398823200,6.9918232421875,0.11606097966432571,2.2456271648406982,0.5456393361091614
1761397136418186500,7.0111865234375,0.6328377723693848,1.2375766038894653,0.9040539264678955
1761397136437576700,7.03057666015625,0.31825143098831177,-0.8855758309364319,0.603058934211731
1761397136456953600,7.04995361328125,-0.0456608310341835,-2.0208353996276855,-0.21318569779396057
1761397136476317000,7.06931689453125,0.02870982140302658,-1.6185925006866455,-1.0938746929168701
1761397136495707400,7.088707275390625,-0.06963659077882767,-0.5856497883796692,-1.50589120388031
1761397136515084000,7.108083984375,-0.5137225389480591,0.26342788338661194,-1.2566654682159424
1761397136534447400,7.127447265625,-0.8034168481826782,0.4883723855018616,-0.5622848868370056
1761397136553837800,7.146837890625,-0.8677085041999817,0.17897824943065643,0.24968381226062775
1761397136573214700,7.166214599609375,-0.8748859763145447,-0.19027891755104065,0.8703046441078186
1761397136592577800,7.185577880859375,-1.0534061193466187,-0.4190412163734436,0.9501729011535645
1761397136611968300,7.20496826171875,-1.1800042390823364,-0.53143709897995,0.5882459282875061
1761397136631345000,7.224344970703125,-1.2062705755233765,-0.7140804529190063,0.05375456064939499
1761397136650708200,7.243708251953125,-1.233758807182312,-1.1131163835525513,-0.3110739588737488
1761397136670098700,7.2630986328125,-1.2285665273666382,-1.1981768608093262,-0.2924431264400482
1761397136689475600,7.2824755859375,-1.2299410104751587,-1.0014840364456177,-0.09391776472330093
1761397136708839000,7.3018388671875,-1.0437852144241333,-1.5407094955444336,0.006413896102458239
1761397136728229000,7.32122900390625,-0.6939224600791931,-3.034841775894165,-0.4158342778682709
1761397136747606000,7.34060595703125,-0.587329626083374,-3.326979637145996,-0.6897992491722107
1761397136766982700,7.359982666015625,-0.46638187766075134,-2.2723517417907715,-0.5486935377120972
1761397136786359600,7.379359619140625,-0.14186927676200867,-1.579192876815796,-0.880994439125061
1761397136805736400,7.398736328125,0.3449759781360626,-1.4388507604599,-1.2342169284820557
1761397136825099800,7.418099853515625,0.3912476599216461,-1.7682501077651978,-1.3832635879516602
1761397136844490000,7.437489990234375,0.0036650835536420345,-2.366880416870117,-1.6437900066375732
1761397136863867000,7.456866943359375,-0.4103366434574127,-2.3648951053619385,-1.8956117630004883
1761397136883230200,7.476230224609375,-0.47829338908195496,-1.4515258073806763,-1.5255910158157349
1761397136902620400,7.495620361328125,-0.4515688419342041,-0.16844113171100616,-0.7333221435546875
1761397136921997300,7.514997314453125,-0.6708629727363586,0.6575770974159241,-0.19592925906181335
1761397136941360600,7.534360595703125,-1.0445488691329956,0.8837432861328125,-0.008857285603880882
1761397136960750800,7.553750732421875,-1.4649643898010254,0.5051707029342651,-0.05619794875383377
1761397136980127700,7.573127685546875,-1.724269151687622,-0.013438640162348747,-0.07559234648942947
1761397136999504600,7.592504638671875,-1.8016940355300903,-0.4969242513179779,-0.021532366052269936
1761397137018881500,7.611881591796875,-1.797570824623108,-1.2345223426818848,-0.1325538605451584
1761397137038258200,7.631258056640625,-1.770388126373291,-2.1949269771575928,-0.3301629424095154
1761397137057621500,7.65062158203125,-1.8397191762924194,-2.606332540512085,-0.2426590770483017
1761397137077011700,7.67001171875,-2.277238607406616,-1.732515573501587,0.14996300637722015
1761397137096388600,7.689388671875,-2.4262852668762207,-0.742637574672699,0.3101576864719391
1761397137115752000,7.708751953125,-2.2031733989715576,-0.8495358228683472,-0.05543438717722893
1761397137135142400,7.728142333984375,-1.954253077507019,-1.1407572031021118,-0.28373855352401733
1761397137154519000,7.74751904296875,-1.6595193147659302,-0.6261184215545654,-0.47386476397514343
1761397137173882400,7.76688232421875,-1.4875657558441162,0.5489989519119263,-0.8134958148002625
1761397137193272800,7.78627294921875,-1.187334418296814,1.200467586517334,-1.08074152469635
1761397137212649500,7.8056494140625,-0.6134433746337891,0.92711341381073,-1.0721896886825562
1761397137232026400,7.8250263671875,-0.1304158866405487,0.2695363461971283,-0.9422318935394287
1761397137251403300,7.8444033203125,0.12858334183692932,-0.27350685000419617,-0.8918370008468628
1761397137270780000,7.86377978515625,0.11315945535898209,-0.2858765125274658,-0.8648070096969604
1761397137290143200,7.883143310546875,-0.09972081333398819,0.13973131775856018,-0.7078192830085754
1761397137309533700,7.90253369140625,-0.3405473530292511,0.6723901033401489,-0.5430431962013245
1761397137328910600,7.92191064453125,-0.6436802744865417,0.6667397618293762,-0.5653391480445862
1761397137348274000,7.94127392578125,-0.9539906978607178,0.1238492801785469,-0.5903838872909546
1761397137367664000,7.9606640625,-1.0610417127609253,-0.49203747510910034,-0.4017847776412964
1761397137387041000,7.980041015625,-1.0033166408538818,-0.8684720993041992,-0.04199574887752533
1761397137406404400,7.999404296875,-0.818535327911377,-0.9857547879219055,0.35795649886131287
1761397137425794600,8.018794677734375,-0.7209524512290955,-0.7733326554298401,0.6621584296226501
1761397137445171500,8.03817138671875,-0.7963921427726746,-1.2632321119308472,0.7992936372756958
1761397137464548000,8.057548095703124,-1.1300674676895142,-1.1670236587524414,1.165802001953125
1761397137483925000,8.076925048828125,-1.4371708631515503,-0.5361711978912354,1.3531793355941772
1761397137503302000,8.096302001953125,-1.550635814666748,0.00015271181473508477,1.207645058631897
1761397137522665200,8.115665283203125,-1.5393351316452026,0.44133713841438293,1.1018157005310059
1761397137542055400,8.135055419921875,-1.347987174987793,0.7185090780258179,1.3586770296096802
1761397137561432300,8.154432373046875,-1.0605835914611816,0.5525113344192505,1.673416018486023
1761397137580795600,8.173795654296875,-0.7562289237976074,-0.19883078336715698,1.7618361711502075
1761397137600185900,8.193185791015624,-0.43171629309654236,-1.258345365524292,1.4481661319732666
1761397137619562800,8.212562744140625,-0.47050508856773376,-1.9099667072296143,0.32573428750038147
1761397137638926000,8.231926025390624,-0.6442911624908447,-1.184738278388977,-0.7456917762756348
1761397137658316300,8.25131640625,-0.6482616662979126,0.4491254389286041,-0.8695410490036011
1761397137677693200,8.270693115234375,-0.4656183123588562,1.7196877002716064,-0.4002576768398285
1761397137697056500,8.290056396484376,-0.14202198386192322,1.5231475830078125,-0.32634514570236206
1761397137716446700,8.30944677734375,0.10964708030223846,0.2912214398384094,-0.5645755529403687
1761397137735823600,8.32882373046875,0.20310671627521515,-0.5195255875587463,-0.5932853817939758
1761397137755187000,8.34818701171875,0.11010521650314331,-0.4333961308002472,-0.6655181050300598
1761397137774577400,8.367577392578125,-0.1779092699289322,0.05390727147459984,-0.9938485026359558
1761397137793954000,8.3869541015625,-0.5288410186767578,0.3990359604358673,-1.1960389614105225
1761397137813317400,8.4063173828125,-0.6769714951515198,0.5363239049911499,-0.9888089895248413
1761397137832707800,8.425707763671875,-0.5193728804588318,0.4981459379196167,-0.4146125912666321
1761397137852084500,8.44508447265625,-0.29626092314720154,0.26403874158859253,0.1107160672545433
1761397137871447800,8.46444775390625,-0.27854636311531067,0.14309096336364746,0.4921901822090149
1761397137890838300,8.48383837890625,-0.5030327439308167,-0.013285927474498749,0.7398887276649475
1761397137910215000,8.50321484375,-0.7120952010154724,0.032222192734479904,0.7646280527114868
1761397137929578200,8.522578125,-0.6969767212867737,0.22631891071796417,0.49295374751091003
1761397137948968700,8.54196875,-0.5522059202194214,0.1985253542661667,0.25945737957954407
1761397137968345600,8.561345703125,-0.3993414044380188,0.031153209507465363,0.18844637274742126
1761397137987709000,8.580708984375,-0.22677704691886902,-0.11209046840667725,0.2408265322446823
1761397138007099100,8.60009912109375,0.04184303805232048,-0.09559759497642517,0.5563291311264038
1761397138026476000,8.61947607421875,0.2725905776023865,-0.31565532088279724,1.0782980918884277
1761397138045839000,8.638839111328124,0.3136700689792633,-1.3449329137802124,0.8532009124755859
1761397138065229600,8.6582294921875,0.010995250195264816,-2.7240734100341797,0.00916270911693573
1761397138084606500,8.6776064453125,-0.705681324005127,-2.3444318771362305,-0.7157602906227112
1761397138103969800,8.6969697265625,-0.8168554902076721,-1.0277504920959473,-1.103342890739441
1761397138123360000,8.716360107421876,-0.5694623589515686,-0.197609081864357,-1.1309837102890015
1761397138142737000,8.73573681640625,-1.0410364866256714,-0.07543963938951492,-0.9194778203964233
1761397138162100200,8.755100341796876,-1.0796725749969482,-0.25350162386894226,-0.6108472347259521
1761397138181490400,8.774490478515625,-0.5780141949653625,-0.4289674758911133,-0.587940514087677
1761397138200867300,8.793867431640624,-0.23425991833209991,-0.5320479869842529,-0.5966450572013855
1761397138220230700,8.813230712890626,-0.30313295125961304,-0.21807247400283813,-0.668114185333252
1761397138239620900,8.832620849609375,-0.5322006940841675,0.27320143580436707,-0.7337802648544312
1761397138258997800,8.851997802734376,-0.418430358171463,0.49448084831237793,-0.5312843918800354
1761397138278361000,8.871361083984375,-0.09345962852239609,0.4665345847606659,-0.16523417830467224
1761397138297751300,8.890751220703125,0.18401773273944855,0.42484426498413086,0.22479179501533508
1761397138317128200,8.910128173828125,0.07864658534526825,0.457830011844635,0.46760356426239014
1761397138336491500,8.929491455078125,-0.2880144715309143,0.5500679612159729,0.474475622177124
1761397138355881700,8.9488818359375,-0.5544965863227844,0.4214846193790436,0.416597843170166
1761397138375258600,8.968258544921875,-0.4614951014518738,0.07437065243721008,0.40483900904655457
1761397138394635500,8.987635498046876,-0.1122431829571724,-0.13896775245666504,0.6026008129119873
1761397138414012400,9.007012451171875,-0.20997874438762665,-0.21211670339107513,0.5488462448120117
1761397138433389000,9.02638916015625,-0.656660795211792,-0.004428642801940441,0.23120568692684174
1761397138452752400,9.04575244140625,-0.7440119385719299,0.14217470586299896,0.06322269141674042
1761397138472142600,9.065142578125,-0.478751540184021,0.09391776472330093,0.284654825925827
1761397138491519500,9.08451953125,-0.30252209305763245,-0.18615570664405823,0.559841513633728
1761397138510882800,9.1038828125,-0.2629697322845459,-0.8933641314506531,0.5386145710945129
1761397138530273300,9.123273193359376,-0.4352286756038666,-0.9729269742965698,0.29595550894737244
1761397138549650000,9.14264990234375,-0.5221216678619385,0.251974493265152,-0.06933116167783737
1761397138569013200,9.16201318359375,-0.07406523078680038,0.9713998436927795,-0.07177454978227615
1761397138588403700,9.18140380859375,0.3187095522880554,0.3906368315219879,0.029320668429136276
1761397138607780400,9.2007802734375,0.2686200737953186,-0.41048935055732727,-0.072843536734581
1761397138627143700,9.220143798828126,-0.015576604753732681,-0.7579087615013123,-0.46134239435195923
1761397138646534100,9.2395341796875,-0.017409147694706917,-0.6650599241256714,-0.818535327911377
1761397138665910800,9.258910888671876,0.10216420143842697,-0.6203153729438782,-1.075854778289795
1761397138685274000,9.278274169921875,0.010995250195264816,-0.510515570640564,-1.1525160074234009
1761397138704664600,9.29766455078125,-0.1453816443681717,-0.2596100866794586,-0.8486195802688599
1761397138724041500,9.31704150390625,-0.16172181069850922,-0.06520794332027435,-0.2733541429042816
1761397138743404800,9.33640478515625,-0.17057909071445465,0.06184828653931618,0.22876229882240295
1761397138762795000,9.355794921875,-0.13469181954860687,0.12140589207410812,0.5299099683761597
1761397138782172000,9.375171875,-0.009620844386518002,0.22066856920719147,0.6418477296829224
1761397138801535200,9.39453515625,0.023364907130599022,0.2951919436454773,0.6120689511299133
1761397138820925400,9.413925537109375,-0.03955236077308655,0.23364907503128052,0.5905365943908691
1761397138840302300,9.43330224609375,-0.0925433561205864,0.1588202863931656,0.6423059105873108
1761397138859665700,9.452665771484375,-0.2363978922367096,0.020463382825255394,0.6581879258155823
1761397138879056000,9.472055908203124,-0.3903313875198364,-0.18707197904586792,0.38910970091819763
1761397138898432800,9.491432861328125,-0.2874036431312561,-0.17317520081996918,0.0978882759809494
1761397138917796000,9.510796142578124,-0.036192700266838074,-0.2235700935125351,0.11606097966432571
1761397138937186300,9.530186279296874,0.28908345103263855,-0.7004891037940979,0.17409147322177887
1761397138956563200,9.549563232421875,0.1313321590423584,-2.2373807430267334,-0.33169007301330566
1761397138975926500,9.568926513671874,-0.4960079789161682,-3.1174590587615967,-0.977813720703125
1761397138995316700,9.588316650390626,-0.726908266544342,-1.2435322999954224,-0.9200887084007263
1761397139014693600,9.607693603515624,-0.17225892841815948,0.8475505709648132,-0.49295374751091003
1761397139034057000,9.627056884765626,0.4274403750896454,0.894738495349884,-0.266176700592041
1761397139053447200,9.646447265625,0.5146388411521912,0.37200596928596497,-0.002748812548816204
1761397139072824000,9.665823974609374,0.1895153671503067,0.21379654109477997,0.03634541109204292
1761397139092187400,9.6851875,-0.023212196305394173,0.4527905285358429,-0.2420482337474823
1761397139111577600,9.70457763671875,0.12781979143619537,0.7580614686012268,-0.4366030693054199
1761397139130954500,9.72395458984375,0.3058817684650421,0.7091936469078064,-0.5115845799446106
1761397139150317800,9.74331787109375,0.15026842057704926,0.3840702176094055,-0.4437805414199829
1761397139169708300,9.762708251953125,-0.08307522535324097,0.043981000781059265,-0.11285403370857239
1761397139189085000,9.7820849609375,-0.07421794533729553,-0.14904673397541046,0.39140036702156067
1761397139208448300,9.8014482421875,0.039857782423496246,-0.20280128717422485,0.804791271686554
1761397139227838700,9.820838623046875,0.11682453751564026,-0.24708771705627441,0.9768974781036377
1761397139247215400,9.84021533203125,0.10323318839073181,-0.29091599583625793,0.976439356803894
1761397139266592300,9.85959228515625,-0.15958385169506073,-0.5541911721229553,0.7053758502006531
1761397139285969200,9.87896923828125,-0.24678228795528412,-0.916270911693573,0.15316994488239288
1761397139305345800,9.898345703125,-0.09208522737026215,-1.2502516508102417,-0.44042086601257324
1761397139324709000,9.917709228515625,-0.20738264918327332,-1.015380859375,-0.8075400590896606
1761397139344099600,9.937099609375,-0.48898324370384216,-0.04947862774133682,-0.624896764755249
1761397139363476500,9.9564765625,-0.5596888065338135,-0.06383354216814041,-0.12186402827501297
1761397139382839800,9.97583984375,-0.5760289430618286,-1.277281641960144,-0.14064757525920868
1761397139402230000,9.99522998046875,-0.4618005156517029,-1.061805248260498,-0.6749862432479858
1761397139421606700,10.014606689453124,0.051616594195365906,0.2241809368133545,-0.4805840849876404
1761397139440970200,10.03397021484375,0.5215108394622803,0.548082709312439,0.12736165523529053
1761397139460360400,10.0533603515625,0.5934380888938904,0.31031039357185364,0.6623111367225647
1761397139479737300,10.0727373046875,0.3171824514865875,0.04046862944960594,0.7351546883583069
1761397139499100700,10.0921005859375,-0.20539739727973938,0.1172826737165451,0.26281702518463135
1761397139518491000,10.111490966796875,-0.5911474227905273,0.4990622103214264,-0.4671454429626465
1761397139537867800,10.13086767578125,-0.5799994468688965,0.6273401379585266,-0.8437327742576599
1761397139557231000,10.150231201171875,-0.34696123003959656,0.3877353072166443,-0.6615476012229919
1761397139576621300,10.169621337890625,-0.25655585527420044,0.13499724864959717,-0.36971530318260193
1761397139595998200,10.188998291015626,-0.25350162386894226,0.15652960538864136,-0.05604523420333862
1761397139615361500,10.208361572265625,-0.2880144715309143,0.34879377484321594,0.18218518793582916
1761397139634751700,10.227751708984375,-0.32252734899520874,0.5746545791625977,0.24907296895980835
1761397139654128600,10.247128662109375,-0.26907822489738464,0.4362976551055908,0.2883199155330658
1761397139673505500,10.266505615234376,-0.25747212767601013,0.04978405311703682,0.37704548239707947
1761397139692882200,10.285882080078125,-0.3987305462360382,-0.144465371966362,0.5008947253227234
1761397139712259000,10.305259033203125,-0.5190674662590027,-0.1704263836145401,0.669030487537384
1761397139731622400,10.324622314453125,-0.3642176687717438,-0.3439069986343384,0.9465078115463257
1761397139751012600,10.3440126953125,0.08658760040998459,-0.22845686972141266,1.1131163835525513
1761397139770389500,10.363389404296875,0.3174878656864166,0.26373329758644104,1.229330062866211
1761397139789752800,10.3827529296875,0.09544488787651062,-0.4960079789161682,0.33474430441856384
1761397139809143000,10.40214306640625,0.11468657106161118,-1.0460759401321411,-1.6440954208374023
1761397139828520000,10.42152001953125,0.4100312292575836,0.4039227366447449,-2.523104667663574
1761397139847883300,10.44088330078125,0.4566083252429962,0.7204943299293518,-1.3014100790023804
1761397139867273700,10.460273681640626,0.388651579618454,-0.7626428008079529,0.197609081864357
1761397139886650400,10.479650390625,0.3739912211894989,-1.106244444847107,0.2522799074649811
1761397139906027300,10.49902734375,0.14874130487442017,-0.3599417507648468,-0.6497887969017029
1761397139925404200,10.518404052734375,0.25625041127204895,0.2530434727668762,-0.9785773158073425
1761397139944780800,10.53778076171875,0.5132644176483154,-0.011911521665751934,-0.5946598052978516
1761397139964144000,10.55714404296875,0.20096874237060547,-0.2241809368133545,-0.06719319522380829
1761397139983534600,10.57653466796875,-0.4928010404109955,-0.35383328795433044,-0.12003148347139359
1761397140002911200,10.5959111328125,-0.594507098197937,-0.3264978528022766,-0.12064233422279358
1761397140022274600,10.615274658203125,-0.15775130689144135,0.059710320085287094,0.21593450009822845
1761397140041665000,10.6346650390625,0.15393351018428802,0.02641914412379265,0.43080002069473267
1761397140061041700,10.654041748046875,0.0456608310341835,0.036039989441633224,0.23334364593029022
1761397140080418600,10.67341845703125,-0.16630317270755768,0.11025793105363846,0.13942588865756989
1761397140099795500,10.69279541015625,-0.23196925222873688,0.15286453068256378,0.4049917459487915
1761397140119172400,10.71217236328125,-0.2767138183116913,0.4534013867378235,0.6038225293159485
1761397140138549000,10.731549072265626,-0.2689255177974701,0.49921491742134094,0.8608365058898926
1761397140157926000,10.75092578125,-0.2722851634025574,0.41507071256637573,1.159998893737793
1761397140177302800,10.770302734375,-0.4527905285358429,0.45615020394325256,1.2329951524734497
1761397140196666000,10.789666015625,-0.488219678401947,0.16004198789596558,1.366618037223816
1761397140216056300,10.809056396484374,-0.48455458879470825,-0.14690876007080078,1.3605095148086548
1761397140235433200,10.82843310546875,-0.7493568658828735,-0.46638187766075134,1.090820550918579
1761397140254796500,10.847796630859374,-1.0072871446609497,-0.4088095426559448,0.38636088371276855
1761397140274186800,10.867186767578126,-1.068982720375061,0.0850604772567749,-0.5450284481048584
1761397140293563600,10.886563720703125,-1.048366665840149,-0.14156384766101837,-1.5582714080810547
1761397140312927000,10.905927001953126,-0.6113054156303406,-0.6087092757225037,-1.2444485425949097
1761397140332317200,10.925317138671875,-0.4805840849876404,-0.46989426016807556,0.31534990668296814
1761397140351694000,10.944694091796874,-0.8428165316581726,-0.4158342778682709,1.1169341802597046
1761397140371057400,10.964057373046876,-0.6977402567863464,-0.3837648034095764,0.869235634803772
