time,seconds_elapsed,z,y,x
1761397405339862000,0.232862060546875,0.2779073715209961,0.028482913970947266,0.2145402431488037
1761397405359239000,0.252239013671875,0.3250617980957031,0.05017709732055664,0.0942763090133667
1761397405378615800,0.27161572265625,0.1011800765991211,0.15321636199951172,0.14099812507629395
1761397405397992700,0.29099267578125,-0.4720015525817871,0.23688745498657227,0.07467913627624512
1761397405417369600,0.31036962890625,-0.5695347785949707,0.24535799026489258,-0.2242276668548584
1761397405436746500,0.32974658203125,-0.34784841537475586,0.30539941787719727,-0.4188961982727051
1761397405456123400,0.349123291015625,0.09443378448486328,0.39748525619506836,-0.10357260704040527
1761397405475500300,0.368500244140625,0.5114355087280273,0.25459861755371094,0.4882822036743164
1761397405494877200,0.387877197265625,0.5417366027832031,0.2426142692565918,0.1835728883743286
1761397405514254000,0.407254150390625,0.08661556243896484,0.2967109680175781,-0.2863430976867676
1761397405533631200,0.42663134765625,-0.2394251823425293,0.3167085647583008,-0.25707268714904785
1761397405553008000,0.446008056640625,0.049729347229003906,0.1912369728088379,-0.06319034099578857
1761397405572385000,0.465385009765625,0.26578330993652344,0.18637895584106445,0.16570007801055908
1761397405591762000,0.484761962890625,0.2168416976928711,0.08514881134033203,0.5181331634521484
1761397405611138800,0.504138916015625,0.1616077423095703,0.23924589157104492,0.4927452802658081
1761397405630515700,0.523515625,0.32480525970458984,0.06760787963867188,0.37492072582244873
1761397405649892600,0.542892578125,0.3363180160522461,0.10977363586425781,0.3125119209289551
1761397405669269500,0.56226953125,-0.06124114990234375,0.22457027435302734,0.8137520551681519
1761397405688646400,0.581646484375,-0.6764888763427734,0.3887805938720703,0.9414838552474976
1761397405708023300,0.601023193359375,-0.26279163360595703,0.2523941993713379,0.634304404258728
1761397405727400200,0.620400146484375,0.6948347091674805,0.019130706787109375,0.41637611389160156
1761397405746777000,0.639777099609375,0.49516963958740234,-0.3294248580932617,0.7326222658157349
1761397405766154000,0.659154052734375,-0.38034629821777344,-0.35544252395629883,0.6934286952018738
1761397405785531100,0.67853125,-0.9877324104309082,-0.674710750579834,0.36312294006347656
1761397405804908000,0.697907958984375,-0.8671875,-0.9606766700744629,-0.020663976669311523
1761397405824285000,0.717284912109375,-0.24536800384521484,-0.8658456802368164,-0.6263524293899536
1761397405843661800,0.736661865234375,-0.998448371887207,-0.7338085174560547,-0.1534053087234497
1761397405863038700,0.756038818359375,-2.2418265342712402,-0.9820513725280762,0.010684490203857422
1761397405882415600,0.77541552734375,-4.939175128936768,-1.5215911865234375,-0.892500638961792
1761397405901779000,0.794779052734375,-6.723996639251709,-1.7853670120239258,-0.42904651165008545
1761397405921169400,0.81416943359375,-4.521648406982422,-0.15599489212036133,-0.9059231281280518
1761397405940546300,0.83354638671875,-3.487602710723877,0.6965889930725098,-1.1882054805755615
1761397405959909600,0.85290966796875,-3.184473991394043,0.5744161605834961,-0.8036068677902222
1761397405979300000,0.872300048828125,-0.8893413543701172,-1.0723800659179688,-1.4928195476531982
1761397405998677000,0.891677001953125,6.112541198730469,1.7662220001220703,-2.143505334854126
1761397406018040600,0.91104052734375,6.364828109741211,2.282543659210205,1.2237602472305298
1761397406037431000,0.93043115234375,7.906009674072266,4.1353325843811035,0.30038273334503174
1761397406056807700,0.9498076171875,12.197565078735352,4.138245582580566,-2.7346460819244385
1761397406076171300,0.969171142578125,8.601286888122559,3.453522205352783,-3.9477100372314453
1761397406095561700,0.988561767578125,5.814769744873047,3.6472153663635254,-3.4972777366638184
1761397406114938600,1.007938720703125,4.085296630859375,3.0271382331848145,-1.3551685810089111
1761397406134302000,1.027302001953125,5.322897911071777,1.5646581649780273,0.27440333366394043
1761397406153692400,1.0466923828125,5.8390278816223145,-0.5779247283935547,0.8148493766784668
1761397406173069300,1.0660693359375,8.829346656799316,-1.396204948425293,0.6527576446533203
1761397406192432600,1.0854326171875,4.0879669189453125,-2.5272083282470703,2.0766234397888184
1761397406211823000,1.104822998046875,0.016448974609375,-2.6954753398895264,5.599060535430908
1761397406231200000,1.124199951171875,-0.9319849014282227,-2.5557937622070312,5.674991607666016
1761397406250563600,1.1435634765625,-2.4025678634643555,-3.3825299739837646,4.7841925621032715
1761397406269953800,1.162953857421875,-6.038966178894043,-3.7811694145202637,6.231843948364258
1761397406289331000,1.1823310546875,-6.7837443351745605,-3.7864058017730713,4.1615753173828125
1761397406308694300,1.2016943359375,-8.603745460510254,-5.311107158660889,3.349832057952881
1761397406328084700,1.221084716796875,-8.357379913330078,-5.751843452453613,0.6701931953430176
1761397406347461600,1.240461669921875,-8.011877059936523,-5.708592414855957,-0.18656793236732483
1761397406366838500,1.259838623046875,-7.899442672729492,-6.3102946281433105,-0.11843287944793701
1761397406386215400,1.27921533203125,-6.676908493041992,-6.436512470245361,-0.8148549795150757
1761397406405592300,1.29859228515625,-6.632151126861572,-5.685868263244629,-0.8669843673706055
1761397406424969200,1.31796923828125,-7.423934459686279,-6.307960033416748,0.7667903900146484
1761397406444346000,1.33734619140625,-6.557621955871582,-4.349103927612305,-3.972956657409668
1761397406463723000,1.356722900390625,-2.694934844970703,-1.3023467063903809,-9.226858139038086
1761397406483086300,1.37608642578125,0.14666509628295898,0.8025627136230469,-9.452607154846191
1761397406502476800,1.395476806640625,3.8697519302368164,7.51314640045166,-13.127540588378906
1761397406521853700,1.414853759765625,13.465410232543945,10.802968978881836,-6.059510707855225
1761397406541217300,1.43421728515625,26.206615447998047,9.681797981262207,7.5774993896484375
1761397406560607700,1.453607666015625,28.343111038208008,6.720158576965332,11.731300354003906
1761397406579984600,1.472984619140625,21.067338943481445,5.268145561218262,5.334644317626953
1761397406599348000,1.492347900390625,11.348352432250977,3.175530433654785,0.7749100923538208
1761397406618738400,1.511738525390625,3.7699737548828125,0.5887823104858398,0.9661821126937866
1761397406638115300,1.531115234375,-1.9304752349853516,-1.4727725982666016,0.7259631156921387
1761397406657478700,1.550478759765625,-5.63904333114624,-3.492619276046753,1.0251481533050537
1761397406676869000,1.569869140625,-7.211700916290283,-5.5073137283325195,1.2710665464401245
1761397406696246000,1.58924609375,-7.9660797119140625,-6.790182113647461,1.211121678352356
1761397406715609300,1.608609375,-7.948134422302246,-7.630491256713867,1.5892220735549927
1761397406734999800,1.627999755859375,-7.274635314941406,-7.874109268188477,1.045332431793213
1761397406754376700,1.647376708984375,-8.340316772460938,-8.148795127868652,0.5742378234863281
1761397406773740300,1.666740234375,-11.300553321838379,-8.491581916809082,-0.6142856478691101
1761397406793130500,1.686130615234375,-14.910261154174805,-8.669998168945312,-1.722111463546753
1761397406812507600,1.705507568359375,-16.862573623657227,-8.15783977508545,-1.8834525346755981
1761397406831884500,1.724884521484375,-16.44694709777832,-6.968361854553223,-1.5292351245880127
1761397406851261400,1.744261474609375,-11.57562255859375,-5.272095203399658,-0.5091665983200073
1761397406870638300,1.763638427734375,-2.680133819580078,-0.7204799652099609,-1.4783047437667847
1761397406890001700,1.783001708984375,9.506185531616211,5.5157904624938965,-3.7129106521606445
1761397406909392100,1.80239208984375,22.856487274169922,6.2089433670043945,1.924330711364746
1761397406928769000,1.82176904296875,28.744487762451172,7.839736461639404,6.308803558349609
1761397406948132600,1.841132568359375,30.278480529785156,7.671971797943115,15.456098556518555
1761397406967522800,1.860522705078125,20.501075744628906,7.417443752288818,21.207763671875
1761397406986899700,1.879899658203125,6.108314514160156,7.200888156890869,15.15689468383789
1761397407006263300,1.89926318359375,-2.443974018096924,5.70846700668335,8.341079711914062
1761397407025653800,1.91865380859375,-5.46634578704834,3.788010597229004,4.157430171966553
1761397407045030700,1.93803076171875,-4.79301118850708,0.7473769187927246,1.0055103302001953
1761397407064394000,1.95739404296875,-5.762389183044434,-2.8041110038757324,-1.818251132965088
1761397407083784400,1.976784423828125,-7.331802845001221,-5.6252055168151855,-4.08740234375
1761397407103161300,1.996161376953125,-5.746536731719971,-7.654411315917969,-6.018136978149414
1761397407122524700,2.015524658203125,-4.075372219085693,-8.623032569885254,-7.590827941894531
1761397407141915100,2.0349150390625,-5.191233158111572,-9.297062873840332,-10.294414520263672
1761397407161292000,2.0542919921875,-7.5662617683410645,-9.029496192932129,-11.929191589355469
1761397407180655600,2.073655517578125,-9.378328323364258,-7.662120819091797,-11.483602523803711
1761397407200045800,2.0930458984375,-10.586227416992188,-6.07651948928833,-10.143985748291016
1761397407219422700,2.112422607421875,-11.928812026977539,-3.325878620147705,-9.150930404663086
1761397407238786300,2.131786376953125,-12.91750717163086,0.23644256591796875,-8.90156364440918
1761397407258176800,2.1511767578125,-8.291009902954102,5.932003974914551,-8.206470489501953
1761397407277553700,2.1705537109375,6.9618659019470215,13.465630531311035,-3.8889970779418945
1761397407296917000,2.1899169921875,32.48088455200195,16.661882400512695,8.110244750976562
1761397407316307500,2.209307373046875,42.26930618286133,13.900465965270996,15.32794189453125
1761397407335684400,2.228684326171875,28.471006393432617,9.491884231567383,19.459672927856445
1761397407355047700,2.248047607421875,12.745626449584961,4.61480188369751,17.963668823242188
1761397407374438100,2.267438232421875,1.511652946472168,1.6157922744750977,8.199065208435059
1761397407393815000,2.28681494140625,-1.6929993629455566,-0.4592247009277344,-1.0782761573791504
1761397407413178400,2.306178466796875,1.3799552917480469,-2.8860154151916504,-5.438789367675781
1761397407432568800,2.32556884765625,0.238250732421875,-4.771552085876465,-3.602837085723877
1761397407451945700,2.34494580078125,-5.21425724029541,-5.85165548324585,0.6064453125
1761397407471309300,2.364309326171875,-10.139100074768066,-7.184549808502197,1.9557071924209595
1761397407490699800,2.38369970703125,-14.240495681762695,-9.167648315429688,0.16527414321899414
1761397407510076700,2.40307666015625,-16.699481964111328,-10.999160766601562,-0.3418060541152954
1761397407529440000,2.42243994140625,-17.514482498168945,-11.252777099609375,-1.4466251134872437
1761397407548830500,2.44183056640625,-16.66154670715332,-12.255414009094238,-1.9076181650161743
1761397407568207400,2.461207275390625,-13.101564407348633,-13.092216491699219,-2.176647186279297
1761397407587570700,2.48057080078125,-9.471229553222656,-12.633223533630371,-4.075823783874512
1761397407606961200,2.499961181640625,-7.932183742523193,-11.677377700805664,-5.046839237213135
1761397407626338000,2.519338134765625,-8.372167587280273,-10.258313179016113,-4.6572980880737305
1761397407645701600,2.53870166015625,-9.562361717224121,-8.519590377807617,-2.69461989402771
1761397407665091800,2.558091796875,-7.369200706481934,-5.745032787322998,1.8078149557113647
1761397407684469000,2.577468994140625,1.5180225372314453,-1.3918259143829346,4.945161819458008
1761397407703832300,2.596832275390625,15.821375846862793,5.922290325164795,8.004502296447754
1761397407723222800,2.616222900390625,29.763671875,11.328760147094727,17.980749130249023
1761397407742599700,2.635599609375,36.61443328857422,12.321138381958008,25.192367553710938
1761397407761963000,2.654962890625,31.287254333496094,11.099958419799805,23.073060989379883
1761397407781353500,2.674353515625,15.719356536865234,10.434884071350098,9.706232070922852
1761397407800730400,2.69373046875,5.354374885559082,8.99558162689209,0.8039126396179199
1761397407820094000,2.713093994140625,3.6273298263549805,5.799079895019531,-1.536789894104004
1761397407839484200,2.732484130859375,1.6711297035217285,2.373831272125244,-2.67726731300354
1761397407858861000,2.751861083984375,-2.6540980339050293,-0.10053491592407227,-4.580672264099121
1761397407878224600,2.771224609375,-5.737320899963379,-1.9037415981292725,-5.659834861755371
1761397407897615000,2.790614990234375,-7.164926528930664,-3.4611237049102783,-6.914795398712158
1761397407916992000,2.809991943359375,-7.258655548095703,-4.207939624786377,-7.67701530456543
1761397407936355300,2.829355224609375,-7.1531524658203125,-4.284582138061523,-6.505694389343262
1761397407955745800,2.848745849609375,-5.834929466247559,-4.6330952644348145,-4.09981632232666
1761397407975122700,2.868122802734375,-5.207487106323242,-4.171564102172852,-4.01179313659668
1761397407994486000,2.887486083984375,-6.825872421264648,-3.9852468967437744,-4.357023239135742
1761397408013876500,2.90687646484375,-8.523174285888672,-3.6456797122955322,-3.231961965560913
1761397408033253400,2.92625341796875,-7.200710296630859,-2.4390652179718018,-1.3177956342697144
1761397408052617000,2.945616943359375,-3.1247057914733887,-0.8288297653198242,0.8335921764373779
1761397408072007200,2.965007080078125,0.20219135284423828,1.5908856391906738,1.9550554752349854
1761397408091384300,2.98438427734375,2.4558773040771484,6.200071811676025,-0.2982146739959717
1761397408110747600,3.00374755859375,7.606902122497559,10.249320030212402,0.17558813095092773
1761397408130138000,3.02313818359375,14.908044815063477,9.583733558654785,5.417688369750977
1761397408149515000,3.042514892578125,20.030765533447266,7.1976213455200195,4.811466217041016
1761397408168878300,3.06187841796875,15.425872802734375,6.06603479385376,0.24507689476013184
1761397408188268800,3.081268798828125,8.255146026611328,4.837806701660156,-0.9246492981910706
1761397408207645700,3.100645751953125,3.758664608001709,2.320894718170166,-0.22840464115142822
1761397408227009300,3.12000927734375,1.7360496520996094,-0.7309370040893555,2.0306034088134766
1761397408246399500,3.1393994140625,-0.3675384521484375,-2.782731056213379,5.634021759033203
1761397408265776400,3.1587763671875,-5.758846759796143,-4.686400890350342,6.705107688903809
1761397408285140000,3.178139892578125,-10.545659065246582,-7.175245761871338,6.097965240478516
1761397408304530400,3.197530517578125,-12.079761505126953,-10.780033111572266,6.703855514526367
1761397408323907300,3.2169072265625,-10.82276725769043,-13.459220886230469,6.204519748687744
1761397408343270700,3.236270751953125,-10.054693222045898,-14.521504402160645,3.537400722503662
1761397408362661000,3.2556611328125,-11.305774688720703,-13.531429290771484,0.9560198783874512
1761397408382038000,3.2750380859375,-11.934219360351562,-12.405035018920898,0.30694812536239624
1761397408401401300,3.2944013671875,-11.549558639526367,-9.747703552246094,-1.7936241626739502
1761397408420791800,3.313791748046875,-10.307613372802734,-5.503196716308594,-2.6780710220336914
1761397408440168700,3.333168701171875,-5.122817516326904,-0.47843408584594727,-3.840559959411621
1761397408459532300,3.3525322265625,2.4111785888671875,6.347535133361816,-7.106952667236328
1761397408478922800,3.3719228515625,13.998246192932129,11.032341003417969,-4.768851280212402
1761397408498299600,3.391299560546875,21.37631607055664,11.311041831970215,-0.4328368008136749
1761397408517663000,3.4106630859375,22.213542938232422,8.953664779663086,3.4312145709991455
1761397408537053400,3.430053466796875,21.687397003173828,6.438574314117432,3.102663516998291
1761397408556430300,3.449430419921875,16.540843963623047,5.595229148864746,-1.0276488065719604
1761397408575793700,3.468793701171875,7.856292247772217,5.464657306671143,-2.97879695892334
1761397408595184000,3.48818408203125,0.07532739639282227,4.744924068450928,-0.9439113736152649
1761397408614561000,3.50756103515625,-5.7329535484313965,3.0413427352905273,0.8026573657989502
1761397408633924600,3.526924560546875,-8.108489990234375,0.7203612327575684,0.1704530119895935
1761397408653314800,3.546314697265625,-7.142341136932373,-2.746753215789795,0.7180481553077698
1761397408672692000,3.56569189453125,-5.080051422119141,-5.613343715667725,1.3077900409698486
1761397408692055300,3.58505517578125,-4.619315147399902,-7.4885478019714355,1.2798101902008057
1761397408711445800,3.60444580078125,-4.637449741363525,-8.70796012878418,1.909582495689392
1761397408730822700,3.62382275390625,-4.089851379394531,-8.763461112976074,1.5291776657104492
1761397408750199600,3.643199462890625,-4.036282539367676,-8.32470989227295,1.7204046249389648
1761397408769576400,3.662576416015625,-5.419590950012207,-7.033019065856934,1.6939806938171387
1761397408788953300,3.681953369140625,-5.188985824584961,-5.230072975158691,0.6122593283653259
1761397408808317000,3.70131689453125,-4.7805328369140625,-1.8810296058654785,-0.35918664932250977
1761397408827707100,3.72070703125,-3.163255453109741,0.9115819931030273,0.6863489151000977
1761397408847084000,3.740083984375,0.995938777923584,3.3280692100524902,-0.40141773223876953
1761397408866447600,3.759447509765625,4.3288893699646,6.688363075256348,-4.069484710693359
1761397408885838000,3.778838134765625,3.747346878051758,7.132643699645996,-3.754552125930786
1761397408905215000,3.798215087890625,2.335598945617676,6.652567386627197,-2.649620532989502
1761397408924578300,3.817578369140625,5.904824256896973,6.083305835723877,-1.3747472763061523
1761397408943968800,3.83696875,8.429827690124512,4.985844612121582,-1.2771828174591064
1761397408963345700,3.856345703125,9.40443229675293,3.614379405975342,-1.2478464841842651
1761397408982709200,3.875709228515625,5.2563347816467285,2.4640283584594727,0.14558137953281403
1761397409002099500,3.895099365234375,-3.4569990634918213,0.4801640510559082,2.4399256706237793
1761397409021476600,3.9144765625,-7.037542343139648,-2.531369209289551,3.305668592453003
1761397409040840000,3.93383984375,-4.960596084594727,-5.761136531829834,2.41410493850708
1761397409060230400,3.95323046875,-1.2925105094909668,-6.785515785217285,-0.46846795082092285
1761397409079607300,3.972607177734375,-1.3127002716064453,-5.743390083312988,-1.8676248788833618
1761397409098970600,3.991970703125,-4.109060287475586,-5.788110733032227,-0.9506109356880188
1761397409118361000,4.011361083984375,-5.492911338806152,-5.6824140548706055,0.5834622979164124
1761397409137738000,4.030738037109375,-6.044646263122559,-4.628697872161865,1.74324631690979
1761397409157115000,4.050114990234375,-5.960239410400391,-5.319708824157715,1.678501844406128
1761397409176491800,4.06949169921875,-4.904393672943115,-4.959745407104492,1.1010193824768066
1761397409195868700,4.08886865234375,-5.238590240478516,-3.2935452461242676,0.9791281223297119
1761397409215232300,4.108232177734375,-2.5750136375427246,-0.5126924514770508,0.3377712368965149
1761397409234622700,4.127622802734375,2.6645779609680176,2.7959938049316406,-0.506615400314331
1761397409253999600,4.14699951171875,3.352295398712158,5.466444969177246,-1.6230008602142334
1761397409273363000,4.166363037109375,0.8013253211975098,7.591071605682373,-1.5585203170776367
1761397409292753400,4.18575341796875,1.5679588317871094,8.625433921813965,-2.264270305633545
1761397409312130300,4.20513037109375,7.286305904388428,7.341357231140137,-3.4737417697906494
1761397409331493600,4.22449365234375,14.510276794433594,5.171328544616699,-2.5860939025878906
1761397409350884000,4.243884033203125,19.963930130004883,2.0332746505737305,1.2381865978240967
1761397409370261200,4.26326123046875,13.719114303588867,0.6234025955200195,5.360805988311768
1761397409389624600,4.28262451171875,1.6820306777954102,0.2694110870361328,7.551729679107666
1761397409409015000,4.30201513671875,-5.798186779022217,1.0353193283081055,4.943971633911133
1761397409428392000,4.321391845703125,-6.980082035064697,1.3793449401855469,1.19784677028656
1761397409447755300,4.34075537109375,-6.53782320022583,1.0131893157958984,-1.0786125659942627
1761397409467145700,4.360145751953125,-5.145999908447266,0.6766657829284668,-1.8117378950119019
1761397409486522600,4.379522705078125,-3.034976005554199,-1.019399642944336,0.48141035437583923
1761397409505886200,4.39888623046875,-0.7928733825683594,-2.07791805267334,1.4198487997055054
1761397409525276400,4.4182763671875,-0.22303009033203125,-3.0840044021606445,1.4490485191345215
1761397409544653300,4.4376533203125,-1.8163871765136719,-4.242112159729004,2.006507158279419
1761397409564017000,4.457016845703125,-2.864976406097412,-5.05805778503418,2.230398178100586
1761397409583407400,4.476407470703125,-2.423959255218506,-5.956191062927246,1.8174991607666016
1761397409602784300,4.4957841796875,-2.701828956604004,-6.238429069519043,0.7384007573127747
1761397409622147600,4.515147705078125,-4.258694648742676,-5.862317085266113,-0.22371643781661987
1761397409641538000,4.5345380859375,-4.702944278717041,-5.106520652770996,-0.6058586835861206
1761397409660915000,4.5539150390625,-2.847158908843994,-3.0230870246887207,-0.9158153533935547
1761397409680278500,4.573278564453125,-0.42648744583129883,-0.029310226440429688,-0.6937237977981567
1761397409699668700,4.592668701171875,1.0178475379943848,3.576535224914551,-0.20904070138931274
1761397409719046000,4.6120458984375,-0.28667116165161133,6.030472755432129,-0.4297572374343872
1761397409738409200,4.6314091796875,-4.5395636558532715,7.669775009155273,-1.1771751642227173
1761397409757799700,4.650799560546875,-1.5175821781158447,8.798908233642578,-2.5486984252929688
1761397409777176600,4.670176513671875,7.404551029205322,6.912276744842529,-0.3263476490974426
1761397409796540000,4.689539794921875,14.107978820800781,4.166393756866455,2.05427622795105
1761397409815930400,4.708930419921875,13.67066764831543,0.7730488777160645,2.208465814590454
1761397409835307300,4.728307373046875,5.468639850616455,-0.07568168640136719,0.9017409086227417
1761397409854670800,4.7476708984375,-3.3183212280273438,-2.440058708190918,1.341576337814331
1761397409874061300,4.767061279296875,-8.003792762756348,-3.8573131561279297,0.49336719512939453
1761397409893438200,4.786438232421875,-10.251492500305176,-4.714173316955566,-0.3622223734855652
1761397409912801500,4.805801513671875,-9.453897476196289,-5.209091663360596,-0.6577795147895813
1761397409932192000,4.82519189453125,-6.5406622886657715,-5.900907516479492,-0.3116414546966553
1761397409951569000,4.84456884765625,-3.7153663635253906,-5.739110946655273,-1.3324544429779053
1761397409970932200,4.86393212890625,-2.256624221801758,-5.742029666900635,-0.9794458150863647
1761397409990322700,4.88332275390625,-2.5723938941955566,-5.68648624420166,1.1409921646118164
1761397410009699600,4.902699462890625,-3.488909959793091,-4.840020179748535,2.3478751182556152
1761397410029063200,4.922063232421875,-1.026968002319336,-3.000579833984375,1.3899153470993042
1761397410048453400,4.941453369140625,3.0809502601623535,-0.048142433166503906,-0.5269759893417358
1761397410067830500,4.96083056640625,5.835450649261475,2.9008822441101074,-0.7822200059890747
1761397410087193900,4.98019384765625,3.5485124588012695,4.5633544921875,0.19637882709503174
1761397410106584300,4.999584228515625,-1.4757773876190186,5.383920669555664,1.9920358657836914
1761397410125961200,5.018961181640625,-0.6483941078186035,6.260859489440918,0.7107092142105103
1761397410145324500,5.038324462890625,5.378442287445068,5.247559070587158,-1.9363064765930176
1761397410164715000,5.057715087890625,11.908121109008789,4.600493431091309,-3.563326358795166
1761397410184092000,5.077091796875,10.908824920654297,5.1062493324279785,-2.699371814727783
1761397410203455500,5.09645556640625,4.052052021026611,3.7709994316101074,0.553127646446228
1761397410222845700,5.115845703125,-2.4559459686279297,1.551436424255371,0.4802795648574829
1761397410242222800,5.135222900390625,-6.043490409851074,-0.22667407989501953,-1.5435593128204346
1761397410261586200,5.154586181640625,-3.9582109451293945,-1.594498634338379,-2.232287883758545
1761397410280976600,5.1739765625,-0.9555830955505371,-2.7459769248962402,-0.3422093987464905
1761397410300353500,5.193353515625,-2.3019466400146484,-4.328874111175537,3.0269196033477783
1761397410319716900,5.212716796875,-2.829075336456299,-5.7921342849731445,5.434481143951416
1761397410339107300,5.232107421875,-3.1033549308776855,-6.346834659576416,5.430342674255371
1761397410358484200,5.251484130859375,-2.3066155910491943,-6.47971248626709,3.045128107070923
1761397410377847800,5.270847900390625,-1.464250087738037,-5.222112655639648,0.2019396424293518
1761397410397238300,5.29023828125,-1.025256633758545,-3.4882564544677734,-0.47253769636154175
1761397410416615200,5.309615234375,-1.4263434410095215,-2.292919635772705,-0.1344124674797058
1761397410435978500,5.328978515625,-2.537339210510254,-0.5717239379882812,0.3216856122016907
1761397410455369000,5.348368896484375,-0.7922930717468262,1.827143669128418,0.09279888868331909
1761397410474745900,5.367745849609375,2.991224765777588,3.4285688400268555,-0.23092299699783325
1761397410494109200,5.387109130859375,3.10758113861084,4.203943252563477,-1.5163182020187378
1761397410513499600,5.406499755859375,-2.847597122192383,6.490339279174805,-3.0316672325134277
1761397410532876500,5.42587646484375,-5.47618293762207,9.348705291748047,-2.542710304260254
1761397410552240000,5.445240234375,2.924050807952881,6.1529693603515625,-0.07451224327087402
1761397410571630600,5.464630615234375,11.40255355834961,4.57643461227417,-0.9466210603713989
1761397410591007500,5.484007568359375,10.146695137023926,3.024597644805908,-2.6731619834899902
1761397410610370800,5.503370849609375,4.498891830444336,0.5527024269104004,-1.661095380783081
1761397410629761300,5.52276123046875,0.19100475311279297,-1.9976706504821777,0.5888515710830688
1761397410649138200,5.54213818359375,-2.5906660556793213,-3.9964940547943115,2.5363829135894775
1761397410668501800,5.561501708984375,-3.763948440551758,-5.023494720458984,1.6019237041473389
1761397410687892000,5.58089208984375,-4.475489139556885,-5.643824577331543,0.21413898468017578
1761397410707269000,5.60026904296875,-3.9786620140075684,-6.268054008483887,0.8828004598617554
1761397410726646000,5.61964599609375,-2.991213321685791,-6.571646213531494,2.0800530910491943
1761397410746023000,5.63902294921875,-3.416126251220703,-6.741226673126221,2.4902782440185547
1761397410765399800,5.65839990234375,-4.565419673919678,-6.977955341339111,2.420450210571289
1761397410784763100,5.67776318359375,-6.351474285125732,-6.645346164703369,2.0318238735198975
1761397410804153600,5.697153564453125,-7.68056583404541,-5.815937519073486,1.669771671295166
1761397410823530500,5.716530517578125,-5.623934745788574,-4.27570104598999,0.13976067304611206
1761397410842894000,5.73589404296875,-1.0091972351074219,-1.922408103942871,-2.6493301391601562
1761397410862284500,5.755284423828125,1.9875364303588867,1.6499390602111816,-6.251550674438477
1761397410881661400,5.774661376953125,0.7177019119262695,4.391648769378662,-6.92902135848999
1761397410901024800,5.794024658203125,4.4114274978637695,5.766334533691406,-1.4979959726333618
1761397410920415200,5.813415283203125,16.904722213745117,3.509089946746826,5.0775017738342285
1761397410939792100,5.832792236328125,18.916893005371094,2.0372676849365234,4.999512672424316
1761397410959155500,5.852155517578125,10.32615852355957,4.706644058227539,-3.0764198303222656
1761397410978546000,5.8715458984375,4.371004104614258,5.078200340270996,-4.193741798400879
1761397410997923000,5.890923095703125,-1.3840131759643555,4.505295753479004,-2.4362592697143555
1761397411017286400,5.910286376953125,-4.668395042419434,3.4831557273864746,-1.1235939264297485
1761397411036676900,5.9296767578125,-3.684236526489258,2.313063621520996,-0.827760636806488
1761397411056053800,5.9490537109375,-0.9791851043701172,0.8155364990234375,0.09620095789432526
1761397411075417000,5.9684169921875,0.34423828125,-0.5789370536804199,0.9245438575744629
1761397411094807600,5.9878076171875,-2.39959716796875,-1.1389756202697754,-0.894404947757721
1761397411114184400,6.007184326171875,-5.79796838760376,-1.4021937847137451,-2.2618253231048584
1761397411133548000,6.026548095703125,-7.76138973236084,-1.917905330657959,-0.6791880130767822
1761397411152938500,6.0459384765625,-7.4653191566467285,-2.329969882965088,2.3727917671203613
1761397411172315400,6.0653154296875,-6.509285926818848,-2.3463993072509766,3.63063645362854
1761397411191692300,6.0846923828125,-6.242781162261963,-1.6458404064178467,2.855154514312744
1761397411211069200,6.104069091796875,-5.2510833740234375,-0.9838972091674805,2.063345432281494
1761397411230446000,6.123446044921875,-0.8370952606201172,-0.11028099060058594,0.5767679214477539
1761397411249809400,6.142809326171875,3.6446456909179688,1.0525636672973633,-0.3947778046131134
1761397411269200000,6.162199951171875,6.591239929199219,4.015908241271973,-2.003312110900879
1761397411288576800,6.18157666015625,6.766664981842041,9.38524055480957,-5.528149127960205
1761397411307940400,6.2009404296875,3.7525930404663086,11.531876564025879,-4.345081329345703
1761397411327330800,6.220330810546875,9.13848876953125,8.806280136108398,0.9082163572311401
1761397411346707700,6.239707763671875,20.377220153808594,2.7676892280578613,7.484224796295166
1761397411366071000,6.259071044921875,20.04608726501465,-0.49903440475463867,4.295733451843262
1761397411385461500,6.27846142578125,11.177063941955566,-0.6757988929748535,-2.1047608852386475
1761397411404838400,6.29783837890625,3.1794934272766113,-1.5772762298583984,-1.8455029726028442
1761397411424202000,6.317201904296875,-4.161541938781738,-1.861192226409912,-0.22418685257434845
1761397411443592200,6.33659228515625,-9.542567253112793,-1.7046833038330078,-0.1989632248878479
1761397411462969000,6.355968994140625,-10.9835786819458,-2.184051036834717,0.6876956224441528
1761397411482332700,6.375332763671875,-9.292585372924805,-3.240504264831543,2.8828275203704834
1761397411501723100,6.39472314453125,-7.995614528656006,-3.898691177368164,3.2189362049102783
1761397411521100000,6.41410009765625,-6.889730930328369,-4.293062210083008,1.6309375762939453
1761397411540463400,6.43346337890625,-6.501650333404541,-4.504698276519775,-0.4674065113067627
1761397411559853800,6.452853759765625,-6.373439311981201,-4.542296409606934,-1.8622171878814697
1761397411579230700,6.472230712890625,-5.089359760284424,-4.228952407836914,-1.7764265537261963
1761397411598594300,6.49159423828125,-2.290410041809082,-3.519789934158325,-0.5470213890075684
1761397411617984800,6.51098486328125,0.16329574584960938,-2.3711791038513184,0.07405579090118408
1761397411637361700,6.530361572265625,1.7580370903015137,-1.1138339042663574,0.695130467414856
1761397411656725000,6.54972509765625,5.650824069976807,1.5101895332336426,1.6192898750305176
1761397411676115500,6.569115478515625,8.35224723815918,5.000649929046631,1.933254361152649
1761397411695492400,6.588492431640625,9.123334884643555,6.359256744384766,0.05348920822143555
1761397411714856000,6.60785595703125,9.338204383850098,5.834378242492676,-1.4453424215316772
1761397411734246100,6.62724609375,9.716218948364258,3.2317962646484375,-0.7811752557754517
1761397411753623000,6.646623046875,7.736182689666748,1.3698606491088867,-0.3269437551498413
1761397411772986600,6.665986572265625,3.0447654724121094,0.3477306365966797,-0.8310167789459229
1761397411792377000,6.685377197265625,-2.005660057067871,-0.2324981689453125,-0.9088204503059387
1761397411811754000,6.70475390625,-4.873836040496826,-1.665266513824463,0.07962262630462646
1761397411831117300,6.724117431640625,-5.556883335113525,-3.5983986854553223,0.3602484464645386
1761397411850507800,6.7435078125,-5.186707496643066,-4.815781593322754,0.03177440166473389
1761397411869884700,6.762884765625,-4.789521217346191,-5.409902095794678,0.05719578266143799
1761397411889248300,6.782248291015625,-4.509085655212402,-5.826684474945068,1.0777095556259155
1761397411908638500,6.801638427734375,-4.706136703491211,-6.100342750549316,1.6359294652938843
1761397411928015600,6.821015625,-5.669357776641846,-5.895046234130859,0.5482299327850342
1761397411947379000,6.84037890625,-6.283923625946045,-5.512020587921143,-1.0297356843948364
1761397411966769400,6.859769287109375,-4.640039443969727,-4.4959869384765625,-1.9573473930358887
1761397411986146300,6.879146240234375,-1.4739246368408203,-2.3490500450134277,-1.6815977096557617
1761397412005509600,6.898509521484375,1.156792163848877,0.6016221046447754,-0.6208174228668213
1761397412024900000,6.917900146484375,3.825199604034424,3.887653350830078,-0.9811574220657349
1761397412044277200,6.93727734375,7.571853160858154,7.241866111755371,-2.8185908794403076
1761397412063640600,6.956640625,9.088658332824707,9.537257194519043,-4.488595962524414
1761397412083031000,6.976031005859375,5.689996719360352,9.199018478393555,-4.313190937042236
1761397412102408000,6.995407958984375,4.374221324920654,6.397006988525391,-0.9769269227981567
1761397412121771300,7.014771240234375,6.739017486572266,3.6111879348754883,3.3433353900909424
1761397412141161700,7.03416162109375,10.178001403808594,0.004805088043212891,4.4098944664001465
1761397412160538600,7.05353857421875,9.640373229980469,-1.8985424041748047,4.235407829284668
1761397412179907000,7.072906982421875,4.3073039054870605,-3.5941405296325684,3.0738701820373535
1761397412199297500,7.092297607421875,-1.020639419555664,-5.226351737976074,1.3910644054412842
1761397412218674400,7.11167431640625,-5.330709457397461,-6.509130001068115,0.13123226165771484
1761397412238037800,7.131037841796875,-8.26590347290039,-7.0601043701171875,-0.32832539081573486
1761397412257428200,7.15042822265625,-8.277549743652344,-6.800490856170654,0.7976666688919067
1761397412276805000,7.16980517578125,-7.496105194091797,-7.3865742683410645,0.3345506191253662
1761397412296168700,7.189168701171875,-8.813015937805176,-6.917592525482178,-2.1734352111816406
1761397412315559000,7.208558837890625,-12.148201942443848,-5.059874057769775,-4.154816150665283
1761397412334936000,7.22793603515625,-12.580739974975586,-2.959012031555176,-2.7898552417755127
1761397412354299400,7.24729931640625,-7.793271064758301,1.0207862854003906,-0.5018438100814819
1761397412373689900,7.26668994140625,5.930757999420166,6.37539005279541,1.3212411403656006
1761397412393066800,7.286066650390625,12.000996589660645,8.351486206054688,6.4103193283081055
1761397412412430300,7.305430419921875,7.833664417266846,10.429746627807617,2.2144949436187744
1761397412431820500,7.324820556640625,6.568763256072998,8.034551620483398,1.161915898323059
1761397412451197700,7.34419775390625,12.517632484436035,4.703928470611572,1.7427245378494263
1761397412470561000,7.36356103515625,13.859981536865234,2.8114500045776367,0.2328992486000061
1761397412489951500,7.382951416015625,10.163833618164062,2.330880641937256,-1.4578295946121216
1761397412509328400,7.402328369140625,5.505168914794922,0.08075094223022461,0.042487919330596924
1761397412528691700,7.421691650390625,-1.276144027709961,-2.653141498565674,-0.006727159023284912
1761397412548082200,7.441082275390625,-6.578073501586914,-5.556903839111328,-1.0644395351409912
1761397412567459000,7.460458984375,-7.083178520202637,-7.544050216674805,-1.2939929962158203
1761397412586822700,7.47982275390625,-6.16985559463501,-7.985811233520508,-0.5074208974838257
1761397412606212900,7.499212890625,-5.593347549438477,-7.292720794677734,0.0508294552564621
1761397412625590000,7.518590087890625,-4.916543960571289,-5.537656784057617,0.715076744556427
1761397412644953300,7.537953369140625,-4.544050216674805,-3.9229493141174316,1.0234116315841675
1761397412664343800,7.55734375,-4.594459533691406,-2.13942813873291,-0.10476178675889969
1761397412683720700,7.576720703125,-4.758296489715576,-0.6152553558349609,0.23407204449176788
1761397412703084300,7.596084228515625,-1.7648379802703857,1.2280168533325195,0.5164470672607422
1761397412722474500,7.615474609375,3.386920928955078,3.8143672943115234,-2.662538528442383
1761397412741851600,7.6348515625,5.120148658752441,5.238225936889648,-3.9713127613067627
1761397412761215000,7.654215087890625,1.1461796760559082,4.886941909790039,-1.5568286180496216
1761397412780605400,7.67360546875,2.047488212585449,4.773646354675293,-0.4914119839668274
1761397412799982300,7.692982421875,6.254664421081543,3.130992889404297,0.33965709805488586
1761397412819345700,7.712345703125,8.902198791503906,2.176025867462158,1.5508935451507568
1761397412838736100,7.731736083984375,6.225444316864014,0.5541701316833496,3.2701711654663086
1761397412858113000,7.751113037109375,1.497082233428955,-0.9285554885864258,2.734501838684082
1761397412877476600,7.7704765625,-3.139007568359375,-2.1600494384765625,-0.4290388226509094
1761397412896866800,7.78986669921875,-5.231684684753418,-2.8041210174560547,-2.676572799682617
1761397412916244000,7.809243896484375,-3.215684413909912,-3.159965991973877,-3.5536186695098877
1761397412935607300,7.828607177734375,-1.44173002243042,-3.6814634799957275,-2.667966365814209
1761397412954997800,7.847997802734375,-2.2449960708618164,-4.146636009216309,-0.5613349676132202
1761397412974374700,7.867374755859375,-2.2727303504943848,-4.572212219238281,0.5256463289260864
1761397412993738200,7.88673828125,-1.5017080307006836,-5.179764747619629,1.6025753021240234
1761397413013128400,7.90612841796875,-1.2400155067443848,-4.751236438751221,1.8351248502731323
1761397413032505600,7.925505615234375,-1.1348628997802734,-3.606987953186035,1.3848049640655518
1761397413051869000,7.944868896484375,0.03613138198852539,-1.755190372467041,-0.1689382940530777
1761397413071259400,7.96425927734375,1.1570816040039062,1.0652384757995605,-1.980564832687378
1761397413090636300,7.98363623046875,0.37554168701171875,4.778024673461914,-1.0578120946884155
1761397413109999600,8.00299951171875,-0.7188959121704102,5.405731201171875,0.9680691957473755
1761397413129390000,8.02239013671875,-4.937071323394775,6.861218452453613,0.2602839171886444
1761397413148767000,8.04176708984375,-3.6894147396087646,5.705514430999756,-1.2202174663543701
1761397413168130600,8.061130615234376,9.198183059692383,3.4998936653137207,-2.5910019874572754
1761397413187521000,8.08052099609375,15.202159881591797,1.7544631958007812,0.4767969250679016
1761397413206898000,8.09989794921875,10.01461410522461,-0.10321283340454102,4.2748026847839355
1761397413226261200,8.11926123046875,2.630561351776123,-0.7290334701538086,3.0869297981262207
1761397413245651700,8.138651611328125,-2.9553122520446777,-2.9504456520080566,1.4418236017227173
1761397413265028600,8.158028564453126,-5.234047889709473,-2.8592023849487305,0.18320773541927338
1761397413284392200,8.17739208984375,-4.996274471282959,-3.181790828704834,0.4719076156616211
1761397413303782400,8.196782470703125,-3.224013090133667,-3.8577520847320557,0.2460368573665619
1761397413323159600,8.21615966796875,-1.6067066192626953,-4.16406774520874,0.20734411478042603
1761397413342536400,8.235536376953124,-0.6227836608886719,-4.638422966003418,1.3746153116226196
1761397413361913300,8.254913330078125,-0.5114750862121582,-4.36154842376709,0.7742311954498291
1761397413381290200,8.274290283203126,-1.6429870128631592,-2.984328269958496,-0.35014867782592773
1761397413400653600,8.293653564453125,-1.373276710510254,-0.9468460083007812,-1.8768606185913086
1761397413420044000,8.3130439453125,-0.07614564895629883,1.048802375793457,-2.970813274383545
1761397413439421200,8.332421142578125,2.0098414421081543,2.2813024520874023,-1.8701624870300293
1761397413458784500,8.351784423828125,0.4660649299621582,3.5102500915527344,-0.5422895550727844
1761397413478175000,8.371175048828125,-3.243870496749878,4.792983055114746,-1.4126969575881958
1761397413497552000,8.3905517578125,-4.617682933807373,4.0562286376953125,-2.70658540725708
1761397413516915200,8.409915283203125,2.1890039443969727,2.0180540084838867,-3.0930702686309814
1761397413536305700,8.4293056640625,9.443506240844727,0.7716770172119141,-0.553913950920105
1761397413555682600,8.4486826171875,9.703269958496094,-0.28347253799438477,3.435360908508301
1761397413575046100,8.468046142578125,2.806323528289795,-1.3065872192382812,5.691228866577148
1761397413594436400,8.487436279296874,-3.343970537185669,-2.349256992340088,4.971988677978516
1761397413613813500,8.5068134765625,-5.516965866088867,-3.139280319213867,2.101957321166992
1761397413633176800,8.5261767578125,-4.144308090209961,-3.4275636672973633,-0.9159772396087646
1761397413652567300,8.5455673828125,-0.690577507019043,-4.078953742980957,-2.6382460594177246
1761397413671944200,8.564944091796875,2.350693702697754,-4.418815612792969,-2.873676061630249
1761397413691307500,8.5843076171875,1.8137140274047852,-4.950174808502197,-0.6724194288253784
1761397413710698000,8.603697998046876,-0.28893232345581055,-4.562080383300781,1.3606284856796265
1761397413730075100,8.6230751953125,-2.936323881149292,-2.924121856689453,1.3566933870315552
1761397413749438500,8.6424384765625,-3.184040069580078,-0.7127022743225098,1.9986958503723145
1761397413768829000,8.661828857421876,0.534965991973877,2.4174022674560547,1.5662128925323486
1761397413788205800,8.681205810546874,-0.5537872314453125,4.465320587158203,-1.3643709421157837
1761397413807569200,8.700569091796876,-6.20303201675415,6.52482795715332,-2.53157639503479
1761397413826959600,8.719959716796875,-8.058343887329102,8.743874549865723,-4.2337565422058105
1761397413846336500,8.73933642578125,0.11147499084472656,5.973693370819092,-4.093052864074707
1761397413865700000,8.7587001953125,11.99810791015625,1.2999835014343262,1.074004888534546
1761397413885090600,8.778090576171875,13.992932319641113,-1.895888328552246,4.862918853759766
1761397413904467500,8.797467529296876,10.136192321777344,-2.3398818969726562,0.4865455627441406
1761397413923830800,8.816830810546875,5.003719806671143,-1.5558967590332031,-3.5890777111053467
1761397413943221200,8.83622119140625,-3.8136539459228516,-1.901684284210205,-1.5976120233535767
1761397413962598100,8.85559814453125,-8.670351028442383,-2.8099141120910645,2.1785080432891846
1761397413981961700,8.874961669921875,-8.374755859375,-3.3720474243164062,2.1404454708099365
1761397414001352000,8.89435205078125,-4.561429500579834,-3.855936050415039,0.8063971400260925
1761397414020729000,8.91372900390625,1.3685660362243652,-4.342906475067139,-0.2597029209136963
1761397414040092400,8.933092529296875,3.265410900115967,-4.0879411697387695,-0.8330122828483582
1761397414059483000,8.95248291015625,1.3901538848876953,-2.8131442070007324,-0.10274910926818848
1761397414078859800,8.97185986328125,1.0881195068359375,-1.3999881744384766,1.1147099733352661
1761397414098223400,8.991223388671875,0.6123981475830078,0.3562288284301758,0.5937342643737793
1761397414117613600,9.010613525390625,-1.0983002185821533,2.4595508575439453,-1.148519515991211
1761397414136990500,9.029990478515625,-3.3319475650787354,4.12440299987793,-2.0872154235839844
1761397414156354000,9.04935400390625,-5.069796085357666,6.192893028259277,-2.9917941093444824
1761397414175744500,9.06874462890625,-1.371286153793335,5.277393341064453,-1.2925437688827515
1761397414195121400,9.088121337890625,6.638987064361572,3.786120891571045,0.5853416919708252
1761397414214484700,9.107484619140624,10.48936653137207,2.8942065238952637,1.765561580657959
1761397414233875200,9.126875244140624,5.4284987449646,-0.3577389717102051,3.972750425338745
1761397414253252000,9.146252197265625,-0.43709897994995117,-2.0965609550476074,3.672159433364868
1761397414272615700,9.16561572265625,-3.101280689239502,-2.035127639770508,0.10275858640670776
1761397414292006100,9.185006103515626,-2.8873867988586426,-2.2573328018188477,-2.6645355224609375
1761397414311383000,9.204383056640625,-2.122631549835205,-2.811847686767578,-2.2630069255828857
1761397414330746400,9.223746337890624,-0.8038921356201172,-3.4733147621154785,-0.08554345369338989
1761397414350136800,9.24313671875,-0.1661524772644043,-3.6205668449401855,1.2124232053756714
1761397414369513700,9.262513671875,-1.3941292762756348,-4.719696044921875,1.6316375732421875
1761397414388890600,9.281890625,-1.9635834693908691,-4.791537284851074,0.6156539916992188
1761397414408267500,9.301267578125,-1.7295918464660645,-3.651627540588379,-0.9052773118019104
1761397414427644700,9.320644775390624,-1.2433767318725586,-2.0470919609069824,-0.9988266229629517
1761397414447008000,9.340008056640626,-0.6775975227355957,-0.5395946502685547,0.4071594476699829
1761397414466398500,9.3593984375,-1.3965933322906494,0.8797225952148438,1.13564133644104
1761397414485775400,9.378775390625,-4.036200523376465,1.4622907638549805,1.4887139797210693
1761397414505139000,9.398138916015625,-3.378917694091797,3.499300003051758,0.45828354358673096
1761397414524529200,9.417529052734375,3.1163415908813477,5.251607894897461,-2.3407580852508545
1761397414543906000,9.436906005859376,6.372317790985107,5.346344947814941,-2.603982448577881
1761397414563269600,9.45626953125,6.174847602844238,5.537510871887207,-1.3081307411193848
1761397414582660000,9.47566015625,5.764286518096924,5.422501087188721,-0.18993759155273438
1761397414602037000,9.495037109375,4.514716625213623,3.2087292671203613,1.5269898176193237
1761397414621400300,9.514400390625,1.8869457244873047,0.40369367599487305,2.2876179218292236
1761397414640790800,9.533790771484375,-0.05109596252441406,-1.3776206970214844,-0.1537630558013916
1761397414660167700,9.553167724609375,-1.4457945823669434,-2.225106716156006,-1.346785306930542
1761397414679531300,9.57253125,-2.091312885284424,-2.951094627380371,0.18801242113113403
1761397414698921700,9.591921630859375,-0.8226766586303711,-3.4631314277648926,0.6365361213684082
1761397414718298600,9.611298583984375,-0.4405479431152344,-3.9866132736206055,-0.2705014944076538
1761397414737675500,9.630675537109376,-0.6064357757568359,-4.555552959442139,0.2879519462585449
1761397414757052400,9.650052490234375,-0.8826661109924316,-4.897863388061523,0.35263681411743164
1761397414776429300,9.66942919921875,-2.750548839569092,-4.580186367034912,0.5626007914543152
1761397414795806200,9.68880615234375,-2.980847120285034,-3.658405303955078,1.28292977809906
1761397414815183400,9.708183349609374,-1.2644870281219482,-2.4516706466674805,1.8736340999603271
1761397414834560300,9.727560302734375,0.8790984153747559,-1.4337081909179688,-0.1050797700881958
1761397414853923600,9.746923583984374,1.8475770950317383,-0.21381664276123047,-1.4013229608535767
1761397414873314000,9.76631396484375,-5.236982822418213,-0.8775215148925781,2.405019760131836
1761397414892691000,9.78569091796875,-9.444125175476074,1.5919866561889648,2.82426381111145
1761397414912054300,9.80505419921875,-1.9703681468963623,3.3356809616088867,-2.330063819885254
