time,seconds_elapsed,z,y,x
1761397405246701600,0.13970166015625,-0.20707722008228302,-0.12705622613430023,0.0012216945178806782
1761397405266078500,0.159078369140625,-0.2588465213775635,-0.10644013434648514,0.01725643500685692
1761397405285455400,0.178455322265625,-0.22967857122421265,-0.22463907301425934,0.054518118500709534
1761397405304832300,0.197832275390625,-0.14996300637722015,-0.24556060135364532,0.0587940476834774
1761397405324209400,0.21720947265625,-0.13469181954860687,-0.10857810080051422,0.007788302376866341
1761397405343586300,0.23658642578125,-0.15484978258609772,-0.004428642801940441,0.0024433890357613564
1761397405362963200,0.255963134765625,-0.1498102843761444,-0.014965757727622986,0.04550812020897865
1761397405382340000,0.275340087890625,-0.16660858690738678,-0.09009996801614761,0.06184828653931618
1761397405401717000,0.294717041015625,-0.18340688943862915,-0.08032641559839249,-0.01252236869186163
1761397405421094000,0.314093994140625,-0.13316470384597778,-0.018936265259981155,-0.12552911043167114
1761397405440470800,0.333470703125,-0.05619794875383377,-0.04031591862440109,-0.1847812980413437
1761397405459847700,0.35284765625,-0.0036650835536420345,-0.052990999072790146,-0.18279604613780975
1761397405479224600,0.372224609375,-0.0719272643327713,-0.019241688773036003,-0.0922379344701767
1761397405498601500,0.3916015625,-0.13805148005485535,0.01847812905907631,0.025961007922887802
1761397405517978400,0.410978271484375,-0.10002623498439789,-0.06276455521583557,0.0656660795211792
1761397405537355300,0.430355224609375,-0.02489202655851841,-0.07895200699567795,0.004123218823224306
1761397405556732200,0.449732177734375,0.014660334214568138,-0.041232191026210785,-0.04932591691613197
1761397405576109300,0.469109375,0.03436015918850899,-0.006413896102458239,-0.051922015845775604
1761397405595486200,0.488486328125,0.0018325417768210173,-0.016645587980747223,-0.02214321307837963
1761397405614863000,0.507863037109375,-0.04443913698196411,-0.06765133142471313,0.007788302376866341
1761397405634240000,0.527239990234375,-0.03802524134516716,-0.12369657307863235,0.05421269312500954
1761397405653617000,0.546616943359375,0.037567105144262314,-0.16248537600040436,0.11529742181301117
1761397405672993800,0.565993896484375,0.026877280324697495,-0.2573194205760956,0.12720894813537598
1761397405692370700,0.58537060546875,-0.07330167293548584,-0.29503923654556274,0.022754060104489326
1761397405711747600,0.60474755859375,-0.09941539168357849,-0.1963873952627182,-0.1298050433397293
1761397405731124500,0.62412451171875,-0.03023693896830082,-0.16217994689941406,-0.13209572434425354
1761397405750501400,0.64350146484375,0.006261184345930815,-0.17958909273147583,-0.03680354729294777
1761397405769878300,0.662878173828125,-0.02489202655851841,-0.22311195731163025,-0.003970507066696882
1761397405789255200,0.682255126953125,-0.024281177669763565,-0.1041494607925415,-0.0021379655227065086
1761397405808632000,0.701632080078125,0.012216945178806782,-0.1435490995645523,0.019088976085186005
1761397405828009000,0.721009033203125,0.09972081333398819,-0.36009445786476135,0.21562908589839935
1761397405847385900,0.7403857421875,0.1435490995645523,-0.5887040495872498,0.4953971207141876
1761397405866763000,0.759762939453125,0.08979454636573792,-0.7154548764228821,0.5373928546905518
1761397405886126300,0.779126220703125,0.5030327439308167,-0.12155860662460327,0.30282753705978394
1761397405905516800,0.798516845703125,0.5482354164123535,0.8521319031715393,-0.4596625566482544
1761397405924893700,0.817893798828125,0.41293275356292725,0.767224133014679,-1.1173923015594482
1761397405944270600,0.8372705078125,0.4558447599411011,0.3399364948272705,-1.2276502847671509
1761397405963647500,0.8566474609375,0.9474241137504578,-0.12843063473701477,-1.3183610439300537
1761397405983024400,0.8760244140625,0.8666395545005798,-0.27808821201324463,-1.549108624458313
1761397406002387700,0.8953876953125,0.6671979427337646,0.45889899134635925,-1.6292823553085327
1761397406021778200,0.914778076171875,0.837471604347229,2.8135623931884766,-1.3449329137802124
1761397406041155000,0.934155029296875,0.5207473039627075,3.9611916542053223,-1.233605980873108
1761397406060518700,0.9535185546875,0.45324867963790894,3.249096632003784,-0.1325538605451584
1761397406079908900,0.972908935546875,0.9910996556282043,2.2514302730560303,1.2713258266448975
1761397406099285800,0.99228564453125,1.644858956336975,0.5340332388877869,1.9392873048782349
1761397406118649300,1.0116494140625,1.7768019437789917,-0.6607840061187744,1.962804913520813
1761397406138039800,1.031039794921875,1.7175498008728027,-0.91566002368927,1.624548316001892
1761397406157416700,1.050416748046875,1.6266862154006958,-0.31855684518814087,1.3864705562591553
1761397406176780000,1.069780029296875,1.689298152923584,-1.105022668838501,1.4687821865081787
1761397406196170500,1.08917041015625,1.8704142570495605,-1.843078851699829,1.5932424068450928
1761397406215547400,1.10854736328125,1.370893955230713,-1.027139663696289,1.1051753759384155
1761397406234910700,1.12791064453125,0.8466343283653259,-0.8635852932929993,0.3962871730327606
1761397406254301200,1.14730126953125,0.4553866386413574,-1.472294569015503,0.0653606578707695
1761397406273678000,1.166677978515625,-0.15912571549415588,-1.9229471683502197,-0.28572380542755127
1761397406293041700,1.186041748046875,-0.624285876750946,-2.128497362136841,-0.3312319219112396
1761397406312431900,1.205431884765625,-1.3243168592453003,-1.6830369234085083,0.07040014863014221
1761397406331808800,1.224808837890625,-1.8276549577713013,-1.9212673902511597,0.2673983871936798
1761397406351185700,1.244185546875,-1.8175760507583618,-3.1927459239959717,0.11438114941120148
1761397406370562800,1.263562744140625,-1.8640004396438599,-3.7047886848449707,-0.0784938707947731
1761397406389939700,1.282939697265625,-1.8420099020004272,-3.612856149673462,-0.08307522535324097
1761397406409316600,1.302316650390625,-1.9066070318222046,-2.9233622550964355,0.05329642444849014
1761397406428693500,1.321693603515625,-2.23661732673645,-1.6841058731079102,0.038483377546072006
1761397406448070400,1.3410703125,-2.449802875518799,-0.8660287261009216,-0.15286453068256378
1761397406467433700,1.360433837890625,-1.6159964799880981,-0.8536590337753296,-0.30633988976478577
1761397406486824200,1.37982421875,-0.7889092564582825,0.05619794875383377,0.11453386396169662
1761397406506201000,1.399201171875,0.38009971380233765,-0.265718549489975,0.3555130958557129
1761397406525564400,1.418564453125,1.4539692401885986,-3.190608024597168,-0.5505260825157166
1761397406544955000,1.437954833984375,1.0072871446609497,-3.6316397190093994,-0.3432961702346802
1761397406564331800,1.457331787109375,0.5728220343589783,-0.48806697130203247,0.4220954477787018
1761397406583695400,1.4766953125,0.7626428008079529,2.8153951168060303,0.9035958051681519
1761397406603085600,1.49608544921875,1.248266339302063,3.4676272869110107,0.9055810570716858
1761397406622462500,1.51546240234375,1.2665917873382568,2.3445844650268555,0.6705575585365295
1761397406641826000,1.534825927734375,1.1077715158462524,1.575222373008728,0.26342788338661194
1761397406661216500,1.554216552734375,0.9402466416358948,1.2042853832244873,-0.32191649079322815
1761397406680593400,1.573593505859375,0.684759795665741,1.1048699617385864,-0.7302678823471069
1761397406699956700,1.592956787109375,0.45645561814308167,1.109604001045227,-0.772416353225708
1761397406719347200,1.61234716796875,0.10735640674829483,0.8174663186073303,-0.4294256269931793
1761397406738724000,1.63172412109375,-0.19302773475646973,0.18661384284496307,0.31031039357185364
1761397406758087400,1.65108740234375,-0.399952232837677,-0.3837648034095764,1.260025143623352
1761397406777478000,1.670477783203125,-0.46302223205566406,-0.6516213417053223,1.8549903631210327
1761397406796854800,1.689854736328125,-0.34848836064338684,-0.8131904006004333,1.5370444059371948
1761397406816218400,1.70921826171875,-0.17409147322177887,-1.136786699295044,0.324054479598999
1761397406835608600,1.728608642578125,-0.06673506647348404,-1.0549331903457642,-1.3050751686096191
1761397406854985700,1.74798583984375,0.062306419014930725,-0.9671239256858826,-2.741787910461426
1761397406874349000,1.76734912109375,0.26632940769195557,-2.239060640335083,-3.836273431777954
1761397406893739500,1.786739501953125,1.2278029918670654,-2.0574862957000732,-3.158385753631592
1761397406913116400,1.806116455078125,1.9122573137283325,-2.0229732990264893,-1.1917630434036255
1761397406932479700,1.825479736328125,2.58663272857666,-3.5620031356811523,0.6226060390472412
1761397406951870200,1.8448701171875,2.834942102432251,-4.1901068687438965,2.2027151584625244
1761397406971247000,1.8642470703125,1.9536422491073608,-2.4029204845428467,3.1513609886169434
1761397406990610400,1.8836103515625,1.052947998046875,-0.07207997888326645,2.5563957691192627
1761397407010001000,1.9030009765625,0.45981526374816895,0.8495358228683472,1.2099356651306152
1761397407029377800,1.922377685546875,-0.17241163551807404,0.3736858069896698,-0.11590826511383057
1761397407048741400,1.941741455078125,-0.7336275577545166,-0.4969242513179779,-0.9455915689468384
1761397407068131600,1.961131591796875,-0.9367342591285706,-0.4862344264984131,-1.4503041505813599
1761397407087508700,1.9805087890625,-1.0628741979599,0.5037962794303894,-1.9020256996154785
1761397407106872000,1.9998720703125,-1.2630794048309326,0.8295305967330933,-1.922489047050476
1761397407126262500,2.019262451171875,-1.4808465242385864,0.04688252881169319,-1.3374500274658203
1761397407145639400,2.038639404296875,-1.4269392490386963,-0.6392516493797302,-0.663838267326355
1761397407165002800,2.058002685546875,-0.9115368127822876,-0.3718532621860504,-0.25060009956359863
1761397407184393200,2.077393310546875,-0.49051034450531006,0.18875180184841156,-0.09361234307289124
1761397407203770000,2.09677001953125,-0.4074351191520691,0.34451785683631897,-0.2145601063966751
1761397407223133400,2.116133544921875,-0.4769189953804016,0.7728744745254517,-0.5606050491333008
1761397407242524000,2.13552392578125,-0.5224271416664124,1.3831108808517456,-1.3624948263168335
1761397407261900800,2.15490087890625,-0.36223241686820984,1.8044427633285522,-2.4577438831329346
1761397407281264400,2.174264404296875,0.025961007922887802,1.5168864727020264,-2.7866852283477783
1761397407300654800,2.19365478515625,-0.12690351903438568,-0.3083251416683197,-0.9368869662284851
1761397407320031700,2.21303173828125,-0.4677563011646271,-1.4040324687957764,2.4291868209838867
1761397407339395000,2.23239501953125,-0.5070032477378845,-0.35138988494873047,3.8634562492370605
1761397407358785500,2.25178564453125,-0.9567395448684692,1.773136854171753,3.286816358566284
1761397407378162400,2.271162353515625,-1.1607625484466553,3.552993059158325,1.7496192455291748
1761397407397525800,2.29052587890625,-0.5943543910980225,4.0833611488342285,0.1507265567779541
1761397407416916200,2.309916259765625,0.41110020875930786,3.375847339630127,-0.17928366363048553
1761397407436293000,2.329293212890625,1.2736165523529053,2.192941665649414,0.5135698318481445
1761397407455656400,2.348656494140625,1.249488115310669,0.9991934299468994,1.21818208694458
1761397407475047000,2.368046875,0.6465818285942078,0.037261683493852615,1.5032950639724731
1761397407494423800,2.387423828125,0.2786990702152252,-0.3301629424095154,1.2878187894821167
1761397407513787400,2.406787353515625,0.04199574887752533,-0.16691401600837708,0.7649334669113159
1761397407533177900,2.426177734375,-0.30740886926651,-0.27472856640815735,-0.0847550556063652
1761397407552554800,2.4455546875,-0.5955760478973389,-0.48577627539634705,-1.107618808746338
1761397407571918000,2.46491796875,-0.7948650121688843,-0.3987305462360382,-1.9038581848144531
1761397407591308500,2.48430859375,-0.6678087711334229,-0.007330167107284069,-1.9661645889282227
1761397407610685400,2.503685546875,-0.21165858209133148,0.028557108715176582,-1.5764440298080444
1761397407630048800,2.523048828125,0.28602921962738037,-0.6132906675338745,-1.25254225730896
1761397407649439200,2.542439208984375,0.7429429888725281,-1.4115153551101685,-1.634169101715088
1761397407668816100,2.561816162109375,0.9773555994033813,-1.5365862846374512,-2.5182178020477295
1761397407688179700,2.5811796875,1.176186442375183,-1.5451381206512451,-3.170144557952881
1761397407707570000,2.60056982421875,1.8085659742355347,-2.711092948913574,-3.152735471725464
1761397407726947000,2.619947021484375,1.796654462814331,-3.7241830825805664,-2.2323412895202637
1761397407746310400,2.639310302734375,1.0619579553604126,-3.271697998046875,-0.9825478196144104
1761397407765700900,2.658700927734375,0.07956285774707794,-0.5041016936302185,0.5604523420333862
1761397407785077800,2.678077880859375,-0.39918869733810425,1.3773078918457031,1.2326897382736206
1761397407804441000,2.697441162109375,-0.3561239540576935,0.8018897175788879,0.9637642502784729
1761397407823831600,2.71683154296875,-0.35505497455596924,-0.9877400398254395,0.7273663878440857
1761397407843208400,2.73620849609375,-0.448820024728775,-1.4014363288879395,0.9089407324790955
1761397407862571800,2.75557177734375,-0.4486673176288605,-0.8892409205436707,0.797613799571991
1761397407881962200,2.774962158203125,-0.5178457498550415,-0.19837264716625214,0.38009971380233765
1761397407901339100,2.794339111328125,-0.6464291214942932,0.6517740488052368,0.015423892997205257
1761397407920702700,2.81370263671875,-0.6163448691368103,1.4484715461730957,-0.026724567636847496
1761397407940093200,2.83309326171875,-0.5838172435760498,1.5025315284729004,0.16050012409687042
1761397407959470000,2.852469970703125,-0.8360971808433533,0.8257128000259399,0.46424391865730286
1761397407978847000,2.871846923828125,-1.0831849575042725,0.30068957805633545,1.052642583847046
1761397407998224000,2.891223876953125,-0.9671239256858826,0.2530434727668762,1.5300196409225464
1761397408017600800,2.910600830078125,-0.8458707332611084,0.07681404054164886,1.3631056547164917
1761397408036964000,2.929964111328125,-0.9171871542930603,-0.342074453830719,0.9008470177650452
1761397408056354600,2.9493544921875,-1.2281084060668945,-0.9498674869537354,0.5761816501617432
1761397408075731500,2.9687314453125,-1.579192876815796,-0.8936695456504822,0.42362257838249207
1761397408095095000,2.988094970703125,-1.4364073276519775,0.3710896968841553,0.12934690713882446
1761397408114485200,3.0074853515625,-1.0798252820968628,0.9051229357719421,-0.2895416021347046
1761397408133862400,3.0268623046875,-1.514443039894104,-0.589314877986908,-0.7178982496261597
1761397408153225700,3.046225830078125,-1.6987662315368652,-0.48791423439979553,-0.17928366363048553
1761397408172616200,3.0656162109375,-0.7675296068191528,1.0274450778961182,0.5071559548377991
1761397408191993000,3.0849931640625,0.18768282234668732,1.6364598274230957,0.37567105889320374
1761397408211356400,3.1043564453125,0.7612683773040771,1.3916627168655396,0.15149012207984924
1761397408230747000,3.123746826171875,0.9229902029037476,0.4888305068016052,0.2244863659143448
1761397408250123800,3.143123779296875,0.5529694557189941,-0.0325276181101799,0.871526300907135
1761397408269487000,3.162487060546875,-0.1522536724805832,0.13331741094589233,1.2792668342590332
1761397408288877600,3.181877685546875,-0.9023740887641907,0.6238277554512024,0.9071081876754761
1761397408308254500,3.20125439453125,-1.6673076152801514,1.3385190963745117,0.2429644912481308
1761397408327618000,3.2206181640625,-2.4285759925842285,1.9130208492279053,-0.0030542362947016954
1761397408347008500,3.240008544921875,-2.762403964996338,2.227454423904419,0.39506545662879944
1761397408366385400,3.259385498046875,-2.589686870574951,1.8997349739074707,0.8115105628967285
1761397408385748700,3.278748779296875,-2.4343791007995605,0.5123481154441833,0.6963658928871155
1761397408405139200,3.29813916015625,-2.0878758430480957,-1.3050751686096191,0.1754658818244934
1761397408424516000,3.31751611328125,-1.4452645778656006,-3.046142578125,-0.7493568658828735
1761397408443879400,3.33687939453125,-1.1835166215896606,-4.908616065979004,-2.0185446739196777
1761397408463270000,3.356269775390625,-0.591605544090271,-4.236073017120361,-2.5964062213897705
1761397408482646800,3.375646728515625,0.1638597846031189,-1.0576820373535156,-1.7882553339004517
1761397408502010400,3.39501025390625,0.0975828468799591,-0.1513374149799347,-0.5173876285552979
1761397408521400800,3.41440087890625,-0.4424061179161072,-1.1784770488739014,-0.08032641559839249
1761397408540777700,3.43377783203125,-0.5393781065940857,-0.3461976945400238,0.7440119385719299
1761397408560141000,3.45314111328125,0.129499614238739,1.4335057735443115,2.0040371417999268
1761397408579531500,3.472531494140625,0.8939749598503113,1.9508934020996094,2.5902976989746094
1761397408598908400,3.491908447265625,0.987281858921051,1.441904902458191,2.4018514156341553
1761397408618271700,3.511271728515625,0.47539186477661133,0.5967977643013,1.4307570457458496
1761397408637662200,3.530662109375,0.22708246111869812,0.3784198760986328,0.22723518311977386
1761397408657039000,3.5500390625,0.10720369219779968,0.5622848868370056,-0.7276718020439148
1761397408676402700,3.569402587890625,-0.14018943905830383,0.7237012982368469,-1.155722975730896
1761397408695793000,3.58879296875,-0.2826695740222931,1.0952491760253906,-1.0865445137023926
1761397408715170000,3.608170166015625,-0.34818294644355774,1.3785295486450195,-0.7805100679397583
1761397408734533400,3.627533447265625,-0.39949411153793335,1.2406307458877563,-0.3014531135559082
1761397408753923800,3.646923828125,-0.3706315755844116,0.7508839964866638,0.27976804971694946
1761397408773300700,3.66630078125,-0.416597843170166,0.3712424337863922,0.587940514087677
1761397408792664000,3.6856640625,-0.3871244490146637,-0.10033166408538818,0.6859814524650574
1761397408812054500,3.705054443359375,-0.1447708010673523,-0.284654825925827,0.7044596076011658
1761397408831431400,3.724431396484375,-0.2736595869064331,-0.5706840753555298,0.45737189054489136
1761397408850795000,3.743794921875,-0.7740961909294128,-1.1989405155181885,0.319320410490036
1761397408870185200,3.763185302734375,-0.7067502737045288,-0.851215660572052,0.6888830065727234
1761397408889562000,3.78256201171875,-0.33077380061149597,-0.1426328420639038,1.0233218669891357
1761397408908925700,3.80192578125,-0.1751604527235031,-1.161220669746399,-0.10796725004911423
1761397408928316200,3.821316162109375,-0.20234315097332,-1.56483793258667,-1.0827267169952393
1761397408947693000,3.840693115234375,0.027029991149902344,-0.7601994276046753,-0.9196305274963379
1761397408967056400,3.860056396484375,0.1910424828529358,-0.6671979427337646,-0.014049487188458443
1761397408986446800,3.87944677734375,0.1832541823387146,-0.9608627557754517,1.1942063570022583
1761397409005823700,3.89882373046875,-0.15744587779045105,-0.5242596864700317,1.1519051790237427
1761397409025187300,3.918187255859375,-0.6691831946372986,-0.1766875684261322,-0.12827792763710022
1761397409044577500,3.93757763671875,-1.0960127115249634,0.1441599577665329,-1.1224318742752075
1761397409063954700,3.95695458984375,-0.9657495021820068,0.34573954343795776,-1.0190459489822388
1761397409083331600,3.97633154296875,-0.2814478874206543,0.23838314414024353,-0.3264978528022766
1761397409102708500,3.99570849609375,0.2904578745365143,-0.05757235363125801,0.06398624926805496
1761397409122085400,4.01508544921875,0.5383091568946838,0.07024743407964706,0.2805316150188446
1761397409141448700,4.03444873046875,0.6120689511299133,0.5548020005226135,0.4077405333518982
1761397409160839200,4.053839111328125,0.596492350101471,0.3190149664878845,0.024433890357613564
1761397409180216000,4.073216064453125,0.6519267559051514,-0.4031592011451721,-0.32344362139701843
1761397409199579400,4.092579345703125,0.6731536984443665,-0.7036960124969482,-0.32222193479537964
1761397409218969900,4.111969970703125,0.4960079789161682,-0.35413870215415955,-0.39231663942337036
1761397409238346800,4.1313466796875,0.3746020793914795,0.42133188247680664,0.14797775447368622
1761397409257710300,4.15071044921875,0.32130566239356995,1.1047172546386719,0.4709632396697998
1761397409277100800,4.170100830078125,0.0016798300202935934,1.4822208881378174,0.03451287001371384
1761397409296477700,4.189477783203125,-0.6169557571411133,0.349251925945282,-1.1567920446395874
1761397409315841000,4.208841064453125,-0.37078428268432617,-0.751494824886322,-1.875759243965149
1761397409335231500,4.2282314453125,0.6920899152755737,-0.021685076877474785,-1.4005200862884521
1761397409354608400,4.2476083984375,1.5233004093170166,1.1334271430969238,0.7357655167579651
1761397409373972000,4.266971923828125,1.5828579664230347,1.3359229564666748,2.883809804916382
1761397409393362200,4.286362060546875,0.9463551044464111,0.7192726731300354,3.3167479038238525
1761397409412739300,4.3057392578125,0.25777754187583923,-0.1560714691877365,2.2818198204040527
1761397409432102700,4.3251025390625,0.007024743594229221,-0.4503471553325653,1.0418000221252441
1761397409451493000,4.3444931640625,0.1256818175315857,-0.26037365198135376,0.024281177669763565
1761397409470870000,4.3638701171875,0.5135698318481445,0.025502873584628105,-0.6624638438224792
1761397409490233300,4.3832333984375,0.5071559548377991,0.08429691940546036,-0.8655705451965332
1761397409509623800,4.402623779296875,0.1363716572523117,-0.22158484160900116,-0.6713211536407471
1761397409529000700,4.422000732421875,-0.15026842057704926,-0.08338065445423126,-0.05207473039627075
1761397409548364000,4.441364013671875,-0.4614951014518738,0.016798298805952072,0.30740886926651
1761397409567754500,4.46075439453125,-0.744928240776062,0.05085303261876106,0.3689517378807068
1761397409587131400,4.48013134765625,-0.9675820469856262,0.1313321590423584,0.5563291311264038
1761397409606495000,4.499494873046875,-1.0433270931243896,0.2620534598827362,0.9562813639640808
1761397409625885400,4.518885498046875,-0.8658760190010071,0.6024481058120728,1.1679399013519287
1761397409645262300,4.538262451171875,-0.6116108298301697,0.5561764240264893,1.0063709020614624
1761397409664625700,4.557625732421875,-0.31168481707572937,0.014965757727622986,0.7203416228294373
1761397409684016000,4.57701611328125,0.03787253051996231,-0.4709632396697998,0.6772769093513489
1761397409703393000,4.59639306640625,0.22662433981895447,-0.08765657991170883,0.9272661209106445
1761397409722756600,4.615756591796875,-0.014813045971095562,0.9206995368003845,1.2591089010238647
1761397409742146800,4.635146728515625,-0.22341738641262054,0.6175665855407715,0.17057909071445465
1761397409761524000,4.65452392578125,0.07024743407964706,-0.6244385838508606,-1.8452168703079224
1761397409780887300,4.67388720703125,0.48577627539634705,-1.311947226524353,-2.525853395462036
1761397409800277800,4.69327783203125,0.6152759194374084,-0.7003363966941833,-1.2113101482391357
1761397409819654700,4.712654541015625,0.5609105229377747,0.04550812020897865,1.035996913909912
1761397409839018000,4.73201806640625,0.7846332788467407,0.2987042963504791,2.6419143676757812
1761397409858408400,4.751408447265625,0.6838434934616089,0.4734066128730774,2.6892549991607666
1761397409877785300,4.770785400390625,0.5175403356552124,0.45737189054489136,1.7942111492156982
1761397409897149000,4.79014892578125,0.38009971380233765,0.5047125220298767,0.49768781661987305
1761397409916539100,4.8095390625,0.2996205687522888,0.543806791305542,-0.7299624681472778
1761397409935916300,4.828916259765625,0.1185043677687645,0.24449162185192108,-1.5112360715866089
1761397409955279600,4.848279541015625,0.06413896381855011,0.07986827939748764,-1.5538426637649536
1761397409974670000,4.867670166015625,0.29794076085090637,0.2086043357849121,-1.0683718919754028
1761397409994047000,4.887046875,0.3280249834060669,0.28037887811660767,-0.756381630897522
1761397410013423900,4.906423828125,0.08108997344970703,0.420873761177063,-0.7821899056434631
1761397410032800800,4.92580078125,-0.1776038408279419,0.30725616216659546,-0.9272661209106445
1761397410052177700,4.945177734375,-0.04107947647571564,0.20371755957603455,-0.36513394117355347
1761397410071541200,4.964541259765625,0.1835595965385437,0.4593571424484253,0.8761076927185059
1761397410090931700,4.983931640625,-0.0021379655227065086,0.6687250137329102,1.817881464958191
1761397410110308600,5.00330859375,-0.6788040399551392,-0.1644706279039383,0.9315420985221863
1761397410129672000,5.022671875,-1.346612811088562,-1.3866232633590698,-1.2271921634674072
1761397410149062400,5.0420625,-1.1415208578109741,-0.4706578254699707,-2.1425466537475586
1761397410168439300,5.061439208984375,-0.28633466362953186,1.370893955230713,-1.0480611324310303
1761397410187802600,5.080802734375,0.2360924631357193,1.4732109308242798,0.6172611713409424
1761397410207193000,5.100193115234375,-0.021990500390529633,0.47417017817497253,1.3238587379455566
1761397410226570000,5.119570068359375,-0.5296045541763306,-0.2757975459098816,0.9075663089752197
1761397410245933600,5.13893359375,-0.42927291989326477,-0.4109475016593933,-0.27320143580436707
1761397410265323800,5.15832373046875,0.21853061020374298,-0.37887802720069885,-1.184432864189148
1761397410284701000,5.177700927734375,0.811357855796814,-0.7032378911972046,-1.0938746929168701
1761397410304064300,5.197064208984375,0.9043593406677246,-0.730573296546936,-0.8706100583076477
1761397410323454700,5.216454833984375,0.4497362971305847,-0.33031564950942993,-0.778982937335968
1761397410342831600,5.23583154296875,-0.20127417147159576,0.10918894410133362,-0.735460102558136
1761397410362195000,5.25519482421875,-0.6087092757225037,0.2163926362991333,-0.5615213513374329
1761397410381585400,5.27458544921875,-0.5783196687698364,-0.1507265567779541,-0.09086353331804276
1761397410400962600,5.293962646484375,-0.39918869733810425,-0.44637662172317505,0.5328115224838257
1761397410420326000,5.313325927734375,-0.3046600818634033,-0.50853031873703,1.1341906785964966
1761397410439716400,5.33271630859375,-0.3834593594074249,-0.39796698093414307,1.3296617269515991
1761397410459093200,5.35209326171875,-0.5583143830299377,-0.03390202298760414,1.4240376949310303
1761397410478456600,5.37145654296875,-0.7366818189620972,0.17271706461906433,2.028165578842163
1761397410497847000,5.390846923828125,-1.085017442703247,-0.5209000110626221,2.5956428050994873
1761397410517224000,5.410223876953125,-1.0246962308883667,-1.398992896080017,1.4457226991653442
1761397410536600800,5.429600830078125,-0.6041279435157776,-0.5170822143554688,-1.3805148601531982
1761397410555977700,5.448977783203125,-0.4628695249557495,1.1228899955749512,-3.0394232273101807
1761397410575355000,5.46835498046875,-0.5204418897628784,1.2818629741668701,-2.443999767303467
1761397410594718200,5.48771826171875,-0.183865025639534,0.2038702666759491,-1.2048962116241455
1761397410614108700,5.507108642578125,0.22158484160900116,-0.534338653087616,-0.4928010404109955
1761397410633485600,5.526485595703125,0.31229567527770996,-0.8750386834144592,-0.3542914092540741
1761397410652849000,5.545848876953125,0.07574506103992462,-0.6694886088371277,-0.4865398406982422
1761397410672239400,5.5652392578125,-0.10827267915010452,-0.30130040645599365,-0.6204680800437927
1761397410691616300,5.5846162109375,0.0036650835536420345,-0.1423274129629135,-0.6784985661506653
1761397410710979800,5.603979736328125,0.20020519196987152,-0.19287502765655518,-0.5752654075622559
1761397410730370300,5.623370361328125,0.2107423096895218,-0.27533939480781555,-0.10705098509788513
1761397410749747200,5.642747314453125,0.15958385169506073,-0.17256435751914978,0.5289937257766724
1761397410769110500,5.662110595703125,0.09498675167560577,-0.13331741094589233,0.9998042583465576
1761397410788501000,5.6815009765625,0.033443886786699295,-0.17454960942268372,1.048366665840149
1761397410807878000,5.7008779296875,-0.04718795046210289,-0.07391251623630524,0.49173203110694885
1761397410827241200,5.7202412109375,-0.08368607610464096,0.19974705576896667,-0.2244863659143448
1761397410846631700,5.739631591796875,0.15087927877902985,0.7128587365150452,-0.3295520842075348
1761397410866008600,5.759008544921875,0.7279772162437439,1.2869024276733398,0.26602399349212646
1761397410885372200,5.7783720703125,1.2213890552520752,-0.11438114941120148,-0.19470755755901337
1761397410904762600,5.7977626953125,1.1914576292037964,-2.7098710536956787,-2.221193313598633
1761397410924139500,5.817139404296875,0.7281299233436584,-1.8559067249298096,-2.368712902069092
1761397410943502800,5.8365029296875,0.26342788338661194,1.252847671508789,-0.633448600769043
1761397410962893300,5.855893310546875,0.48486000299453735,2.2341737747192383,-0.05115845799446106
1761397410982270200,5.875270263671875,0.790436327457428,1.0877662897109985,-0.3518480062484741
1761397411001633800,5.8946337890625,0.645207405090332,-0.2814478874206543,-1.142895221710205
1761397411021024000,5.91402392578125,0.5028799772262573,-0.5821374654769897,-2.302894115447998
1761397411040401200,5.933401123046875,0.5050179958343506,-0.0988045409321785,-3.066300630569458
1761397411059764500,5.952764404296875,0.45798271894454956,0.47111594676971436,-2.9235150814056396
1761397411079155000,5.972155029296875,0.2617480456829071,0.9932376146316528,-1.7876445055007935
1761397411098531800,5.99153173828125,0.31886225938796997,0.950325608253479,-0.6612421870231628
1761397411117895200,6.010895263671875,0.7598940134048462,0.47676628828048706,-0.11331216990947723
1761397411137285600,6.03028564453125,1.1627477407455444,0.19379130005836487,-0.00992626789957285
1761397411156662500,6.04966259765625,1.1198357343673706,0.016187451779842377,-0.02473931387066841
1761397411176026000,6.069026123046875,0.7362236380577087,-0.05131116881966591,0.02076880633831024
1761397411195416300,6.088416259765625,0.43736663460731506,0.21440738439559937,0.08108997344970703
1761397411214793500,6.10779345703125,0.2486148327589035,0.4375193417072296,-0.1250709742307663
1761397411234156800,6.12715673828125,0.2596100866794586,0.4405735731124878,-0.11590826511383057
1761397411253547300,6.14654736328125,0.46164780855178833,0.6279509663581848,0.47676628828048706
1761397411272924200,6.165924072265625,0.7568397521972656,0.959793746471405,1.1456440687179565
1761397411292287500,6.18528759765625,1.121057391166687,1.6294350624084473,1.7887134552001953
1761397411311678000,6.204677978515625,1.1051753759384155,0.21226942539215088,0.8102889060974121
1761397411331054800,6.224054931640625,0.9370396733283997,-2.2838051319122314,-1.1806150674819946
1761397411350418400,6.24341845703125,0.6365028619766235,-1.604084849357605,-0.9167290329933167
1761397411369809000,6.262808837890625,0.5544965863227844,1.1505308151245117,1.2172658443450928
1761397411389185800,6.282185791015625,1.462062954902649,1.9626522064208984,2.7146053314208984
1761397411408549000,6.301549072265625,2.1535420417785645,1.052947998046875,3.4207446575164795
1761397411427939600,6.320939697265625,2.1882076263427734,-0.6403206586837769,3.233520030975342
1761397411447316500,6.34031640625,2.0836000442504883,-1.6198142766952515,2.3100717067718506
1761397411466679800,6.3596796875,1.9559329748153687,-1.520246148109436,1.1755754947662354
1761397411486070500,6.379070556640625,1.4377816915512085,-1.0306520462036133,0.3689517378807068
1761397411505447400,6.398447509765625,0.6377245187759399,-0.265718549489975,-0.06826218217611313
1761397411524810800,6.417810791015625,-0.012827792204916477,0.28251686692237854,-0.23945212364196777
1761397411544201200,6.437201171875,-0.2829749882221222,0.465007483959198,-0.24220094084739685
1761397411563578000,6.456578125,-0.20555010437965393,0.393385648727417,-0.25212720036506653
1761397411582941400,6.47594140625,0.005650337319821119,0.08918370306491852,-0.1985253542661667
1761397411602332000,6.495331787109375,0.020463382825255394,-0.4760027229785919,0.06398624926805496
1761397411621708800,6.514708740234375,-0.09269607067108154,-0.7015580534934998,0.530062735080719
1761397411641072400,6.534072265625,-0.1829487532377243,-0.6274928450584412,0.8686248064041138
1761397411660462800,6.553462890625,-0.26999449729919434,-0.43950459361076355,0.9625425934791565
1761397411679839700,6.57283984375,-0.615428626537323,0.5966450572013855,1.1830583810806274
1761397411699203000,6.592203125,-0.8371661901473999,0.9275715351104736,0.8680139780044556
1761397411718593500,6.611593505859375,-0.49020493030548096,0.4491254389286041,0.3292466700077057
1761397411737970400,6.630970458984375,-0.06612421572208405,-0.2651077210903168,0.06719319522380829
1761397411757334000,6.650333984375,0.2011214643716812,-0.5273138880729675,0.20081603527069092
1761397411776724200,6.66972412109375,0.4175141155719757,-0.04611896723508835,0.353985995054245
1761397411796101000,6.68910107421875,0.5213581323623657,0.4103366434574127,0.12873606383800507
1761397411815464700,6.708464599609375,0.35566580295562744,0.1907370537519455,-0.4130854606628418
1761397411834855200,6.727855224609375,0.060779303312301636,-0.35765108466148376,-0.9258917570114136
1761397411854232000,6.747232177734375,-0.036039989441633224,-0.5173876285552979,-1.0837957859039307
1761397411873595400,6.766595458984375,0.0018325417768210173,-0.2483094036579132,-0.8651124238967896
1761397411892985900,6.78598583984375,-0.13713520765304565,-0.06551336497068405,-0.46073153614997864
1761397411912362800,6.80536279296875,-0.5207473039627075,-0.07864658534526825,-0.04840964451432228
1761397411931726300,6.824726318359375,-0.8568660020828247,-0.04749337583780289,0.19974705576896667
1761397411951116800,6.84411669921875,-0.9206995368003845,-0.05787777900695801,0.17531315982341766
1761397411970493700,6.86349365234375,-0.7455390691757202,-0.37353309988975525,-0.014202198944985867
1761397411989857000,6.88285693359375,-0.5042544007301331,-0.35978904366493225,0.024128466844558716
1761397412009247500,6.90224755859375,-0.4456130862236023,-0.006413896102458239,0.2898470163345337
1761397412028624400,6.921624267578125,-0.525175929069519,-0.3042019307613373,0.24525517225265503
1761397412047988000,6.940988037109375,-0.5726693272590637,-0.3733803927898407,0.24785128235816956
1761397412067378200,6.960378173828125,-0.34405970573425293,0.09773556143045425,0.6418477296829224
1761397412086755000,6.979755126953125,0.039857782423496246,-0.47859883308410645,0.15286453068256378
1761397412106118700,6.99911865234375,0.51341712474823,-1.2771289348602295,-1.173284888267517
1761397412125509000,7.018509033203125,0.7408050298690796,-0.969261884689331,-1.9718149900436401
1761397412144886000,7.037885986328125,0.8189934492111206,-0.14064757525920868,-1.3598986864089966
1761397412164254500,7.05725439453125,0.6175665855407715,0.36971530318260193,0.48669254779815674
1761397412183644700,7.076644775390625,0.2486148327589035,0.35322242975234985,1.9185185432434082
1761397412203021600,7.096021484375,-0.007330167107284069,0.13469181954860687,2.4924094676971436
1761397412222385200,7.11538525390625,-0.021226942539215088,0.33169007301330566,2.39528489112854
1761397412241775600,7.134775634765625,0.018783552572131157,0.9145910739898682,1.7655012607574463
1761397412261152500,7.154152587890625,-0.23807771503925323,1.4863440990447998,0.982700526714325
1761397412280515800,7.173515869140625,-0.7047650218009949,1.864611268043518,0.6021426916122437
1761397412299906300,7.19290625,-0.7166765332221985,2.1245267391204834,0.3301629424095154
1761397412319283200,7.212283203125,-0.14553436636924744,2.493936538696289,-0.5563291311264038
1761397412338646800,7.231646728515625,0.2716743052005768,2.673678398132324,-1.8258224725723267
1761397412358037200,7.251037353515625,0.2476985603570938,1.8297929763793945,-3.0850841999053955
1761397412377414100,7.2704140625,0.13484452664852142,0.8548807501792908,-2.6565747261047363
1761397412396777500,7.289777587890625,-0.8586985468864441,-0.11285403370857239,-0.8034168481826782
1761397412416168000,7.30916796875,-1.5911043882369995,-1.4095300436019897,-0.603975236415863
1761397412435544800,7.328544921875,-1.4390034675598145,-1.2621631622314453,-2.0408406257629395
1761397412454908400,7.347908447265625,-1.1859599351882935,0.3662029206752777,-2.4287288188934326
1761397412474298600,7.367298583984375,-1.0495883226394653,1.1080769300460815,-1.5048222541809082
1761397412493675500,7.386675537109375,-0.8138012886047363,0.2980934679508209,-0.30756160616874695
1761397412513039000,7.4060390625,-0.7450809478759766,-0.8725953102111816,0.8980981707572937
1761397412532429600,7.4254296875,-0.8545753359794617,-1.5323103666305542,1.602405071258545
1761397412551806500,7.444806396484375,-0.7953231334686279,-1.53047776222229,1.3212625980377197
1761397412571169800,7.464169677734375,-0.530062735080719,-1.1682454347610474,0.90909343957901
1761397412590560300,7.483560302734375,-0.31382277607917786,-0.9776610136032104,0.8622109293937683
1761397412609937200,7.502937255859375,-0.24601873755455017,-0.9361234307289124,1.0602781772613525
1761397412629300700,7.52230078125,-0.23991025984287262,-1.2001621723175049,1.460841178894043
1761397412648691200,7.541691162109375,-0.35978904366493225,-1.4467917680740356,1.8099404573440552
1761397412668068000,7.561068115234375,-0.3533751368522644,-1.3673815727233887,1.804900884628296
1761397412687431400,7.580431396484375,-0.24601873755455017,-0.8999307155609131,1.2000094652175903
1761397412706822000,7.59982177734375,-0.3571929335594177,-0.15927842259407043,0.4349232614040375
1761397412726198800,7.61919873046875,-0.3602471649646759,0.19867807626724243,0.2698417901992798
1761397412745562400,7.638562255859375,-0.217308908700943,-0.543806791305542,0.5012001991271973
1761397412764952600,7.65795263671875,-0.2495311051607132,-1.8383448123931885,-0.5435013771057129
1761397412784329700,7.677329833984375,-0.17409147322177887,-1.7839794158935547,-2.1048269271850586
1761397412803693000,7.696693115234375,0.09239064902067184,-0.5688515305519104,-2.4827888011932373
1761397412823083500,7.71608349609375,0.13026317954063416,0.1363716572523117,-1.6868547201156616
1761397412842460400,7.73546044921875,-0.24021568894386292,0.1188097894191742,-0.6090146899223328
1761397412861823700,7.75482373046875,-0.8408312797546387,-0.05726693198084831,-0.025350160896778107
1761397412881214200,7.774214111328125,-1.0034693479537964,0.15652960538864136,-0.11621369421482086
1761397412900591000,7.793591064453125,-0.6375718116760254,0.520594596862793,-0.6814001202583313
1761397412919954700,7.81295458984375,-0.12812520563602448,0.3205420970916748,-0.9261971712112427
1761397412939345200,7.83234521484375,0.3115321099758148,-0.26067906618118286,-0.5404471158981323
1761397412958722000,7.85172216796875,0.4390464723110199,-0.4909684956073761,-0.14431266486644745
1761397412978085400,7.87108544921875,0.3742966651916504,-0.3104631304740906,0.15958385169506073
1761397412997475800,7.890475830078125,0.1563768982887268,-0.2026485800743103,0.4718795120716095
1761397413016852700,7.909852783203125,-0.08063183724880219,-0.025961007922887802,0.8516737818717957
1761397413036216300,7.92921630859375,-0.2214321345090866,0.1525591015815735,1.0537115335464478
1761397413055606500,7.9486064453125,-0.28068432211875916,0.008704573847353458,1.122279167175293
1761397413074983700,7.967983642578125,-0.0594048947095871,-0.0030542362947016954,1.2806413173675537
1761397413094347000,7.987346923828125,0.13621893525123596,0.559841513633728,1.3415732383728027
1761397413113737500,8.006737548828125,-0.30435463786125183,0.16034740209579468,0.7942541241645813
1761397413133114400,8.0261142578125,-0.6846070885658264,-0.6843016147613525,-1.0135482549667358
1761397413152477700,8.045477783203125,-0.4869979918003082,-0.3820849657058716,-3.523672342300415
1761397413171868200,8.0648681640625,0.060779303312301636,0.06765133142471313,-3.8782691955566406
1761397413191245000,8.0842451171875,0.5393781065940857,-0.050547610968351364,-1.7926839590072632
1761397413210608600,8.103608642578125,0.16401249170303345,-0.37597647309303284,0.3196258246898651
1761397413229999000,8.1229990234375,-0.4283566474914551,-0.8287670016288757,1.4249539375305176
1761397413249376000,8.1423759765625,-0.7182036638259888,-1.0902096033096313,1.4999353885650635
1761397413268739300,8.1617392578125,-0.6103891134262085,-0.6174138784408569,1.054322361946106
1761397413288129800,8.1811298828125,-0.5276193022727966,0.1056765764951706,0.5716003179550171
1761397413307506700,8.200506591796875,-0.4424061179161072,0.4653128981590271,0.42667680978775024
1761397413326883600,8.219883544921874,-0.34192174673080444,0.3370349705219269,0.5825955867767334
1761397413346260500,8.239260498046875,-0.4091149568557739,0.3083251416683197,1.0043855905532837
1761397413365637600,8.2586376953125,-0.48394373059272766,0.22616620361804962,1.4429739713668823
1761397413385001000,8.2780009765625,-0.4259132444858551,0.2736595869064331,1.4185400009155273
1761397413404391400,8.297391357421875,-0.2648022770881653,0.43232715129852295,1.097845196723938
1761397413423768300,8.316768310546875,0.10033166408538818,0.4369085133075714,0.8084563612937927
1761397413443132000,8.3361318359375,0.22463907301425934,0.2148655205965042,0.8767185211181641
1761397413462522000,8.355522216796874,-0.14309096336364746,-0.16431790590286255,0.7524111270904541
1761397413481899000,8.37489892578125,-0.4572191834449768,-0.3787252902984619,-0.4280512034893036
1761397413501262600,8.3942626953125,-0.2877090573310852,-0.22647161781787872,-2.5296711921691895
1761397413520653000,8.413653076171874,0.3345915973186493,0.021379653364419937,-3.570096731185913
1761397413540030000,8.433030029296875,0.8779402375221252,-0.09910997003316879,-2.4432363510131836
1761397413559393300,8.452393310546874,0.8782456517219543,-0.6099309921264648,-0.3640649616718292
1761397413578783700,8.47178369140625,0.3167243003845215,-0.9306257963180542,0.7812736630439758
1761397413598160600,8.49116064453125,-0.4509579837322235,-0.6545228362083435,0.6070294380187988
1761397413617524200,8.510524169921876,-0.9715525507926941,-0.14110571146011353,-0.1328592747449875
1761397413636914700,8.529914794921876,-1.0379822254180908,-0.01817270554602146,-0.7716528177261353
1761397413656291600,8.54929150390625,-0.7404996156692505,-0.36605021357536316,-0.779593825340271
1761397413675655000,8.568655029296876,-0.26846736669540405,-0.7456917762756348,0.10246963053941727
1761397413695045400,8.58804541015625,0.06612421572208405,-0.7290462255477905,1.2720893621444702
1761397413714422300,8.60742236328125,-0.04825693368911743,-0.6337540149688721,1.948297381401062
1761397413733785900,8.626785888671876,-0.277630090713501,-0.5967977643013,1.8479657173156738
1761397413753176000,8.646176025390625,-0.497229665517807,-0.20005246996879578,1.3249276876449585
1761397413772553200,8.66555322265625,-1.032789945602417,-0.5685460567474365,1.4138059616088867
1761397413791916500,8.68491650390625,-1.4467917680740356,-1.4270919561386108,1.6050012111663818
1761397413811307000,8.70430712890625,-1.4503041505813599,-1.5272709131240845,0.362995982170105
1761397413830684000,8.723683837890626,-0.8545753359794617,-0.8796200752258301,-2.3902454376220703
1761397413850047200,8.743047119140625,0.16523417830467224,0.6366555690765381,-4.413829803466797
1761397413869437700,8.762437744140625,0.5978667736053467,1.4648116827011108,-3.6632509231567383
1761397413888814600,8.781814697265625,-0.04718795046210289,1.1616787910461426,-1.5097090005874634
1761397413908178200,8.80117822265625,-0.469741553068161,-0.11667182296514511,0.41018393635749817
1761397413927568600,8.820568603515625,0.06917845457792282,-1.5338374376296997,1.9128681421279907
1761397413946945500,8.839945556640625,0.5876350402832031,-1.434574842453003,2.111240863800049
1761397413966308900,8.859308837890625,0.4793623983860016,-0.15118469297885895,1.051726222038269
1761397413985699300,8.87869921875,0.07040014863014221,0.8419002294540405,-0.17378604412078857
1761397414005076200,8.898076171875,-0.13988402485847473,0.9904888272285461,-0.8599202036857605
1761397414024439800,8.917439697265625,-0.21028417348861694,0.40514445304870605,-0.4106420576572418
1761397414043830300,8.936830322265624,-0.10934165865182877,-0.17302247881889343,0.7139277458190918
1761397414063207200,8.956207275390625,-0.0006108472589403391,0.12552911043167114,1.4353383779525757
1761397414082570500,8.975570556640625,-0.04993676394224167,0.7218687534332275,1.7604618072509766
1761397414101961000,8.9949609375,-0.24189551174640656,0.8034168481826782,1.9360803365707397
1761397414121337900,9.014337890625,-0.3578037917613983,0.50853031873703,1.6657804250717163
1761397414140701400,9.033701416015624,-0.4146125912666321,-0.27289602160453796,0.6575770974159241
1761397414160091600,9.053091552734376,-0.10766182839870453,-0.7253811359405518,-1.2352858781814575
1761397414179468500,9.072468505859375,0.2283041626214981,-0.28572380542755127,-2.843952178955078
1761397414198832000,9.09183203125,0.31916770339012146,0.019394399598240852,-2.9224460124969482
1761397414218222600,9.11122265625,0.30985227227211,-0.5395308136940002,-1.574916958808899
1761397414237599500,9.130599609375,0.027182703837752342,-0.7041541934013367,-0.37765631079673767
1761397414256962800,9.149962890625,-0.45859357714653015,-0.12583453953266144,-0.007941014133393764
1761397414276353300,9.169353271484376,-0.6247440576553345,0.30374380946159363,-0.2545706033706665
1761397414295730200,9.188730224609374,-0.2651077210903168,0.11560284346342087,-0.46989426016807556
1761397414315093800,9.20809375,0.1769929975271225,-0.29885703325271606,-0.4515688419342041
1761397414334484200,9.227484130859375,0.3683409094810486,-0.18126893043518066,-0.05925218388438225
1761397414353861000,9.246861083984374,0.2858765125274658,0.28786176443099976,0.6383354067802429
1761397414373238000,9.266238037109375,0.06795676052570343,0.6247440576553345,1.1619842052459717
1761397414392615000,9.285614990234375,-0.07895200699567795,0.5178457498550415,1.4593141078948975
1761397414411991800,9.30499169921875,-0.007330167107284069,0.0988045409321785,1.4942851066589355
1761397414431355400,9.32435546875,0.1253764033317566,-0.11086877435445786,1.428771734237671
1761397414450745900,9.343745849609375,0.23258009552955627,0.17363333702087402,1.3977712392807007
1761397414470122800,9.363122802734376,0.04947862774133682,0.1913478970527649,1.2530004978179932
1761397414489486000,9.382486083984375,-0.19928891956806183,0.04153761267662048,0.43232715129852295
1761397414508876500,9.40187646484375,-0.43706122040748596,0.19654010236263275,-1.0408837795257568
1761397414528253400,9.42125341796875,-0.29687178134918213,0.49738237261772156,-1.5999616384506226
1761397414547616800,9.44061669921875,0.021685076877474785,0.46012070775032043,-1.2865970134735107
1761397414567007200,9.46000732421875,0.12843063473701477,-0.02886253222823143,-0.9287932515144348
1761397414586384400,9.47938427734375,0.033443886786699295,-0.4614951014518738,-0.7078192830085754
1761397414605747700,9.498747802734375,-0.10521844029426575,-0.3802524209022522,-0.35322242975234985
1761397414625138200,9.51813818359375,-0.3968980014324188,0.03145863488316536,-0.12339114397764206
1761397414644515000,9.53751513671875,-0.4694361090660095,-0.07528692483901978,-0.13957859575748444
1761397414663878400,9.55687841796875,-0.17653486132621765,-0.13576079905033112,-0.2518217861652374
1761397414683268900,9.576268798828124,-0.006108472589403391,0.17470231652259827,-0.36666107177734375
1761397414702645800,9.595645751953125,-0.16752485930919647,0.2808370292186737,-0.22845686972141266
1761397414722009300,9.61500927734375,-0.2104368805885315,0.21150586009025574,0.17836740612983704
1761397414741399800,9.63439990234375,-0.17913095653057098,0.5325061082839966,0.6682668924331665
1761397414760776700,9.653776611328125,-0.1772984117269516,0.7151494026184082,1.1874871253967285
1761397414780140000,9.67314013671875,-0.14629791676998138,0.710262656211853,1.3547065258026123
1761397414799530500,9.692530517578126,-0.182643324136734,0.6549809575080872,1.137092113494873
1761397414818907400,9.711907470703125,-0.2919849753379822,0.6445965766906738,0.9990406632423401
1761397414838271000,9.73127099609375,-0.1985253542661667,0.752105712890625,1.0819631814956665
1761397414857661400,9.750661376953126,0.30038413405418396,0.8793146014213562,1.6578394174575806
1761397414877038300,9.770038330078124,0.16279079020023346,-0.2777827978134155,1.1670236587524414
1761397414896401700,9.789401611328126,-0.39567631483078003,-0.4756973087787628,-1.2386455535888672
