time,seconds_elapsed,z,y,x
1761396664406601200,0.224601318359375,0.08585643768310547,0.12046623229980469,-0.3047370910644531
1761396664425978400,0.243978271484375,-0.2048797607421875,0.2085409164428711,-0.07751035690307617
1761396664445355500,0.26335546875,-0.06497859954833984,0.17466402053833008,-0.02921772003173828
1761396664464732700,0.282732666015625,0.08580493927001953,0.06627941131591797,-0.19820725917816162
1761396664484109800,0.30210986328125,-0.16546154022216797,0.16844701766967773,-0.14120781421661377
1761396664503487000,0.321487060546875,-0.2664318084716797,0.1357283592224121,0.2659956216812134
1761396664522864000,0.340864013671875,-0.09116649627685547,0.1398792266845703,0.2642894983291626
1761396664542241500,0.360241455078125,-0.22663068771362305,0.12265729904174805,0.05174362659454346
1761396664561618400,0.379618408203125,-0.3148794174194336,0.16649150848388672,0.05283510684967041
1761396664580995800,0.398995849609375,-0.985628604888916,0.31729841232299805,0.19118428230285645
1761396664600373000,0.418373046875,-1.3282661437988281,0.11314821243286133,0.1246253252029419
1761396664619750100,0.437750244140625,-0.7347517013549805,0.3333091735839844,-0.2129124402999878
1761396664639127300,0.457127197265625,-0.3993854522705078,0.1637558937072754,0.3845701217651367
1761396664658504400,0.47650439453125,-0.28617191314697266,0.25544214248657227,0.5240417122840881
1761396664677881600,0.495881591796875,0.07459545135498047,0.2715768814086914,0.22145318984985352
1761396664697258800,0.5152587890625,0.21897506713867188,0.11432170867919922,0.0059316158294677734
1761396664716636000,0.534635986328125,0.00604248046875,0.2649674415588379,-0.19126379489898682
1761396664736013000,0.554012939453125,-0.39261770248413086,0.2773623466491699,-0.021088361740112305
1761396664755390500,0.573390380859375,-0.24724578857421875,0.29810094833374023,0.029971003532409668
1761396664774767600,0.592767578125,-0.13871288299560547,0.385653018951416,-0.016820907592773438
1761396664794144800,0.612144775390625,-0.1413402557373047,0.35906982421875,-0.023581862449645996
1761396664813522000,0.63152197265625,0.1622314453125,0.3415188789367676,0.14143842458724976
1761396664832899000,0.650899169921875,-0.3599734306335449,0.3569350242614746,0.36726880073547363
1761396664852276200,0.670276123046875,-1.0718879699707031,0.4478030204772949,0.1299266219139099
1761396664871653400,0.6896533203125,-1.0575571060180664,0.46253490447998047,-0.04418540000915527
1761396664891030500,0.709030517578125,-1.123225212097168,0.29382896423339844,-0.04057002067565918
1761396664910408000,0.728407958984375,-0.6471710205078125,0.09914398193359375,0.05159884691238403
1761396664929784800,0.747784912109375,-0.5001840591430664,0.36565113067626953,0.3418387174606323
1761396664949162200,0.767162353515625,-0.9802441596984863,0.37723731994628906,0.4867396056652069
1761396664968539400,0.786539306640625,-1.3204607963562012,0.3345513343811035,0.8836351633071899
1761396664987916500,0.80591650390625,0.06467151641845703,1.0362586975097656,0.7779099941253662
1761396665007293700,0.825293701171875,0.9409351348876953,1.0983805656433105,0.811162531375885
1761396665026657300,0.8446572265625,2.306488037109375,0.22826147079467773,1.114627480506897
1761396665046048000,0.864048095703125,2.053924560546875,-0.2805919647216797,1.3590325117111206
1761396665065425200,0.883425048828125,-0.9599771499633789,-1.2149653434753418,1.012587070465088
1761396665084789000,0.9027890625,-4.334272384643555,-2.3282432556152344,-0.9841231107711792
1761396665104179700,0.9221796875,-4.9560651779174805,-3.0975770950317383,-3.2390732765197754
1761396665123556900,0.941556884765625,-3.037959575653076,-2.5483670234680176,-3.799996852874756
1761396665142934000,0.96093408203125,-1.6109838485717773,-1.8745646476745605,-3.1831002235412598
1761396665162311200,0.980311279296875,-4.67870569229126,-2.0568482875823975,-1.8566339015960693
1761396665181688300,0.999688232421875,-6.660192489624023,-2.3627963066101074,-1.2135788202285767
1761396665201065500,1.0190654296875,-6.017347812652588,-2.3254411220550537,-0.9535003900527954
1761396665220442600,1.038442626953125,-7.5446367263793945,-1.1460466384887695,-1.4767282009124756
1761396665239819800,1.05781982421875,-7.3742594718933105,-1.317197561264038,0.3336753249168396
1761396665259183600,1.07718359375,-6.480772018432617,-2.915243148803711,0.6040970683097839
1761396665278574000,1.096573974609375,-4.568331718444824,-0.29889655113220215,-9.149786949157715
1761396665297951200,1.115951171875,2.713064193725586,-3.528520107269287,-1.3723807334899902
1761396665317315000,1.135315185546875,7.959816932678223,-1.5567325353622437,0.4658382534980774
1761396665336705800,1.154705810546875,9.578179359436035,-0.013579368591308594,-0.2800600528717041
1761396665356083000,1.1740830078125,15.647175788879395,0.9481775760650635,1.3147363662719727
1761396665375446500,1.193446533203125,21.41008758544922,0.4990503787994385,3.905116319656372
1761396665394837200,1.212837158203125,21.275190353393555,0.07334613800048828,6.464725017547607
1761396665414214400,1.23221435546875,15.835026741027832,1.6284434795379639,8.20002555847168
1761396665433578200,1.251578125,10.804569244384766,2.788342237472534,8.271093368530273
1761396665452968700,1.27096875,5.840394020080566,3.000349998474121,5.7660112380981445
1761396665472346000,1.29034619140625,2.658458709716797,2.4117908477783203,2.6009137630462646
1761396665491709700,1.309709716796875,0.3986663818359375,0.7988078594207764,1.2736144065856934
1761396665511100400,1.329100341796875,-2.5022077560424805,-0.4317150115966797,0.5781962871551514
1761396665530477600,1.3484775390625,-4.895874977111816,-1.4952878952026367,-0.1974315643310547
1761396665549841200,1.367841064453125,-7.239426136016846,-3.372529983520508,0.05385184288024902
1761396665569232000,1.38723193359375,-9.094221115112305,-4.38932466506958,-1.7069566249847412
1761396665588609000,1.406609130859375,-10.295736312866211,-5.110981464385986,-4.231844902038574
1761396665607972600,1.42597265625,-10.62252426147461,-6.044547080993652,-6.945055961608887
1761396665627363300,1.44536328125,-10.191564559936523,-6.553876876831055,-7.875576972961426
1761396665646740500,1.464740478515625,-10.077900886535645,-6.613274574279785,-8.267396926879883
1761396665666118000,1.484117919921875,-10.199451446533203,-6.452821254730225,-8.557806015014648
1761396665685495000,1.5034951171875,-10.278783798217773,-6.027215480804443,-8.302978515625
1761396665704872200,1.5228720703125,-10.45849609375,-5.032968044281006,-8.055441856384277
1761396665724235800,1.54223583984375,-9.172224044799805,-2.9829583168029785,-5.5764360427856445
1761396665743626500,1.56162646484375,-4.335651397705078,-0.8344507217407227,-0.3167147636413574
1761396665763003600,1.581003662109375,4.681604862213135,2.391915798187256,1.733579158782959
1761396665782367200,1.6003671875,11.133296012878418,6.2256011962890625,2.259761333465576
1761396665801758000,1.619758056640625,18.37032699584961,8.402944564819336,11.123473167419434
1761396665821135000,1.639135009765625,24.010391235351562,8.119384765625,26.05319595336914
1761396665840499000,1.6584990234375,14.868891716003418,8.138322830200195,26.90190315246582
1761396665859889700,1.6778896484375,4.8246846199035645,9.413444519042969,13.868372917175293
1761396665879266800,1.697266845703125,5.39386510848999,6.187297344207764,7.042829513549805
1761396665898630400,1.71663037109375,6.147202014923096,3.3957996368408203,3.331778049468994
1761396665918021000,1.736021240234375,1.809699535369873,1.3241305351257324,-0.025799274444580078
1761396665937398300,1.755398193359375,-3.5412352085113525,-0.007037639617919922,-2.201724052429199
1761396665956761900,1.774761962890625,-7.802717208862305,-1.6289377212524414,-2.260056972503662
1761396665976152600,1.794152587890625,-10.780413627624512,-3.205693244934082,-2.4004154205322266
1761396665995529700,1.81352978515625,-12.470184326171875,-4.393421649932861,-3.75787353515625
1761396666014893600,1.8328935546875,-13.23247241973877,-5.029470920562744,-6.188864707946777
1761396666034284300,1.8522841796875,-12.784330368041992,-5.701635360717773,-6.7024078369140625
1761396666053661400,1.871661376953125,-11.736620903015137,-5.760169982910156,-6.028879165649414
1761396666073025000,1.89102490234375,-10.522744178771973,-5.257627010345459,-6.131035804748535
1761396666092415700,1.910415771484375,-9.17123794555664,-5.091250896453857,-6.054567337036133
1761396666111793000,1.92979296875,-7.592134952545166,-4.143224716186523,-5.539795875549316
1761396666131156500,1.949156494140625,-4.62661600112915,-2.224695920944214,-3.7126400470733643
1761396666150547200,1.968547119140625,2.8776345252990723,1.1713390350341797,-0.6605563163757324
1761396666169924400,1.98792431640625,11.660102844238281,5.788934707641602,1.888110876083374
1761396666189288200,2.0072880859375,16.90228271484375,7.374637603759766,5.7280683517456055
1761396666208678700,2.0266787109375,23.242862701416016,7.097995281219482,11.300742149353027
1761396666228056000,2.04605615234375,22.273544311523438,5.256696701049805,17.25210952758789
1761396666247419600,2.065419677734375,12.011484146118164,5.464275360107422,12.198099136352539
1761396666266810400,2.084810302734375,5.054807662963867,4.430049896240234,4.629263877868652
1761396666286187500,2.1041875,5.1408843994140625,1.4318995475769043,0.9871139526367188
1761396666305551000,2.123551025390625,3.737563133239746,-0.7549984455108643,-1.2841739654541016
1761396666324941800,2.14294189453125,-1.3431177139282227,-2.7053191661834717,-1.4632046222686768
1761396666344319000,2.162319091796875,-6.897099494934082,-4.78752326965332,-0.6541404724121094
1761396666363682800,2.181682861328125,-11.79037094116211,-6.017490386962891,-0.8213841915130615
1761396666383073300,2.2010732421875,-14.82358169555664,-6.3582539558410645,-2.7144041061401367
1761396666402450700,2.22045068359375,-16.88861846923828,-7.3992486000061035,-3.510629177093506
1761396666421814300,2.239814208984375,-17.923524856567383,-6.991715431213379,-4.810657501220703
1761396666441205000,2.259205078125,-16.82305908203125,-6.772237777709961,-5.365225791931152
1761396666460582100,2.27858203125,-14.172297477722168,-6.3699493408203125,-5.779088973999023
1761396666479945700,2.29794580078125,-11.241923332214355,-5.71438455581665,-5.4286699295043945
1761396666499336400,2.31733642578125,-8.421199798583984,-4.450162410736084,-4.8039045333862305
1761396666518713600,2.336713623046875,-4.307226181030273,-2.838700532913208,-2.7235875129699707
1761396666538077200,2.3560771484375,0.01862335205078125,-0.34474897384643555,-0.2196800708770752
1761396666557468000,2.375468017578125,5.731207847595215,1.8482699394226074,2.4817333221435547
1761396666576845000,2.394844970703125,14.189690589904785,4.444545269012451,4.5302581787109375
1761396666596209000,2.414208984375,22.873306274414062,6.799892425537109,9.581047058105469
1761396666615599600,2.433599609375,25.300338745117188,7.307745933532715,19.996326446533203
1761396666634976800,2.452976806640625,20.399078369140625,4.767541408538818,26.653810501098633
1761396666654340400,2.47234033203125,12.78895092010498,6.355989456176758,13.477514266967773
1761396666673731000,2.49173095703125,9.5086669921875,4.352996826171875,2.8040246963500977
1761396666693108200,2.511108154296875,9.447568893432617,2.527974843978882,-0.8637378215789795
1761396666712471800,2.530471923828125,5.290518760681152,0.9299581050872803,-0.8165249824523926
1761396666731862500,2.549862548828125,-2.631596088409424,-1.0678796768188477,-0.004616260528564453
1761396666751239700,2.56923974609375,-9.800511360168457,-2.6607446670532227,-0.7025818824768066
1761396666770603500,2.588603515625,-14.23994255065918,-3.6723318099975586,-2.497530937194824
1761396666789994200,2.607994140625,-15.770923614501953,-4.6872334480285645,-4.352731704711914
1761396666809371400,2.627371337890625,-15.013591766357422,-5.4762139320373535,-6.14130973815918
1761396666828735000,2.64673486328125,-13.166402816772461,-5.239527702331543,-7.073378562927246
1761396666848125700,2.666125732421875,-12.666857719421387,-5.079375267028809,-4.988091945648193
1761396666867502800,2.6855029296875,-13.770800590515137,-5.05919075012207,-2.5442590713500977
1761396666886866400,2.704866455078125,-12.18842601776123,-4.054168701171875,-3.670523166656494
1761396666906257200,2.724257080078125,-8.578010559082031,-3.63189435005188,-4.7431230545043945
1761396666925634300,2.74363427734375,-3.090550422668457,-3.0667388439178467,-2.8905858993530273
1761396666944998100,2.762998046875,3.6767349243164062,-2.125732421875,1.3721134662628174
1761396666964388900,2.782388916015625,8.165726661682129,0.15401077270507812,1.4774434566497803
1761396666983766000,2.80176611328125,8.374550819396973,3.590757369995117,-2.9724888801574707
1761396667003129600,2.821129638671875,12.677495002746582,8.58519458770752,-1.0912678241729736
1761396667022520300,2.840520263671875,26.412315368652344,6.734352111816406,15.187969207763672
1761396667041897500,2.8598974609375,31.369657516479492,1.4537017345428467,22.054046630859375
1761396667061261000,2.879260986328125,21.613967895507812,3.1918065547943115,7.2801995277404785
1761396667080651800,2.89865185546875,13.105128288269043,3.4213132858276367,1.6400809288024902
1761396667100029000,2.91802880859375,6.293109893798828,2.081209182739258,2.268503427505493
1761396667119392800,2.937392822265625,-2.094233989715576,-0.034502506256103516,1.4089438915252686
1761396667138783200,2.956783203125,-8.787662506103516,-2.423855781555176,1.0209319591522217
1761396667158160600,2.97616064453125,-12.234338760375977,-4.486731052398682,1.290298342704773
1761396667177524200,2.995524169921875,-13.855789184570312,-6.099663257598877,0.6458472013473511
1761396667196915000,3.0149150390625,-15.013978004455566,-7.274341583251953,-1.3514366149902344
1761396667216292000,3.0342919921875,-15.786771774291992,-8.111379623413086,-3.535491466522217
1761396667235655700,3.05365576171875,-15.252849578857422,-8.289321899414062,-4.335808753967285
1761396667255046400,3.07304638671875,-13.724660873413086,-8.36052131652832,-3.0225653648376465
1761396667274423600,3.092423583984375,-12.48509407043457,-8.257696151733398,-1.0756850242614746
1761396667293787400,3.111787353515625,-11.746061325073242,-7.454738140106201,0.23168790340423584
1761396667313177900,3.131177734375,-11.977864265441895,-6.211020469665527,0.9163048267364502
1761396667332555300,3.15055517578125,-9.275323867797852,-4.409811019897461,0.9487833976745605
1761396667351918800,3.1699189453125,-1.401075839996338,-1.879314661026001,1.55593740940094
1761396667371309600,3.1893095703125,10.447105407714844,0.7635979652404785,3.3177480697631836
1761396667390686700,3.208686767578125,16.59981918334961,4.963042259216309,3.558840274810791
1761396667410050300,3.22805029296875,16.045095443725586,8.756187438964844,8.385722160339355
1761396667429441000,3.24744091796875,20.58804702758789,8.208742141723633,17.602216720581055
1761396667448818200,3.266818115234375,22.621681213378906,6.5790886878967285,14.969538688659668
1761396667468181800,3.286181640625,14.338407516479492,6.039560317993164,6.33526611328125
1761396667487572500,3.305572509765625,6.8647918701171875,5.201327800750732,1.6108787059783936
1761396667506949600,3.32494970703125,2.600520133972168,3.785961151123047,-0.29816675186157227
1761396667526313500,3.3443134765625,-2.4712324142456055,2.5026087760925293,-0.7816503047943115
1761396667545704200,3.3637041015625,-8.39755916595459,0.8128032684326172,0.04572606086730957
1761396667565081300,3.383081298828125,-12.318319320678711,-1.2425343990325928,0.1505826711654663
1761396667584445000,3.40244482421875,-13.375104904174805,-3.392240047454834,-0.414644718170166
1761396667603835600,3.421835693359375,-12.121105194091797,-5.130536079406738,-1.233723759651184
1761396667623212800,3.441212890625,-10.814860343933105,-6.10954475402832,-2.5436525344848633
1761396667642576600,3.46057666015625,-9.537293434143066,-6.538950443267822,-3.684390068054199
1761396667661967000,3.479967041015625,-8.791036605834961,-6.141981601715088,-4.855601787567139
1761396667681344300,3.49934423828125,-9.575565338134766,-5.660444736480713,-5.00037956237793
1761396667700721400,3.518721435546875,-11.227717399597168,-5.0611891746521,-4.284867763519287
1761396667720098800,3.538098876953125,-9.768099784851074,-5.065700531005859,-2.6292884349823
1761396667739476000,3.55747607421875,-4.862550258636475,-4.40285587310791,-0.41137558221817017
1761396667758839600,3.576839599609375,9.88874626159668,-2.227205991744995,-0.5750384330749512
1761396667778230300,3.596230224609375,22.77240562438965,-1.6386823654174805,1.4051495790481567
1761396667797607400,3.615607421875,29.499717712402344,0.10990023612976074,4.041614532470703
1761396667816971000,3.634970947265625,27.785266876220703,-1.0391035079956055,10.023975372314453
1761396667836361700,3.65436181640625,27.077924728393555,0.6455473899841309,8.89616870880127
1761396667855739000,3.67373876953125,15.509458541870117,2.7207045555114746,4.793406963348389
1761396667875102700,3.693102783203125,0.5445184707641602,4.147435188293457,0.9405273199081421
1761396667894493400,3.712493408203125,-3.584442615509033,6.276639461517334,-6.527348518371582
1761396667913870600,3.73187060546875,-4.548481464385986,6.174606800079346,-9.823050498962402
1761396667933234200,3.751234130859375,-3.0426502227783203,-1.472775936126709,-1.866058111190796
1761396667952625000,3.770625,-2.3145551681518555,-1.7111163139343262,-0.9332560300827026
1761396667972002000,3.790001953125,-4.808077812194824,-2.8027122020721436,-0.49352335929870605
1761396667991365600,3.80936572265625,-9.4876127243042,-3.7628862857818604,-1.5182545185089111
1761396668010756400,3.82875634765625,-12.849264144897461,-4.559604167938232,-2.711760997772217
1761396668030133500,3.848133544921875,-14.788050651550293,-4.7325897216796875,-4.097014904022217
1761396668049497300,3.867497314453125,-16.324316024780273,-4.685525417327881,-4.823805332183838
1761396668068887800,3.8868876953125,-15.475749969482422,-4.373249530792236,-5.020641326904297
1761396668088265200,3.90626513671875,-13.780080795288086,-4.009427070617676,-4.3516998291015625
1761396668107628800,3.92562890625,-12.73285961151123,-3.482255697250366,-3.6419918537139893
1761396668127019500,3.94501953125,-10.602518081665039,-3.084214687347412,-3.221996784210205
1761396668146396700,3.964396728515625,-5.751584053039551,-1.6466541290283203,-2.8520970344543457
1761396668165760300,3.98376025390625,-0.20080852508544922,-0.13154888153076172,0.002649068832397461
1761396668185151000,4.00315087890625,6.202981948852539,1.5382680892944336,2.461862802505493
1761396668204528000,4.022528076171875,11.307758331298828,3.7645559310913086,1.262648105621338
1761396668223892000,4.04189208984375,14.628982543945312,6.213293552398682,0.615107536315918
1761396668243282400,4.061282470703125,21.564125061035156,7.5475287437438965,5.008205413818359
1761396668262659600,4.08065966796875,27.840152740478516,4.062662124633789,12.039872169494629
1761396668282023400,4.1000234375,26.737810134887695,0.7713806629180908,13.059709548950195
1761396668301414100,4.1194140625,15.637707710266113,2.856046199798584,2.99481201171875
1761396668320791300,4.138791259765625,8.200529098510742,2.1360843181610107,-1.1092603206634521
1761396668340155000,4.15815478515625,4.048018455505371,1.5672364234924316,-2.1165754795074463
1761396668359545600,4.177545654296875,0.20242786407470703,0.9690208435058594,-1.888244867324829
1761396668378922800,4.1969228515625,-2.6064977645874023,0.14024829864501953,-0.9309021234512329
1761396668398286300,4.216286376953125,-5.171475887298584,-1.2110533714294434,0.37749677896499634
1761396668417677000,4.235677001953125,-7.064121723175049,-1.9794747829437256,1.6889474391937256
1761396668437054200,4.25505419921875,-8.617907524108887,-2.5891482830047607,2.965475082397461
1761396668456418000,4.27441796875,-9.448750495910645,-2.848654270172119,3.313689947128296
1761396668475808800,4.293808837890625,-10.985861778259277,-2.9482624530792236,3.0812644958496094
1761396668495186000,4.31318603515625,-12.131734848022461,-3.4020578861236572,3.0617423057556152
1761396668514563000,4.33256298828125,-12.145472526550293,-3.476299524307251,3.329272985458374
1761396668533940200,4.351940185546875,-10.58521842956543,-3.2272520065307617,3.8398895263671875
1761396668553317400,4.3713173828125,-9.55162525177002,-3.1036384105682373,3.610790967941284
1761396668572681000,4.390680908203125,-5.038212776184082,-2.501995086669922,2.01174259185791
1761396668592071700,4.41007177734375,2.448446273803711,-1.1082563400268555,1.452840805053711
1761396668611448800,4.42944873046875,8.127504348754883,-0.1387157440185547,0.3576020300388336
1761396668630812700,4.448812744140625,10.823253631591797,2.2938590049743652,-2.9042322635650635
1761396668650203100,4.468203125,4.587988376617432,6.952770709991455,-7.082713603973389
1761396668669580500,4.48758056640625,-0.24098634719848633,10.687644958496094,-6.711284160614014
1761396668688944000,4.506944091796875,8.77832317352295,10.28292465209961,-2.642496109008789
1761396668708334800,4.5263349609375,13.022125244140625,6.561194896697998,-1.6786329746246338
1761396668727712000,4.5457119140625,10.14093017578125,2.7111563682556152,-1.6765365600585938
1761396668747075600,4.56507568359375,8.437260627746582,0.9856739044189453,5.053195953369141
1761396668766466300,4.58446630859375,5.088844299316406,0.47689294815063477,8.665729522705078
1761396668785843500,4.603843505859375,0.07602643966674805,-0.7264461517333984,6.839534759521484
1761396668805207000,4.62320703125,-6.607975006103516,-1.6043047904968262,1.246950387954712
1761396668824597800,4.64259765625,-8.773380279541016,-2.7807981967926025,-0.3181750178337097
1761396668843975000,4.661974853515625,-8.102432250976562,-2.2316932678222656,-0.8664557337760925
1761396668863338800,4.6813388671875,-7.013287544250488,-2.867311716079712,-1.8715957403182983
1761396668882729500,4.7007294921875,-7.1868133544921875,-4.128033638000488,-0.7356665134429932
1761396668902106600,4.720106689453125,-8.278203964233398,-5.255174160003662,0.18752142786979675
1761396668921483800,4.73948388671875,-6.650702476501465,-5.878274917602539,0.5864444971084595
1761396668940861000,4.75886083984375,-5.487228870391846,-5.946950912475586,1.0261167287826538
1761396668960238000,4.778238037109375,-3.793215751647949,-5.899572372436523,1.9317033290863037
1761396668979601700,4.7976015625,-1.5203027725219727,-4.863315582275391,1.3704445362091064
1761396668998992400,4.816992431640625,1.9030942916870117,-2.9539737701416016,-0.4390653371810913
1761396669018369500,4.83636962890625,5.107394218444824,-1.0364227294921875,-0.3971589207649231
1761396669037733400,4.8557333984375,3.78167724609375,2.5299172401428223,-0.8661144375801086
1761396669057123800,4.875123779296875,1.6600251197814941,6.499613285064697,-6.162465572357178
1761396669076501200,4.894501220703125,1.6040263175964355,6.606259822845459,-2.9275548458099365
1761396669095864800,4.91386474609375,8.112646102905273,2.4901280403137207,3.0487546920776367
1761396669115255600,4.933255615234375,15.675887107849121,2.053842067718506,2.238285779953003
1761396669134632700,4.9526328125,15.259086608886719,3.0204992294311523,-0.2743583023548126
1761396669153996300,4.971996337890625,5.14562463760376,3.2175660133361816,-0.18250879645347595
1761396669173387000,4.991386962890625,-4.172926902770996,2.0611705780029297,1.5800995826721191
1761396669192764200,5.01076416015625,-7.5800676345825195,0.0968923568725586,2.2192180156707764
1761396669212127700,5.030127685546875,-6.712709426879883,-1.1162376403808594,1.4678115844726562
1761396669231518500,5.0495185546875,-3.678973913192749,-1.880061149597168,0.3433579206466675
1761396669250895600,5.0688955078125,-1.7380290031433105,-2.9590466022491455,-0.19658294320106506
1761396669270259500,5.088259521484375,-0.15334606170654297,-3.9663875102996826,-0.35153231024742126
1761396669289650200,5.107650146484375,0.327146053314209,-5.220290184020996,-0.16306596994400024
1761396669309027300,5.12702734375,-1.34352445602417,-5.81572961807251,0.07500088214874268
1761396669328391000,5.146390869140625,-3.188675880432129,-5.530046463012695,0.8628234267234802
1761396669347781600,5.16578173828125,-4.404504776000977,-3.9865856170654297,0.10960537195205688
1761396669367158800,5.18515869140625,-3.296844482421875,-2.002312660217285,-0.6464716792106628
1761396669386522400,5.2045224609375,-0.12112855911254883,-1.0154004096984863,0.5716605186462402
1761396669405913000,5.2239130859375,-0.2577376365661621,2.0242538452148438,-0.7589880228042603
1761396669425290200,5.243290283203125,-1.6791727542877197,3.7176284790039062,-1.0207821130752563
1761396669444654000,5.262654052734375,-2.623988389968872,4.18994140625,0.834924042224884
1761396669464044500,5.28204443359375,0.7477259635925293,5.035895347595215,1.552143931388855
1761396669483421700,5.301421630859375,4.773367404937744,4.178201675415039,1.183996319770813
1761396669502785500,5.32078564453125,5.542752265930176,4.455114841461182,-0.5543704032897949
1761396669522176300,5.34017626953125,5.0283589363098145,3.095776081085205,0.679887592792511
1761396669541553400,5.359553466796875,1.515920639038086,-0.06688690185546875,2.937300443649292
1761396669560917000,5.3789169921875,-2.2493820190429688,-2.4133214950561523,1.9863699674606323
1761396669580307700,5.3983076171875,-3.443617582321167,-3.168588161468506,-1.0174643993377686
1761396669599684900,5.417684814453125,-2.900681495666504,-3.1601245403289795,-2.670790672302246
1761396669619048400,5.43704833984375,-1.8651299476623535,-3.6741647720336914,-1.7645944356918335
1761396669638439200,5.456439208984375,-1.5896592140197754,-4.242349624633789,0.02970755100250244
1761396669657816300,5.47581640625,-2.8912391662597656,-4.377913951873779,1.1304974555969238
1761396669677180200,5.49518017578125,-4.807746887207031,-4.510977745056152,1.3374110460281372
1761396669696570600,5.514570556640625,-5.171456336975098,-4.619887351989746,0.8758553862571716
1761396669715947800,5.53394775390625,-3.5321011543273926,-4.133712291717529,0.41967082023620605
1761396669735311600,5.5533115234375,-1.6093783378601074,-3.495159864425659,0.1445082426071167
1761396669754702300,5.572702392578125,-0.7157573699951172,-2.698237895965576,0.2564232349395752
1761396669774079500,5.59207958984375,0.6382174491882324,-1.47861909866333,0.48865005373954773
1761396669793443000,5.611443115234375,0.8965721130371094,0.4367198944091797,-0.19166332483291626
1761396669812833800,5.630833740234375,-1.0577454566955566,1.6432867050170898,0.1612236499786377
1761396669832211000,5.6502109375,-0.6879262924194336,2.276407241821289,0.4501491189002991
1761396669851574500,5.669574462890625,2.797600746154785,2.9386844635009766,-0.9090042114257812
1761396669870965200,5.68896533203125,7.158036708831787,2.514432430267334,-1.797504186630249
1761396669890342400,5.70834228515625,11.278949737548828,2.1338839530944824,-1.8186994791030884
1761396669909706200,5.727706298828125,9.961917877197266,-0.7108221054077148,0.7289141416549683
1761396669929096700,5.7470966796875,2.926791191101074,-2.8520333766937256,2.142026424407959
1761396669948473900,5.766473876953125,-4.328145980834961,-3.7768685817718506,1.7562370300292969
1761396669967837700,5.785837646484375,-8.221670150756836,-4.417018413543701,1.0607008934020996
1761396669987228400,5.805228515625,-8.671426773071289,-4.938261985778809,0.6432540416717529
1761396670006605600,5.82460546875,-7.55064058303833,-4.596975803375244,0.7587462663650513
1761396670025969200,5.84396923828125,-4.580322742462158,-4.008810043334961,1.8745746612548828
1761396670045359900,5.86335986328125,-0.7512359619140625,-3.145772933959961,1.1160709857940674
1761396670064737000,5.882737060546875,0.7574605941772461,-2.6705408096313477,0.41552793979644775
1761396670084100600,5.9021005859375,0.4395637512207031,-2.139803886413574,0.7676399946212769
1761396670103491300,5.9214912109375,-0.1431264877319336,-1.1718816757202148,1.083486557006836
1761396670122868500,5.940868408203125,0.35585975646972656,-0.3521099090576172,1.5540540218353271
1761396670142232300,5.960232421875,1.4241399765014648,0.2576909065246582,1.5819575786590576
1761396670161623000,5.979623046875,2.9181699752807617,1.1299290657043457,-0.688014805316925
1761396670181000000,5.999,2.9163131713867188,3.7061662673950195,-3.8753342628479004
1761396670200363800,6.01836376953125,2.1805763244628906,7.36928129196167,-2.692718505859375
1761396670219754500,6.03775439453125,1.3077325820922852,8.295904159545898,1.6580451726913452
1761396670239131600,6.057131591796875,2.229461669921875,7.27573299407959,3.7199525833129883
1761396670258495200,6.0764951171875,10.561592102050781,3.930886745452881,7.500591278076172
1761396670277886000,6.095885986328125,17.21666717529297,-0.41150689125061035,11.969995498657227
1761396670297263000,6.11526318359375,13.084736824035645,-1.9631515741348267,9.1585111618042
1761396670316626700,6.134626708984375,5.270657539367676,-0.6805100440979004,1.5556639432907104
1761396670336017400,6.154017333984375,0.7457637786865234,0.2790951728820801,-3.386627197265625
1761396670355394600,6.17339453125,-0.46464061737060547,0.4829578399658203,-3.6971545219421387
1761396670374758400,6.19275830078125,-2.3360166549682617,-0.5249588489532471,-2.152773857116699
1761396670394149000,6.212149169921875,-4.966196537017822,-1.570007085800171,-1.7386682033538818
1761396670413526300,6.2315263671875,-6.6746439933776855,-2.279057502746582,-2.1435372829437256
1761396670432889900,6.250889892578125,-7.501220226287842,-3.084066390991211,-1.7922481298446655
1761396670452280600,6.270280517578125,-7.741105079650879,-4.019006252288818,-1.2689530849456787
1761396670471657700,6.28965771484375,-8.087441444396973,-4.480893611907959,-1.127885103225708
1761396670491021300,6.309021240234375,-7.825872898101807,-4.660442352294922,-0.8180364966392517
1761396670510412000,6.328412109375,-9.176643371582031,-4.950096130371094,-0.8787535429000854
1761396670529789200,6.3477890625,-9.461545944213867,-4.476681709289551,-1.599228024482727
1761396670549152800,6.36715283203125,-7.782598495483398,-2.1450915336608887,-2.9461615085601807
1761396670568543500,6.38654345703125,-6.735592842102051,0.7554841041564941,-3.711658239364624
1761396670587920600,6.405920654296875,-1.2375731468200684,7.186178207397461,-5.9180169105529785
1761396670607284500,6.425284423828125,7.749819278717041,13.105365753173828,-3.5396244525909424
1761396670626675000,6.444675048828125,14.855735778808594,11.185029983520508,5.536411285400391
1761396670646052400,6.46405224609375,18.42055892944336,6.025660991668701,9.930379867553711
1761396670665416000,6.483416015625,15.21713638305664,5.236065864562988,5.313776016235352
1761396670684806700,6.502806640625,7.9419121742248535,3.4938974380493164,2.5595526695251465
1761396670704183800,6.522183837890625,2.239354133605957,0.9734416007995605,1.1480388641357422
1761396670723547400,6.54154736328125,-1.0371184349060059,-0.7242121696472168,-1.0195558071136475
1761396670742938000,6.560938232421875,-2.609468460083008,-2.316679000854492,-1.775241494178772
1761396670762315300,6.580315185546875,-3.96893310546875,-3.6580209732055664,0.613721489906311
1761396670781678800,6.599678955078125,-6.258128643035889,-4.489680290222168,2.193509101867676
1761396670801069600,6.619069580078125,-7.347865104675293,-4.96981143951416,1.5835438966751099
1761396670820446700,6.63844677734375,-7.915700435638428,-6.107779026031494,1.7163400650024414
1761396670839810600,6.657810546875,-9.255696296691895,-5.857771873474121,-0.4688124656677246
1761396670859201000,6.677200927734375,-10.952049255371094,-5.172629356384277,-2.9630203247070312
1761396670878578400,6.696578369140625,-12.586843490600586,-5.484738349914551,-4.558299541473389
1761396670897942000,6.71594189453125,-17.259904861450195,-4.065443515777588,-8.63038158416748
1761396670917332700,6.735332763671875,-12.652587890625,-4.882645130157471,-3.62744402885437
1761396670936710000,6.7547099609375,-1.960916519165039,-1.7595317363739014,-3.2843546867370605
1761396670956073500,6.774073486328125,7.777895927429199,-0.5947990417480469,0.5755487680435181
1761396670975464200,6.793464111328125,14.6047945022583,2.5338382720947266,2.918891429901123
1761396670994841300,6.81284130859375,20.022178649902344,7.411778926849365,7.699599266052246
1761396671014205200,6.832205078125,26.195764541625977,9.120281219482422,15.254549980163574
1761396671033595600,6.851595703125,27.84771728515625,8.387561798095703,16.437366485595703
1761396671052972800,6.870972900390625,23.371767044067383,6.247511386871338,9.827163696289062
1761396671072336600,6.890336669921875,12.707710266113281,4.14356803894043,2.162353754043579
1761396671091727400,6.909727294921875,2.480168342590332,2.675586223602295,-2.1095385551452637
1761396671111104500,6.9291044921875,-4.701262474060059,0.29987621307373047,-3.228846549987793
1761396671130468000,6.948468017578125,-10.641414642333984,-2.461010456085205,-1.271503210067749
1761396671149858800,6.96785888671875,-14.882757186889648,-3.9953060150146484,1.3253259658813477
1761396671169236000,6.987236083984375,-16.232948303222656,-4.8758769035339355,0.6395554542541504
1761396671188599600,7.006599609375,-14.692306518554688,-5.754670143127441,-1.4857923984527588
1761396671207990300,7.025990234375,-13.4093017578125,-6.656549453735352,-3.568178176879883
1761396671227367400,7.045367431640625,-13.495771408081055,-6.803930282592773,-6.733341217041016
1761396671246731300,7.064731201171875,-10.480239868164062,-5.898497104644775,-7.978274345397949
1761396671266121700,7.084121826171875,-6.9406232833862305,-5.461305141448975,-6.682340621948242
1761396671285499000,7.103498779296875,-6.899572372436523,-4.676680564880371,-5.694144248962402
1761396671304862700,7.12286279296875,-7.793615341186523,-2.969400405883789,-4.838646411895752
1761396671324253400,7.14225341796875,-4.515630722045898,-0.8145904541015625,-1.4002346992492676
1761396671343630600,7.161630615234375,4.8364996910095215,3.094874858856201,1.0256412029266357
1761396671362994200,7.180994140625,19.448314666748047,7.53737735748291,2.5576977729797363
1761396671382385000,7.200385009765625,37.3867301940918,10.497562408447266,17.9809627532959
1761396671401762000,7.219761962890625,35.97732162475586,8.613411903381348,34.61300277709961
1761396671421125600,7.239125732421875,19.237768173217773,9.267036437988281,23.46623420715332
1761396671440516400,7.258516357421875,4.691883563995361,5.844853401184082,6.353429794311523
1761396671459893500,7.2778935546875,0.6490988731384277,1.5894126892089844,-2.1462295055389404
1761396671479257000,7.297257080078125,-1.1501398086547852,-1.9236409664154053,-4.920495986938477
1761396671498647800,7.316647705078125,-6.1771039962768555,-5.140153884887695,-3.205169677734375
1761396671518025000,7.33602490234375,-13.558292388916016,-8.225546836853027,-1.3381736278533936
1761396671537388800,7.355388916015625,-17.188602447509766,-10.571361541748047,-2.174252986907959
1761396671556779300,7.374779296875,-16.234338760375977,-12.165878295898438,-4.571892261505127
1761396671576156700,7.39415673828125,-15.313916206359863,-13.13294506072998,-7.5045166015625
1761396671595520300,7.413520263671875,-15.260523796081543,-12.954755783081055,-10.736677169799805
1761396671614911000,7.432910888671875,-15.211560249328613,-12.469942092895508,-11.208745956420898
1761396671634288000,7.4522880859375,-12.49146842956543,-11.553072929382324,-8.44633674621582
1761396671653651700,7.471651611328125,-10.773962020874023,-10.750326156616211,-4.735378742218018
1761396671673042400,7.49104248046875,-9.402191162109375,-8.910160064697266,-7.3479156494140625
1761396671692419600,7.510419677734375,-4.504064559936523,-6.193819046020508,-3.864503860473633
1761396671711783200,7.529783203125,2.429403781890869,-0.609499454498291,3.9854507446289062
1761396671731174000,7.549173828125,11.76577377319336,6.066167831420898,11.41053295135498
1761396671750551000,7.568551025390625,22.849632263183594,11.925849914550781,22.82209587097168
1761396671769915000,7.587914794921875,31.012832641601562,13.167434692382812,36.597755432128906
1761396671789305600,7.6073056640625,29.698293685913086,8.219635009765625,31.278242111206055
1761396671808682800,7.626682861328125,20.130857467651367,8.28413200378418,4.970489501953125
1761396671828046300,7.64604638671875,11.943073272705078,6.016744136810303,-3.1500065326690674
1761396671847437000,7.66543701171875,4.840323448181152,3.6200318336486816,-0.5478215217590332
1761396671866814200,7.684814208984375,-5.47169303894043,1.56095552444458,1.1420459747314453
1761396671886177800,7.704177734375,-14.292530059814453,-0.7167782783508301,0.9273371696472168
1761396671905568500,7.723568603515625,-16.693498611450195,-3.038755416870117,-1.8294570446014404
1761396671924945700,7.742945556640625,-15.07468032836914,-5.447907447814941,-3.793095111846924
1761396671944309500,7.7623095703125,-13.426536560058594,-7.351628303527832,-5.530195236206055
1761396671963700000,7.781699951171875,-10.403570175170898,-7.945873260498047,-7.142319679260254
1761396671983077000,7.8010771484375,-9.922430038452148,-8.54118537902832,-6.271567344665527
1761396672002454300,7.820454345703125,-10.875434875488281,-8.430831909179688,-6.2592692375183105
1761396672021831700,7.839831787109375,-11.776983261108398,-7.641067981719971,-5.732268810272217
1761396672041208600,7.85920849609375,-11.398366928100586,-5.663995265960693,-4.665736675262451
1761396672060572400,7.878572509765625,-6.694530963897705,-2.0164661407470703,-1.6197810173034668
1761396672079963100,7.897963134765625,2.6085357666015625,2.44875431060791,3.8450608253479004
1761396672099340300,7.91734033203125,13.420350074768066,6.250518798828125,9.214767456054688
1761396672118703900,7.936703857421875,16.812397003173828,9.880088806152344,6.37514591217041
1761396672138094600,7.956094482421875,18.947898864746094,11.744844436645508,3.996080160140991
1761396672157471700,7.9754716796875,23.775527954101562,9.996369361877441,9.438261032104492
1761396672176835300,7.99483544921875,22.30731201171875,6.836083889007568,10.04495620727539
1761396672196226000,8.01422607421875,13.397684097290039,4.901932239532471,5.826464653015137
1761396672215603200,8.033603271484376,4.690956115722656,3.0291051864624023,2.148000717163086
1761396672234967000,8.052967041015625,-1.3945708274841309,1.3140974044799805,0.221136212348938
1761396672254357500,8.072357421875,-4.791276454925537,-0.15345191955566406,-0.5874993205070496
1761396672273735000,8.09173486328125,-5.594805717468262,-1.2731218338012695,-0.7727550268173218
1761396672293098500,8.111098388671875,-5.849077224731445,-2.5982072353363037,1.3379693031311035
1761396672312489200,8.1304892578125,-6.8977370262146,-3.9613022804260254,3.2923049926757812
1761396672331866400,8.149866455078126,-7.8411102294921875,-5.511373519897461,3.537724018096924
1761396672351230000,8.16922998046875,-7.498942852020264,-6.831112384796143,2.11569881439209
1761396672370620700,8.18862060546875,-6.108462333679199,-7.564746856689453,-1.2223379611968994
1761396672389997800,8.207997802734376,-3.087921380996704,-7.241307258605957,-4.295950889587402
1761396672409361400,8.227361328125,-2.820089101791382,-6.336674213409424,-5.403407096862793
1761396672428752100,8.246752197265625,-5.446055889129639,-4.42527961730957,-2.8333189487457275
1761396672448129300,8.26612939453125,-5.716268539428711,-2.036463737487793,-0.16424259543418884
1761396672467493000,8.2854931640625,1.511345386505127,-0.5282764434814453,1.6415166854858398
1761396672486883600,8.304883544921875,6.563107013702393,0.7195396423339844,3.1576309204101562
1761396672506260700,8.3242607421875,7.193535804748535,2.612565040588379,2.580559015274048
1761396672525624600,8.34362451171875,5.305375576019287,4.921272277832031,-0.06261970102787018
1761396672545015300,8.363015380859375,4.097116470336914,5.66655158996582,-1.2114968299865723
1761396672564392400,8.382392333984376,2.774284839630127,5.18588924407959,-1.2630873918533325
1761396672583756000,8.401756103515625,5.339693069458008,4.424891471862793,-1.2463161945343018
1761396672603146800,8.421146728515625,7.38621711730957,1.6223607063293457,2.402859687805176
1761396672622524000,8.44052392578125,3.832207679748535,-1.5285334587097168,4.563967704772949
1761396672641887500,8.459887451171875,-2.909224271774292,-3.4631762504577637,3.336075782775879
1761396672661278200,8.4792783203125,-7.454563140869141,-4.897714138031006,-0.03434842824935913
1761396672680655400,8.4986552734375,-7.450014114379883,-5.62542724609375,-1.5746073722839355
1761396672700019000,8.51801904296875,-4.957891464233398,-6.613774299621582,-2.4185540676116943
1761396672719409700,8.53740966796875,-1.2491159439086914,-7.379096984863281,-1.914021372795105
1761396672738786800,8.556786865234375,-0.07960128784179688,-7.665804862976074,0.4020019769668579
1761396672758150700,8.576150634765625,-2.475679636001587,-6.667733192443848,1.7151302099227905
1761396672777541400,8.595541259765625,-3.7011454105377197,-4.444062232971191,0.8869143724441528
1761396672796918500,8.61491845703125,-2.5420737266540527,-1.6620988845825195,0.3173731565475464
1761396672816282000,8.6342822265625,0.6039309501647949,0.8507699966430664,-0.21960163116455078
1761396672835672800,8.6536728515625,4.695662498474121,2.3666820526123047,-1.9816190004348755
1761396672855050000,8.673050048828125,2.6704182624816895,3.939310073852539,-2.4853038787841797
1761396672874413600,8.69241357421875,-3.6666741371154785,5.130186080932617,-1.633029818534851
1761396672893804300,8.71180419921875,-7.116744041442871,7.002751350402832,-2.602591037750244
1761396672913181400,8.731181396484375,-5.522326469421387,8.313456535339355,-4.30946159362793
1761396672932545000,8.750544921875,1.5274877548217773,6.402263641357422,-2.1683595180511475
1761396672951935700,8.769935791015625,8.079195022583008,3.954265594482422,1.3650202751159668
1761396672971313000,8.78931298828125,7.824172019958496,1.4976081848144531,4.721134185791016
1761396672990676700,8.8086767578125,5.690049648284912,-2.378787040710449,7.33962345123291
1761396673010067200,8.828067138671875,0.35442543029785156,-5.005549430847168,4.93253755569458
1761396673029444600,8.847444580078125,-3.7965996265411377,-4.9653849601745605,-0.6133943796157837
1761396673048808200,8.86680810546875,-3.812544345855713,-4.7278733253479,-3.398587942123413
1761396673068199000,8.886198974609375,-2.326936721801758,-4.972776412963867,-2.7212510108947754
1761396673087576000,8.905576171875,-1.782914161682129,-5.789701461791992,-0.7231168746948242
1761396673106939600,8.924939697265625,-1.0086216926574707,-6.293691635131836,1.6686347723007202
1761396673126330400,8.944330322265625,-0.853208065032959,-5.163405418395996,1.7754199504852295
1761396673145707500,8.96370751953125,-0.7100000381469727,-4.50460147857666,2.162564754486084
1761396673165071000,8.983071044921875,-0.2932395935058594,-3.1180858612060547,2.4329164028167725
1761396673184461800,9.0024619140625,-0.9277327060699463,-1.174875259399414,1.162108063697815
1761396673203839000,9.0218388671875,-0.8467917442321777,0.11029624938964844,0.2775568962097168
1761396673223202800,9.041202880859375,-1.4922189712524414,1.6997928619384766,0.20987290143966675
1761396673242593300,9.06059326171875,-2.465899705886841,3.189697265625,-1.668511986732483
1761396673261970400,9.079970458984375,-3.1196396350860596,5.68133544921875,-2.5206007957458496
1761396673281334300,9.099334228515625,-2.727308750152588,6.616219520568848,-2.8288373947143555
1761396673300725000,9.11872509765625,-1.3103880882263184,5.971906661987305,-4.054853916168213
1761396673320102100,9.13810205078125,4.118291854858398,5.139317512512207,-5.462551116943359
1761396673339465700,9.1574658203125,7.341500759124756,3.074321746826172,1.7532658576965332
1761396673358856400,9.1768564453125,4.449113368988037,-1.1922779083251953,10.32382583618164
1761396673378233600,9.196233642578125,-0.9203104972839355,-1.807546615600586,8.502263069152832
1761396673397597200,9.21559716796875,-2.544206380844116,-1.2800788879394531,1.6444005966186523
1761396673416988000,9.23498779296875,-2.130321979522705,-2.966764450073242,-0.722541332244873
1761396673436365000,9.254364990234375,-0.9498248100280762,-4.648743152618408,0.35335099697113037
1761396673455728600,9.273728759765625,1.6594514846801758,-6.02335262298584,1.4702587127685547
1761396673475119400,9.293119384765625,0.4953188896179199,-6.386854648590088,0.6246955394744873
1761396673494496500,9.31249658203125,-1.6200141906738281,-5.968160629272461,-0.9826499223709106
1761396673513873700,9.331873779296876,-2.3182530403137207,-5.248600482940674,-0.1733914464712143
1761396673533250800,9.351250732421875,-0.47329139709472656,-3.987633228302002,0.28388112783432007
1761396673552628000,9.3706279296875,0.9031429290771484,-1.959272861480713,0.6491281986236572
1761396673571991800,9.38999169921875,0.7515206336975098,0.20464706420898438,1.3982261419296265
1761396673591382500,9.409382568359375,0.6910452842712402,2.5708227157592773,1.011193871498108
1761396673610759700,9.428759765625,-1.6817348003387451,6.005932807922363,-0.32397544384002686
1761396673630123300,9.448123291015625,-6.600666522979736,8.982010841369629,0.6588730216026306
1761396673649514000,9.467513916015625,0.3858332633972168,10.622407913208008,-1.7550936937332153
1761396673668891100,9.48689111328125,12.230295181274414,10.840166091918945,-6.200222492218018
1761396673688254700,9.506254638671875,14.896127700805664,10.254413604736328,-1.8097082376480103
1761396673707645400,9.5256455078125,12.705503463745117,5.946930408477783,7.543754577636719
1761396673727022600,9.545022705078125,8.95490837097168,2.6608009338378906,6.2795257568359375
1761396673746386400,9.564386474609375,3.3297476768493652,1.1292543411254883,3.996126413345337
1761396673765777000,9.58377685546875,-3.964961528778076,-2.064638137817383,7.168647289276123
1761396673785154000,9.603154052734375,-10.005107879638672,-5.412559986114502,6.197118282318115
1761396673804518000,9.622517822265625,-11.445039749145508,-7.889373302459717,0.9655855298042297
1761396673823908600,9.64190869140625,-8.710639953613281,-9.358251571655273,-2.7364718914031982
1761396673843285800,9.66128564453125,-4.962751865386963,-10.109583854675293,-2.7088727951049805
1761396673862649300,9.6806494140625,-2.368492603302002,-9.043365478515625,-3.3284966945648193
1761396673882040000,9.7000400390625,-3.2222962379455566,-7.308696269989014,-2.9960689544677734
1761396673901417200,9.719417236328125,-5.452937126159668,-5.829267501831055,0.15862035751342773
1761396673920780800,9.73878076171875,-4.2280964851379395,-3.996273994445801,1.5193378925323486
1761396673940171500,9.758171630859374,-1.8518996238708496,-2.370316505432129,1.3559856414794922
1761396673959548700,9.777548583984375,-0.5709185600280762,-0.2725973129272461,2.072401523590088
1761396673978912300,9.796912353515625,0.771049976348877,1.9202680587768555,0.6635684967041016
1761396673998303000,9.816302978515624,-1.0042412281036377,3.78969669342041,-1.5421587228775024
1761396674017680100,9.83568017578125,-4.9887776374816895,4.829599380493164,-1.386412262916565
1761396674037044000,9.8550439453125,-4.119080543518066,6.258142471313477,-2.3507370948791504
1761396674056434400,9.874434326171874,-2.8535168170928955,6.922431945800781,-1.8261555433273315
1761396674075811800,9.893811767578125,-0.4916677474975586,6.796293258666992,-1.7341402769088745
1761396674095175400,9.913175537109375,6.636366844177246,4.146961688995361,0.08067059516906738
1761396674114566100,9.932566162109374,9.231441497802734,1.3745322227478027,2.613755702972412
1761396674133943300,9.951943359375,6.718116283416748,-0.6234445571899414,4.132389068603516
1761396674153307000,9.971306884765625,1.067115306854248,-1.99578857421875,2.9347383975982666
1761396674172697600,9.990697509765624,-4.1682891845703125,-2.803164482116699,0.5441031455993652
1761396674192074800,10.01007470703125,-4.150889873504639,-3.4631123542785645,-1.6748491525650024
1761396674211438300,10.029438232421874,-1.571176528930664,-3.6648905277252197,-0.749222993850708
1761396674230829000,10.0488291015625,3.122145652770996,-4.6060991287231445,2.792081832885742
1761396674250206200,10.068206298828125,1.9009976387023926,-4.800043106079102,1.1758263111114502
1761396674269569800,10.08756982421875,-1.1522469520568848,-4.5724778175354,-1.4523416757583618
