time,seconds_elapsed,z,y,x
1761396664267302700,0.085302734375,-0.150421142578125,0.06688777357339859,0.16126367449760437
1761396664313439500,0.131439453125,-0.10399674624204636,-0.04077405482530594,-0.00992626789957285
1761396664332816600,0.150816650390625,-0.06734590977430344,0.039857782423496246,0.020463382825255394
1761396664352193800,0.17019384765625,-0.04840964451432228,0.06383354216814041,0.05467082932591438
1761396664371571200,0.1895712890625,-0.051616594195365906,0.011300674639642239,0.054365407675504684
1761396664390948400,0.2089482421875,-0.05390727147459984,0.05772506445646286,0.15988926589488983
1761396664410325500,0.228325439453125,-0.012369656935334206,-0.04214845970273018,0.23532891273498535
1761396664429702700,0.24770263671875,0.016492875292897224,-0.12904147803783417,0.21394924819469452
1761396664449079800,0.267079833984375,0.027946261689066887,-0.15714046359062195,0.2148655205965042
1761396664468457000,0.28645703125,0.045202698558568954,-0.2501419484615326,0.2629697322845459
1761396664487834000,0.305834228515625,0.09009996801614761,-0.3411581814289093,0.2585411071777344
1761396664507211300,0.325211181640625,0.10735640674829483,-0.2047865390777588,0.25350162386894226
1761396664526588400,0.34458837890625,0.07681404054164886,-0.09895725548267365,0.2761029601097107
1761396664545965600,0.363965576171875,0.06856760382652283,-0.033443886786699295,0.3017585575580597
1761396664565343000,0.383343017578125,0.12339114397764206,-0.025502873584628105,0.3277195692062378
1761396664584720100,0.40272021484375,0.13179029524326324,-0.20463383197784424,0.20356485247612
1761396664604097300,0.42209716796875,0.13331741094589233,-0.3429907262325287,-0.008246437646448612
1761396664623474400,0.441474365234375,0.1751604527235031,-0.3345915973186493,-0.11209046840667725
1761396664642851600,0.4608515625,0.14629791676998138,-0.1979145109653473,-0.10979979485273361
1761396664662228700,0.480228759765625,0.0988045409321785,-0.0462716780602932,-0.06856760382652283
1761396664681606000,0.49960595703125,0.08047912269830704,-0.034665580838918686,0.0050394898280501366
1761396664700983000,0.518983154296875,0.07360709458589554,-0.10644013434648514,0.10430216789245605
1761396664720360200,0.538360107421875,0.13270656764507294,-0.18157434463500977,0.14965757727622986
1761396664739737300,0.5577373046875,0.1779092699289322,-0.1563768982887268,0.10735640674829483
1761396664759114800,0.57711474609375,0.19531841576099396,-0.08261708915233612,0.09987352788448334
1761396664778492000,0.596491943359375,0.1847812980413437,-0.11315945535898209,0.11407572776079178
1761396664797869000,0.615869140625,0.17317520081996918,-0.13484452664852142,0.10674555599689484
1761396664817246200,0.63524609375,0.1907370537519455,-0.0844496339559555,0.1626380831003189
1761396664836623400,0.654623291015625,0.17714570462703705,-0.04703523963689804,0.16248537600040436
1761396664856000500,0.67400048828125,0.16172181069850922,-0.06642963737249374,-0.01588202826678753
1761396664875377700,0.693377685546875,0.1582094430923462,-0.1519482582807541,-0.21226942539215088
1761396664894754800,0.7127548828125,0.16630317270755768,-0.24036839604377747,-0.36910444498062134
1761396664914132000,0.732132080078125,0.1966928243637085,-0.4352286756038666,-0.5150969624519348
1761396664933509400,0.75150927734375,0.18997350335121155,-0.5515950918197632,-0.7108734846115112
1761396664952886500,0.770886474609375,0.14110571146011353,-0.6336013078689575,-0.9990406632423401
1761396664972263700,0.790263671875,-0.01572931744158268,-0.2363978922367096,-1.2369656562805176
1761396664991640800,0.809640869140625,-0.12018419802188873,-0.31626617908477783,-1.4703093767166138
1761396665011004400,0.82900439453125,-0.08735115826129913,-0.10628741979598999,-1.3879976272583008
1761396665030395100,0.84839501953125,-0.0725381150841713,0.15057384967803955,-0.9341381788253784
1761396665049772300,0.867772216796875,-0.12705622613430023,0.367730051279068,-0.30695074796676636
1761396665069136100,0.88713623046875,-0.16401249170303345,0.9836167693138123,0.06963659077882767
1761396665088526800,0.90652685546875,0.12125317752361298,1.536280870437622,-0.031916771084070206
1761396665107903700,0.92590380859375,0.8617527484893799,1.6558542251586914,-0.34665581583976746
1761396665127267600,0.945267578125,1.6865493059158325,0.8246437907218933,-0.4978405237197876
1761396665146658300,0.964658203125,2.436058759689331,-0.7192726731300354,-0.36727190017700195
1761396665166035500,0.984035400390625,2.9557371139526367,-1.5718626976013184,-0.16615045070648193
1761396665185399000,1.00339892578125,3.3462212085723877,-1.5165810585021973,-0.09284878522157669
1761396665204789800,1.022789794921875,3.3634777069091797,-1.3285927772521973,0.06123743951320648
1761396665224167000,1.0421669921875,2.661003351211548,0.30068957805633545,-0.26724568009376526
1761396665243530800,1.06153076171875,2.206991195678711,1.2229162454605103,-0.9848384857177734
1761396665262921200,1.080921142578125,2.630002975463867,1.3615785837173462,-1.6132476329803467
1761396665282298400,1.10029833984375,3.709064483642578,2.0090765953063965,-2.3597030639648438
1761396665301662200,1.119662109375,3.901939630508423,2.1914145946502686,-2.394979476928711
1761396665321053000,1.139052978515625,3.138227701187134,0.7656970620155334,-1.434574842453003
1761396665340430000,1.15843017578125,2.5670855045318604,-0.8499939441680908,-0.7191199064254761
1761396665359793700,1.177793701171875,2.068328857421875,-2.589686870574951,-0.10934165865182877
1761396665379184400,1.197184326171875,1.882936716079712,-2.803788900375366,0.9058864712715149
1761396665398561500,1.2165615234375,1.8641531467437744,-0.982700526714325,1.861404299736023
1761396665417925400,1.23592529296875,1.62851881980896,0.14370182156562805,2.1022307872772217
1761396665437315800,1.25531591796875,0.9594883322715759,0.11972606182098389,1.9854062795639038
1761396665456693000,1.27469287109375,0.2739650011062622,-0.6204680800437927,1.7221311330795288
1761396665476056800,1.294056884765625,-0.09987352788448334,-1.6660858392715454,1.305838704109192
1761396665495447600,1.313447509765625,-0.31321191787719727,-2.1967594623565674,1.0708152055740356
1761396665514824700,1.33282470703125,-0.47768256068229675,-1.9672335386276245,0.7962393760681152
1761396665534188300,1.352188232421875,-0.49921491742134094,-1.5539953708648682,0.6221479177474976
1761396665553579000,1.3715791015625,-0.5621321797370911,-0.9862129092216492,0.546097457408905
1761396665572956200,1.3909560546875,-0.6632274389266968,-0.5809157490730286,0.6288672685623169
1761396665592319700,1.41031982421875,-0.5789304971694946,-0.4805840849876404,0.8733588457107544
1761396665611710500,1.42971044921875,-0.2727433145046234,-1.110825777053833,1.203369140625
1761396665631087600,1.449087646484375,0.028557108715176582,-2.3856639862060547,1.5822471380233765
1761396665650465000,1.468465087890625,0.1626380831003189,-3.4060842990875244,1.9203510284423828
1761396665669842200,1.48784228515625,0.3064926266670227,-3.8582639694213867,2.028470993041992
1761396665689219300,1.50721923828125,0.43767204880714417,-3.9132401943206787,1.7787872552871704
1761396665708583000,1.5265830078125,0.6201626658439636,-3.583840847015381,1.0596672296524048
1761396665727973600,1.5459736328125,0.9126058220863342,-2.3409194946289062,-0.10430216789245605
1761396665747350800,1.565350830078125,0.964680552482605,-0.3733803927898407,-1.0488247871398926
1761396665766714400,1.58471435546875,1.0726478099822998,1.3524158000946045,-1.0741748809814453
1761396665786105000,1.60410498046875,1.8876707553863525,1.065775752067566,-0.7918107509613037
1761396665805482200,1.623482177734375,2.6776490211486816,-0.9941539168357849,-0.5529694557189941
1761396665824846000,1.64284619140625,2.0057170391082764,-1.508792757987976,0.41705596446990967
1761396665844236800,1.66223681640625,0.335507869720459,0.8377770185470581,0.7062921524047852
1761396665863614000,1.681614013671875,-0.3246653079986572,3.119138717651367,-0.6859814524650574
1761396665882977500,1.7009775390625,-0.4712686538696289,3.719449043273926,-1.5836215019226074
1761396665902368300,1.7203681640625,-0.7333221435546875,3.4083750247955322,-1.1787824630737305
1761396665921745400,1.739745361328125,-0.8570187091827393,2.9604711532592773,-0.4931064546108246
1761396665941109000,1.75910888671875,-0.7623373866081238,2.5930466651916504,-0.13957859575748444
1761396665960499700,1.778499755859375,-0.7459971904754639,2.4082653522491455,-0.08857285231351852
1761396665979876900,1.797876953125,-0.9781191945075989,2.4959218502044678,-0.1951656937599182
1761396665999240700,1.81724072265625,-1.1621369123458862,2.6829938888549805,-0.31473904848098755
1761396666018631400,1.83663134765625,-0.9713998436927795,2.7329306602478027,-0.3921639323234558
1761396666038008300,1.85600830078125,-0.4883723855018616,2.481872320175171,-0.3530697226524353
1761396666057372200,1.8753720703125,-0.14767232537269592,1.7467176914215088,-0.11407572776079178
1761396666076763000,1.894762939453125,0.1650814712047577,0.6815528273582458,0.3052709102630615
1761396666096140000,1.91414013671875,0.5004366040229797,-0.5303681492805481,0.7003363966941833
1761396666115503600,1.933503662109375,0.8667922616004944,-1.6697509288787842,0.8984035849571228
1761396666134894300,1.952894287109375,1.1361758708953857,-2.2285234928131104,0.844038188457489
1761396666154271500,1.972271484375,1.1851963996887207,-2.0727574825286865,0.7754706144332886
1761396666173635300,1.99163525390625,1.314848780632019,-1.0882244110107422,0.9231429100036621
1761396666193025800,2.01102587890625,1.6477605104446411,-0.17500774562358856,0.6969767212867737
1761396666212403200,2.0304033203125,1.9038581848144531,-0.648108959197998,0.6349757313728333
1761396666231766800,2.049766845703125,1.2840009927749634,-0.2588465213775635,1.0975397825241089
1761396666251157500,2.069157470703125,0.5720584392547607,1.5057384967803955,0.8477032780647278
1761396666270534700,2.08853466796875,0.5696150660514832,2.6426780223846436,-0.251974493265152
1761396666289898200,2.107898193359375,0.624896764755249,2.609844923019409,-0.5534276366233826
1761396666309289000,2.1272890625,0.7467607855796814,1.9429523944854736,0.21394924819469452
1761396666328666000,2.146666015625,0.9159654378890991,1.2041326761245728,1.0666919946670532
1761396666348030000,2.166030029296875,0.8579349517822266,0.82082599401474,1.5700302124023438
1761396666367420400,2.18542041015625,0.5966450572013855,0.8561024069786072,1.6692928075790405
1761396666386797600,2.204797607421875,0.40331190824508667,1.2166550159454346,1.459161400794983
1761396666406161400,2.224161376953125,0.2513636350631714,1.2360494136810303,0.9730796813964844
1761396666425552100,2.24355224609375,0.11315945535898209,0.7594358325004578,0.2907632887363434
1761396666444929300,2.26292919921875,0.1241547018289566,-0.14767232537269592,-0.36039987206459045
1761396666464292900,2.28229296875,0.2852656841278076,-0.8956547975540161,-0.7719582319259644
1761396666483683600,2.30168359375,0.5285356044769287,-1.2317734956741333,-0.9197832345962524
1761396666503060700,2.321060791015625,0.8335011005401611,-1.479472041130066,-0.9998042583465576
1761396666522424300,2.34042431640625,1.0234745740890503,-1.9727312326431274,-0.9805625677108765
1761396666541815000,2.35981494140625,1.1056334972381592,-1.8621678352355957,-0.7302678823471069
1761396666561192200,2.379192138671875,1.1693143844604492,-1.0911259651184082,-0.42698222398757935
1761396666580556000,2.39855615234375,1.5065020322799683,-0.8944330811500549,-0.07269082218408585
1761396666599946800,2.41794677734375,2.155679941177368,-2.0345795154571533,0.4816530644893646
1761396666619324000,2.437323974609375,2.2048532962799072,-2.4394185543060303,0.7800519466400146
1761396666638687500,2.4566875,0.9361234307289124,0.13805148005485535,0.49356457591056824
1761396666658078200,2.476078125,0.16309621930122375,3.170908212661743,-0.2576248347759247
1761396666677455400,2.495455322265625,0.40575528144836426,3.824820041656494,-0.616802990436554
1761396666696819000,2.51481884765625,0.6332958936691284,2.539292097091675,0.16767756640911102
1761396666716209700,2.534209716796875,0.7684458494186401,1.0387457609176636,1.5617836713790894
1761396666735586800,2.5535869140625,0.5731274485588074,0.27915719151496887,2.4162063598632812
1761396666754950700,2.57295068359375,0.18753011524677277,0.35230615735054016,2.4168171882629395
1761396666774341400,2.59234130859375,-0.16752485930919647,0.8092198967933655,1.8125364780426025
1761396666793718500,2.611718505859375,-0.44423866271972656,1.2675080299377441,0.9645278453826904
1761396666813082000,2.63108203125,-0.5212054252624512,1.3936480283737183,0.18050536513328552
1761396666832472800,2.650472900390625,-0.2761029601097107,1.2183349132537842,-0.2996205687522888
1761396666851850000,2.66985009765625,-0.053143709897994995,1.3127107620239258,-0.5242596864700317
1761396666871227100,2.68922705078125,-0.22601348161697388,1.7752748727798462,-0.89107346534729
1761396666890604300,2.708604248046875,-0.36253786087036133,1.6494402885437012,-1.2777397632598877
1761396666909981400,2.7279814453125,-0.024586603045463562,1.1015102863311768,-1.4842060804367065
1761396666929345300,2.74734521484375,0.457830011844635,0.7803573608398438,-1.2326897382736206
1761396666948736000,2.766736083984375,0.46638187766075134,0.6277982592582703,-0.2858765125274658
1761396666968113200,2.786113037109375,0.25441789627075195,0.030389651656150818,0.8154810667037964
1761396666987476700,2.805476806640625,0.864959716796875,-0.3315373361110687,1.119377613067627
1761396667006867500,2.824867431640625,1.590951681137085,-2.7579753398895264,-0.0713164210319519
1761396667026244600,2.84424462890625,1.0940274000167847,-5.050026893615723,-1.3956332206726074
1761396667045608200,2.863608154296875,0.1328592747449875,-0.48989951610565186,-0.6123743653297424
1761396667064999000,2.8829990234375,0.4049917459487915,3.7018871307373047,0.24785128235816956
1761396667084376000,2.9023759765625,0.9286405444145203,3.8115341663360596,0.8076927661895752
1761396667103740000,2.921739990234375,0.6665870547294617,2.221193313598633,1.5782766342163086
1761396667123130400,2.94113037109375,0.4760027229785919,1.4356437921524048,2.0529048442840576
1761396667142507800,2.9605078125,0.49173203110694885,1.7537424564361572,2.025264024734497
1761396667161871400,2.979871337890625,0.37200596928596497,2.375279664993286,1.8348324298858643
1761396667181262000,2.999261962890625,0.03802524134516716,2.6564218997955322,1.708081603050232
1761396667200639200,3.01863916015625,-0.150421142578125,2.12880277633667,1.5106252431869507
1761396667220002800,3.0380029296875,0.00030542362947016954,1.2517787218093872,1.1470184326171875
1761396667239393500,3.0573935546875,0.34253260493278503,0.4796678125858307,0.7382088899612427
1761396667258770700,3.076770751953125,0.5398362874984741,-0.13682979345321655,0.5231906771659851
1761396667278134500,3.096134521484375,0.5224271416664124,-0.5632011890411377,0.45706647634506226
1761396667297525000,3.11552490234375,0.34070006012916565,-0.7444701194763184,0.4627167880535126
1761396667316902100,3.134902099609375,0.12201674282550812,-0.8108997344970703,0.07040014863014221
1761396667336266000,3.154265869140625,0.05864133685827255,-0.5613686442375183,-0.6012263894081116
1761396667355656700,3.17365673828125,0.22754059731960297,-0.7450809478759766,-1.1016629934310913
1761396667375033900,3.193033935546875,0.37047886848449707,-1.6807461977005005,-0.8655705451965332
1761396667394397400,3.2123974609375,0.7939487099647522,-2.346111536026001,-0.037414394319057465
1761396667413788200,3.2317880859375,0.9929322004318237,-3.633472204208374,-0.6371136903762817
1761396667433165300,3.251165283203125,0.1372879147529602,-3.029344320297241,-1.7054855823516846
1761396667452529000,3.27052880859375,-0.7695148587226868,0.014049487188458443,-1.4414467811584473
1761396667471919600,3.289919677734375,-0.9367342591285706,2.149266004562378,-1.0138537883758545
1761396667491296800,3.309296875,-1.0648595094680786,2.20424222946167,-0.7965448498725891
1761396667510660600,3.32866064453125,-1.1923738718032837,1.0723423957824707,-0.27747735381126404
1761396667530051300,3.34805126953125,-1.2053543329238892,-0.008399149402976036,0.3352024257183075
1761396667549428500,3.367428466796875,-1.3850961923599243,-0.5887040495872498,0.4375193417072296
1761396667568792000,3.3867919921875,-1.761683464050293,-0.525175929069519,-0.05329642444849014
1761396667588182800,3.406182861328125,-2.109408378601074,0.016187451779842377,-0.7232431769371033
1761396667607560000,3.425559814453125,-2.3847477436065674,0.6035171151161194,-1.1477819681167603
1761396667626923800,3.444923828125,-2.482483148574829,1.0787562131881714,-1.170077919960022
1761396667646314200,3.464314208984375,-2.375126838684082,1.1971079111099243,-0.9035958051681519
1761396667665691400,3.48369140625,-1.8730103969573975,0.9894198179244995,-0.42484426498413086
1761396667685055200,3.50305517578125,-1.1195303201675415,0.7939487099647522,0.0068720318377017975
1761396667704446000,3.522446044921875,-0.46760356426239014,0.6137487888336182,-0.0650552362203598
1761396667723823000,3.541822998046875,-0.2793098986148834,-0.09452861547470093,-0.9245173335075378
1761396667743186700,3.561186767578125,-0.18905723094940186,-0.23991025984287262,-2.0205299854278564
1761396667762577400,3.580577392578125,0.2489202618598938,0.0791047215461731,-1.7332791090011597
1761396667781954600,3.59995458984375,0.41949936747550964,-0.746913492679596,-0.3602471649646759
1761396667801318100,3.619318115234375,0.05482354015111923,-3.635915517807007,0.844649076461792
1761396667820708900,3.638708984375,-0.7934905886650085,-3.8784220218658447,0.7350019812583923
1761396667840086000,3.6580859375,-0.7553126215934753,-1.4356437921524048,1.6992243528366089
1761396667859449900,3.677449951171875,-0.6398624777793884,0.10979979485273361,2.239366054534912
1761396667878840600,3.696840576171875,-1.0181297063827515,0.5355603098869324,0.5996993184089661
1761396667898217700,3.7162177734375,-0.7004891037940979,-0.17393875122070312,-0.8828269839286804
1761396667917581300,3.735581298828125,0.7394306063652039,-0.5967977643013,-1.5408622026443481
1761396667936972000,3.754971923828125,0.9361234307289124,-1.2140588760375977,-1.3475290536880493
1761396667956349200,3.77434912109375,0.647803544998169,-1.4918416738510132,-0.18523943424224854
1761396667975712800,3.793712646484375,0.2166980654001236,-1.851325273513794,1.0130901336669922
1761396667995103500,3.813103515625,-0.16660858690738678,-1.7694717645645142,1.552315592765808
1761396668014480600,3.832480712890625,-0.4724903404712677,-1.0236272811889648,1.449082374572754
1761396668033844500,3.851844482421875,-0.5335750579833984,0.05268557742238045,1.057223916053772
1761396668053235000,3.87123486328125,-0.3709369897842407,1.0567657947540283,0.41705596446990967
1761396668072612400,3.8906123046875,-0.21944688260555267,1.4038797616958618,-0.1623326539993286
1761396668091989500,3.909989501953125,-0.14965757727622986,1.0827267169952393,-0.5625903010368347
1761396668111366700,3.92936669921875,-0.1710372269153595,0.7525638341903687,-0.8674030900001526
1761396668130743800,3.948743896484375,-0.14003673195838928,0.36849361658096313,-1.181531310081482
1761396668150107400,3.968107421875,0.02367033064365387,-0.40071579813957214,-1.378376841545105
1761396668169498000,3.987498046875,0.022906772792339325,-0.7623373866081238,-1.1942063570022583
1761396668188875300,4.006875244140625,-0.4424061179161072,-0.8269344568252563,-0.5851916670799255
1761396668208238800,4.02623876953125,-0.6988092660903931,-0.9976662993431091,0.00015271181473508477
1761396668227629600,4.045629638671875,-0.34070006012916565,-1.0694408416748047,-0.10903623700141907
1761396668247006700,4.0650068359375,-0.12278030067682266,-2.050919771194458,-0.890157163143158
1761396668266370600,4.08437060546875,-0.34192174673080444,-2.088792085647583,-1.3934953212738037
1761396668285761300,4.10376123046875,-1.0613471269607544,0.5370874404907227,-0.828003466129303
1761396668305138400,4.123138427734375,-0.92711341381073,2.8395235538482666,-0.5799994468688965
1761396668324502000,4.142501953125,-0.5111264586448669,3.0644679069519043,-0.6624638438224792
1761396668343892700,4.161892822265625,-0.14309096336364746,2.3328256607055664,-0.39384377002716064
1761396668363270000,4.181269775390625,0.2044811248779297,1.4364073276519775,-0.028251685202121735
1761396668382633500,4.200633544921875,0.4831801950931549,0.7805100679397583,0.3558185398578644
1761396668402024200,4.220024169921875,0.6545228362083435,0.594507098197937,0.7676823139190674
1761396668421401300,4.2394013671875,0.6468872427940369,0.758672297000885,1.142895221710205
1761396668440765200,4.25876513671875,0.35352784395217896,1.1184613704681396,1.444806456565857
1761396668460156000,4.278156005859375,-0.0584886260330677,1.281252145767212,1.673721432685852
1761396668479533000,4.297532958984375,-0.4324798583984375,1.4779449701309204,1.7865755558013916
1761396668498896600,4.316896728515625,-0.7053758502006531,1.5842323303222656,1.6931158304214478
1761396668518287400,4.336287353515625,-0.9917105436325073,1.420219898223877,1.4744325876235962
1761396668537664500,4.35566455078125,-1.3631056547164917,0.559841513633728,1.287513256072998
1761396668557028000,4.375028076171875,-1.7853537797927856,-0.7834116220474243,0.9263498783111572
1761396668576418800,4.394418701171875,-1.9594452381134033,-1.3692141771316528,0.615428626537323
1761396668595796000,4.4137958984375,-1.8464385271072388,-1.6692928075790405,1.1103676557540894
1761396668615159800,4.433159912109375,-1.761683464050293,-1.9391345977783203,2.146211862564087
1761396668634550300,4.45255029296875,-1.4284663200378418,-1.975480079650879,3.0849313735961914
1761396668653927700,4.471927734375,-0.39857783913612366,-1.186418056488037,3.086000442504883
1761396668673291300,4.491291259765625,0.2044811248779297,-2.4928677082061768,0.8163973689079285
1761396668692682000,4.510681884765625,-0.050547610968351364,-4.8121018409729,-1.3963968753814697
1761396668712059100,4.53005908203125,0.18218518793582916,-4.493392467498779,-1.7271705865859985
1761396668731422700,4.549422607421875,1.4260228872299194,-2.9062585830688477,-1.5625473260879517
1761396668750813400,4.5688134765625,1.9034000635147095,-1.5689611434936523,-1.1479346752166748
1761396668770190600,4.588190673828125,0.7829535007476807,-0.3133646547794342,-0.46989426016807556
1761396668789554200,4.60755419921875,-0.8154810667037964,0.7779139876365662,0.18768282234668732
1761396668808945000,4.62694482421875,-1.6385977268218994,1.4023525714874268,0.30664533376693726
1761396668828322000,4.646322021484375,-1.7952800989151,1.5555225610733032,0.19180603325366974
1761396668847686000,4.665685791015625,-1.7146482467651367,1.900345802307129,0.4816530644893646
1761396668867076400,4.685076416015625,-1.2566654682159424,1.1822948455810547,0.4227063059806824
1761396668886453800,4.704453857421875,-1.0508099794387817,0.5925218462944031,0.4569137394428253
1761396668905817300,4.7238173828125,-0.9555178284645081,1.0155335664749146,0.6534538269042969
1761396668925208000,4.7432080078125,-0.8828269839286804,1.1822948455810547,0.8674030900001526
1761396668944585200,4.762585205078125,-0.8997780084609985,0.5502206683158875,0.9513946175575256
1761396668963948800,4.78194873046875,-1.0080506801605225,-0.7301151752471924,0.7631009221076965
1761396668983339500,4.801339599609375,-1.1812258958816528,-1.3945642709732056,0.6097782850265503
1761396669002716700,4.820716552734375,-0.9704836010932922,-0.964069664478302,0.8064711093902588
1761396669022080500,4.84008056640625,-0.811357855796814,-0.5943543910980225,1.4266337156295776
1761396669041471000,4.859470947265625,-1.113879919052124,0.0030542362947016954,1.789171576499939
1761396669060848000,4.87884814453125,-0.859767496585846,-0.8215895891189575,0.8225058317184448
1761396669080212000,4.8982119140625,-0.072232685983181,-1.890114188194275,-1.4703093767166138
1761396669099602700,4.917602783203125,-0.03588727489113808,-1.223679780960083,-2.971313714981079
1761396669118979800,4.936979736328125,-0.06016845628619194,0.006719320081174374,-2.207143783569336
1761396669138343400,4.956343505859375,0.01954711228609085,-0.12552911043167114,-0.20845162868499756
1761396669157734100,4.975734130859375,0.3083251416683197,-0.8480086922645569,1.0537115335464478
1761396669177111300,4.995111328125,0.19195875525474548,-0.9506310224533081,1.0367605686187744
1761396669196475000,5.014474853515625,-0.2357870489358902,-0.6244385838508606,0.13805148005485535
1761396669215865600,5.033865478515625,-0.6004628539085388,-0.04031591862440109,-0.6963658928871155
1761396669235242800,5.05324267578125,-0.7261446714401245,0.030695075169205666,-0.9381086826324463
1761396669254606600,5.072606689453125,-0.7018635272979736,0.029778804630041122,-0.6074876189231873
1761396669273997300,5.091997314453125,-0.5551074743270874,0.420873761177063,0.1310267299413681
1761396669293374200,5.111374267578125,-0.48547086119651794,0.6053496599197388,1.107924222946167
1761396669312738000,5.130738037109375,-0.39735615253448486,0.6029062271118164,1.9443268775939941
1761396669332128800,5.150128662109375,-0.4246915578842163,0.12155860662460327,2.233868360519409
1761396669351506000,5.169505859375,-0.5022691488265991,-0.34375429153442383,1.9004985094070435
1761396669370869500,5.188869384765625,-0.29885703325271606,-0.1844758689403534,1.4121261835098267
1761396669390260200,5.20826025390625,-0.22601348161697388,0.30985227227211,1.4788612127304077
1761396669409637400,5.227637451171875,-0.21196399629116058,0.32665055990219116,1.4310624599456787
1761396669429001000,5.2470009765625,-0.20524467527866364,-0.29412296414375305,0.634364902973175
1761396669448391700,5.2663916015625,-0.24479703605175018,-0.6514685750007629,-0.7656970620155334
1761396669467768800,5.285768798828125,-0.37826716899871826,-0.03390202298760414,-1.8171179294586182
1761396669487132700,5.305132568359375,-0.5696150660514832,0.12262758612632751,-2.0197665691375732
1761396669506523400,5.3245234375,-0.4027010500431061,-0.31351736187934875,-1.8713306188583374
1761396669525900500,5.343900634765625,-0.1632489264011383,-0.5143333673477173,-1.3492088317871094
1761396669545264000,5.36326416015625,-0.4027010500431061,-0.16645587980747223,-0.8160919547080994
1761396669564654800,5.38265478515625,-0.7768449783325195,0.0856713280081749,-0.7366818189620972
1761396669584032000,5.402031982421875,-0.705070436000824,0.05131116881966591,-0.8153283596038818
1761396669603395600,5.4213955078125,-0.18310146033763885,-0.11239589750766754,-0.7516475319862366
1761396669622786300,5.440786376953125,0.26999449729919434,-0.32756683230400085,-0.4396573007106781
1761396669642163500,5.46016357421875,0.4155288338661194,-0.3689517378807068,0.12339114397764206
1761396669661527300,5.47952734375,0.3171824514865875,-0.45828816294670105,0.5494571328163147
1761396669680917800,5.498917724609375,0.17210622131824493,-0.40636613965034485,0.5819846987724304
1761396669700295000,5.518294921875,0.1566823273897171,-0.12262758612632751,0.40697699785232544
1761396669719658800,5.53765869140625,0.22967857122421265,0.042759306728839874,0.3396310806274414
1761396669739049500,5.557049560546875,0.27839362621307373,-0.006261184345930815,0.5044071078300476
1761396669758426600,5.576426513671875,0.3211529552936554,-0.1104106456041336,0.6988092660903931
1761396669777790200,5.595790283203125,0.35658207535743713,-0.06276455521583557,0.916270911693573
1761396669797181000,5.615180908203125,0.35505497455596924,-0.05650337040424347,1.1709941625595093
1761396669816558000,5.63455810546875,0.16996824741363525,-0.7644753456115723,0.668419599533081
1761396669835921700,5.653921630859375,-0.06016845628619194,-1.4820681810379028,-0.6685723066329956
1761396669855312400,5.6733125,0.07009471952915192,-1.030041217803955,-1.825669765472412
1761396669874689500,5.692689453125,0.41201648116111755,-0.3339807391166687,-2.4401819705963135
1761396669894053000,5.71205322265625,1.0999832153320312,-0.05008947476744652,-2.0069386959075928
1761396669913443800,5.73144384765625,1.518718957901001,-0.3880407214164734,-0.8255600929260254
1761396669932821000,5.750821044921875,1.4939796924591064,-0.8420529365539551,0.05757235363125801
1761396669952184800,5.770184814453125,1.3817365169525146,-0.9066500663757324,0.052990999072790146
1761396669971575300,5.7895751953125,1.3475290536880493,-0.25121092796325684,-0.6128324866294861
1761396669990952700,5.80895263671875,1.3592878580093384,0.5870242118835449,-1.4217469692230225
1761396670010329900,5.828329833984375,1.3079767227172852,1.0891406536102295,-2.1109354496002197
1761396670029707000,5.84770703125,0.9949174523353577,0.8550334572792053,-2.4659903049468994
1761396670049084200,5.867084228515625,0.6441384553909302,0.21929416060447693,-2.093831777572632
1761396670068447700,5.88644775390625,0.669030487537384,-0.16935740411281586,-1.2459757328033447
1761396670087838500,5.90583837890625,0.7401941418647766,-0.030389651656150818,-0.390942245721817
1761396670107215600,5.925215576171875,0.6534538269042969,0.03634541109204292,0.19424942135810852
1761396670126579200,5.9445791015625,0.4480564594268799,-0.13591352105140686,0.5016583204269409
1761396670145970000,5.963969970703125,0.1644706279039383,0.04550812020897865,0.7203416228294373
1761396670165347000,5.98334716796875,0.15149012207984924,0.6855233311653137,1.0185878276824951
1761396670184711000,6.0027109375,0.6261184215545654,1.2855280637741089,1.2307045459747314
1761396670204101600,6.0221015625,0.8903098702430725,0.6369609832763672,0.6856760382652283
1761396670223478800,6.041478759765625,0.36482852697372437,-0.8081509470939636,-0.6917845010757446
1761396670242842400,6.06084228515625,-0.20509196817874908,-1.8068861961364746,-2.6571855545043945
1761396670262233000,6.080233154296875,-0.6084038615226746,-2.516996145248413,-3.9669947624206543
1761396670281610200,6.0996103515625,-1.5642271041870117,-1.8444533348083496,-3.1741151809692383
1761396670300973800,6.118973876953125,-2.514400005340576,-0.36452311277389526,-1.8273495435714722
1761396670320364500,6.138364501953125,-2.583731174468994,0.9998042583465576,-1.0957072973251343
1761396670339741700,6.15774169921875,-1.8070389032363892,1.619966983795166,-0.6699467301368713
1761396670359105500,6.17710546875,-0.9127585291862488,0.9683456420898438,-0.05390727147459984
1761396670378496000,6.19649609375,-0.34818294644355774,-0.2611372172832489,0.6562026739120483
1761396670397873400,6.215873291015625,0.008551862090826035,-0.9926267862319946,1.1862653493881226
1761396670417237000,6.235237060546875,0.33566057682037354,-1.0378295183181763,1.5767494440078735
1761396670436627700,6.254627685546875,0.5935907959938049,-0.694227933883667,1.977159857749939
1761396670456004900,6.2740048828125,0.684148907661438,-0.21685077250003815,2.420940399169922
1761396670475382000,6.293382080078125,0.6862868666648865,0.2764083743095398,2.7706503868103027
1761396670494759200,6.31275927734375,0.45111069083213806,0.1817270666360855,2.921682357788086
1761396670514136300,6.33213623046875,0.1635543555021286,0.30633988976478577,2.7808821201324463
1761396670533500000,6.3515,-0.025961007922887802,0.7072083950042725,2.279529333114624
1761396670552890600,6.370890625,0.11545012891292572,1.0364550352096558,1.6996824741363525
1761396670572267800,6.390267822265625,0.390942245721817,1.7690136432647705,0.9903361201286316
1761396670591631600,6.409631591796875,0.7745543122291565,0.984991192817688,0.005803049076348543
1761396670611022000,6.42902197265625,1.0668447017669678,-2.867011547088623,-1.1407572031021118
1761396670630399500,6.4483994140625,0.6943806409835815,-4.593876838684082,-1.9962488412857056
1761396670649763000,6.46776318359375,-0.14400723576545715,-1.7064018249511719,-2.0414514541625977
1761396670669153800,6.48715380859375,-0.6302416324615479,1.34080970287323,-1.697849988937378
1761396670688531000,6.506531005859375,-0.8189934492111206,2.0463383197784424,-1.5158175230026245
1761396670707894500,6.52589453125,-1.0149227380752563,1.2059651613235474,-1.4657280445098877
1761396670727285200,6.54528515625,-0.8389987349510193,0.20356485247612,-1.4498459100723267
1761396670746662400,6.564662353515625,-0.3174878656864166,-0.062306419014930725,-1.346307396888733
1761396670766026000,6.58402587890625,-0.08200624585151672,0.05100574716925621,-0.9588775038719177
1761396670785416700,6.603416748046875,-0.3327590525150299,0.32069480419158936,-0.5650337338447571
1761396670804793900,6.6227939453125,-0.767224133014679,0.49860408902168274,-0.15836215019226074
1761396670824157700,6.64215771484375,-1.298966646194458,-0.04306473210453987,0.2739650011062622
1761396670843548200,6.661548095703125,-1.7826050519943237,-0.5955760478973389,0.6432221531867981
1761396670862925600,6.680925537109375,-1.7196877002716064,-0.46668729186058044,0.7476770281791687
1761396670882289200,6.7002890625,-1.2719366550445557,-0.16019469499588013,0.5439594984054565
1761396670901679900,6.719679931640625,-0.10002623498439789,0.3142809271812439,-0.733169436454773
1761396670921057000,6.73905712890625,0.5729747414588928,-0.21349111199378967,-1.988918662071228
1761396670940420600,6.758420654296875,0.9032903909683228,-1.6999878883361816,-1.9733420610427856
1761396670959811300,6.777811279296875,1.2951488494873047,-2.4078071117401123,-1.0030112266540527
1761396670979188500,6.7971884765625,1.41762375831604,-1.7647377252578735,-0.23090025782585144
1761396670998552000,6.816552001953125,1.641957402229309,-2.331145763397217,-0.5360184907913208
1761396671017942800,6.83594287109375,0.9721634387969971,-2.4688918590545654,-0.9112313985824585
1761396671037320000,6.85531982421875,-0.0784938707947731,-0.7889092564582825,-0.9043593406677246
1761396671056683800,6.874683837890625,-0.6236750483512878,1.0877662897109985,-0.02870982140302658
1761396671076074500,6.894074462890625,-0.5344913601875305,1.6214940547943115,0.996749997138977
1761396671095451400,6.913451416015625,-0.13973131775856018,0.5522059202194214,1.5946167707443237
1761396671114815200,6.932815185546875,0.23593975603580475,-1.0376768112182617,1.7433581352233887
1761396671134206000,6.9522060546875,0.3174878656864166,-1.4935215711593628,1.4687821865081787
1761396671153583000,6.9715830078125,-0.25625041127204895,-0.45767730474472046,0.7997517585754395
1761396671172946700,6.99094677734375,-1.0625687837600708,0.5853443741798401,0.03573456406593323
1761396671192337400,7.01033740234375,-1.6610463857650757,0.9668185114860535,-0.36192700266838074
1761396671211714600,7.029714599609375,-2.005258798599243,0.4124746024608612,-0.42423340678215027
1761396671231078100,7.049078125,-1.8427734375,-0.4746283292770386,-0.6100836992263794
1761396671250468900,7.06846875,-1.1879452466964722,-1.3298144340515137,-0.5210527181625366
1761396671269846000,7.087845947265625,-0.5335750579833984,-1.6899089813232422,0.21501824259757996
1761396671289209900,7.1072099609375,-0.0925433561205864,-1.800624966621399,0.7892146706581116
1761396671308600300,7.126600341796875,0.30740886926651,-1.8278076648712158,0.594507098197937
1761396671327977700,7.145977783203125,0.5572454333305359,-1.335159420967102,-0.054365407675504684
1761396671347341300,7.16534130859375,0.7178982496261597,-1.6758594512939453,-0.5593833923339844
1761396671366732000,7.18473193359375,1.5868284702301025,-3.314762592315674,-0.8608365058898926
1761396671386109200,7.204109130859375,2.1938579082489014,-4.019222259521484,0.09208522737026215
1761396671405472800,7.22347265625,0.5544965863227844,-1.2748382091522217,1.3605095148086548
1761396671424863500,7.242863525390625,-1.470920205116272,2.366422176361084,1.5046695470809937
1761396671444240600,7.26224072265625,-1.890114188194275,3.7886273860931396,0.6868977546691895
1761396671463604200,7.281604248046875,-1.645927906036377,3.0010926723480225,0.4680617153644562
1761396671482995000,7.300994873046875,-1.0767710208892822,1.2994248867034912,1.0637905597686768
1761396671502372000,7.3203720703125,-0.7015580534934998,0.11911521852016449,1.8279603719711304
1761396671521736000,7.33973583984375,-0.883590579032898,-0.34192174673080444,1.8290294408798218
1761396671541126400,7.35912646484375,-1.2810994386672974,-0.487761527299881,1.1885560750961304
1761396671560503800,7.37850390625,-1.5342955589294434,-0.5740436911582947,0.6407787799835205
1761396671579867400,7.397867431640625,-1.3965495824813843,-0.8058602213859558,0.39140036702156067
1761396671599258000,7.417258056640625,-0.7516475319862366,-1.5266599655151367,0.22876229882240295
1761396671618635300,7.43663525390625,0.05360184609889984,-2.4976017475128174,-0.20188501477241516
1761396671637998800,7.455998779296875,0.661853015422821,-2.6219091415405273,-0.48638713359832764
1761396671657389600,7.4753896484375,0.7211052179336548,-2.2083654403686523,-0.7878402471542358
1761396671676766700,7.4947666015625,1.0925003290176392,-1.2954543828964233,-1.2960652112960815
1761396671696130300,7.51413037109375,1.7598509788513184,-0.7343910932540894,-1.7094560861587524
1761396671715521000,7.53352099609375,1.9805195331573486,-1.01370108127594,-2.0759644508361816
1761396671734898200,7.552898193359375,2.0269439220428467,-1.019656777381897,-2.421856641769409
1761396671754262000,7.572261962890625,2.0695505142211914,-1.518718957901001,-2.7549211978912354
1761396671773652700,7.59165283203125,0.7710419297218323,-0.7350019812583923,-2.695821762084961
1761396671793030000,7.61102978515625,-1.391510009765625,2.5496764183044434,-1.8073443174362183
1761396671812393500,7.6303935546875,-1.598434567451477,3.6601967811584473,-0.5630484819412231
1761396671831784200,7.6497841796875,-0.7029324769973755,1.9066070318222046,0.5942016839981079
1761396671851161300,7.669161376953125,-0.42011019587516785,0.16004198789596558,1.8302510976791382
1761396671870525000,7.68852490234375,-0.6514685750007629,-0.2652604281902313,2.3241209983825684
1761396671889915600,7.70791552734375,-1.2058124542236328,0.25976279377937317,1.6303513050079346
1761396671909292800,7.727292724609375,-1.5944640636444092,1.0034693479537964,0.5459447503089905
1761396671928656400,7.746656494140625,-1.7516045570373535,1.2879714965820312,-0.16523417830467224
1761396671948047000,7.766047119140625,-1.8421626091003418,0.9953756332397461,-0.5407525300979614
1761396671967424300,7.78542431640625,-1.501309871673584,0.6232169270515442,-0.3471139669418335
1761396671986788000,7.8047880859375,-1.203369140625,0.2473931461572647,0.21242213249206543
1761396672006178600,7.824178466796875,-0.9324583411216736,-0.20096874237060547,0.561826765537262
1761396672025555700,7.8435556640625,-0.6649072170257568,-0.6508577466011047,0.5022691488265991
1761396672044919600,7.86291943359375,-0.44484952092170715,-1.047450304031372,-0.05635065957903862
1761396672064310300,7.882310302734375,-0.3274141252040863,-1.5807199478149414,-0.8502993583679199
1761396672083687400,7.9016875,-0.4963133931159973,-1.5410149097442627,-1.3598986864089966
1761396672103051000,7.921051025390625,-1.0642486810684204,0.3045073449611664,-0.9988879561424255
1761396672122441700,7.940441650390625,-1.5515520572662354,1.3785295486450195,-0.5525113344192505
1761396672141819000,7.95981884765625,-1.191610336303711,0.14080029726028442,-0.9101623892784119
1761396672161182500,7.979182373046875,-1.0750911235809326,-0.46454933285713196,-0.8842014074325562
1761396672180573200,7.9985732421875,-1.1908466815948486,0.6584933400154114,-0.025350160896778107
1761396672199950300,8.017950439453125,-1.2484190464019775,1.26399564743042,0.6620057225227356
1761396672219314200,8.037314208984375,-1.096165418624878,1.152668833732605,0.8849649429321289
1761396672238704600,8.05670458984375,-0.8244910836219788,0.7731798887252808,0.8200624585151672
1761396672258082000,8.07608203125,-0.5239542126655579,0.4127800464630127,0.698503851890564
1761396672277445600,8.095445556640625,-0.29626092314720154,-0.07314895838499069,0.7669187188148499
1761396672296836400,8.11483642578125,-0.3232909142971039,-0.5606050491333008,1.0668447017669678
1761396672316213500,8.134213623046875,-0.7072083950042725,-0.3402419090270996,1.3232479095458984
1761396672335577000,8.1535771484375,-1.1461021900177002,0.6019899845123291,1.4371708631515503
1761396672354967800,8.1729677734375,-1.559493064880371,1.1054807901382446,1.531394124031067
1761396672374345000,8.192344970703125,-1.6361544132232666,0.9356653094291687,1.7419836521148682
1761396672393708500,8.21170849609375,-1.2717839479446411,0.08658760040998459,2.2294397354125977
1761396672413099300,8.231099365234375,-0.6917845010757446,-1.0176715850830078,2.6637520790100098
1761396672432476400,8.250476318359375,-0.2686200737953186,-1.300493836402893,2.0958168506622314
1761396672451840000,8.269840087890625,-0.1957765519618988,-1.000720500946045,0.5381564497947693
1761396672471230700,8.289230712890625,-0.2987042963504791,-0.6253548860549927,-0.3695625960826874
1761396672490607900,8.30860791015625,-0.735460102558136,-0.1313321590423584,-0.10384403169155121
1761396672509971700,8.3279716796875,-1.3168339729309082,-0.23792500793933868,0.057114217430353165
1761396672529362400,8.347362548828125,-1.3693668842315674,0.319320410490036,-0.22219568490982056
1761396672548739600,8.366739501953125,-1.0541696548461914,0.3139754831790924,-0.7601994276046753
1761396672568103200,8.386103271484375,-0.6896465420722961,-0.3268032968044281,-1.3806675672531128
1761396672587494000,8.405493896484375,-0.3173351585865021,-0.7536327838897705,-1.426481008529663
1761396672606871000,8.42487109375,-0.20341213047504425,-0.18798823654651642,-0.2767138183116913
1761396672626234600,8.444234619140625,-0.5173876285552979,0.0647498071193695,1.1306782960891724
1761396672645625300,8.463625244140625,-1.0550858974456787,-0.543806791305542,1.5375025272369385
1761396672665002500,8.48300244140625,-1.2630794048309326,-0.7533273696899414,0.9387195110321045
1761396672684366000,8.502365966796875,-1.09219491481781,-0.5583143830299377,0.10201149433851242
1761396672703756800,8.5217568359375,-0.724006712436676,0.009773556143045425,-0.3032856583595276
1761396672723134000,8.541134033203125,-0.2414373755455017,0.24556060135364532,0.01954711228609085
1761396672742497800,8.560497802734375,-0.036192700266838074,0.10140064358711243,0.7921161651611328
1761396672761888500,8.579888427734375,-0.168899267911911,-0.09498675167560577,1.2378820180892944
1761396672781265400,8.599265380859375,-0.20005246996879578,-0.0522274412214756,1.0975397825241089
1761396672800629200,8.618629150390625,-0.1776038408279419,0.3092414140701294,0.8011261820793152
1761396672820020000,8.63802001953125,-0.18966807425022125,0.7924215793609619,0.6904101371765137
1761396672839397000,8.657397216796875,-0.1438545286655426,0.6497887969017029,1.3473763465881348
1761396672858760700,8.6767607421875,-0.10109522193670273,-0.28755635023117065,2.062525749206543
1761396672878151400,8.6961513671875,-0.22738789021968842,-0.8072346448898315,1.4582451581954956
1761396672897528600,8.715528564453125,-0.32665055990219116,-0.362995982170105,-0.1832541823387146
1761396672916892200,8.73489208984375,0.08215895295143127,0.22127941250801086,-2.082378387451172
1761396672936283000,8.754282958984374,0.5925218462944031,0.3052709102630615,-3.1344099044799805
1761396672955660000,8.773659912109375,0.7844805717468262,-0.15683503448963165,-2.649549961090088
1761396672975023900,8.79302392578125,0.6404733657836914,-0.543195903301239,-1.4373235702514648
1761396672994414300,8.812414306640624,-0.08979454636573792,-0.6705575585365295,-0.011606098152697086
1761396673013791700,8.831791748046875,-0.775317907333374,-0.4874561131000519,0.7608102560043335
1761396673033155300,8.8511552734375,-0.7588250041007996,0.03695625811815262,0.5129590034484863
1761396673052546000,8.870546142578124,-0.22524993121623993,0.07971556484699249,0.03145863488316536
1761396673071923200,8.889923095703125,0.24540787935256958,-0.13560809195041656,-0.1647760421037674
1761396673091286800,8.909286865234375,0.573585569858551,-0.07895200699567795,-0.09422318637371063
1761396673110677500,8.928677490234374,0.5115845799446106,-0.07116370648145676,0.2886253297328949
1761396673130054700,8.9480546875,0.3239017724990845,-0.04871506989002228,0.6887302994728088
1761396673149418200,8.967418212890625,0.2426590770483017,0.12491826713085175,0.9579612016677856
1761396673168809000,8.98680908203125,0.0022906772792339325,0.23273280262947083,1.2003148794174194
1761396673188186000,9.00618603515625,-0.17210622131824493,0.19776180386543274,1.2126845121383667
1761396673207549700,9.0255498046875,-0.14813046157360077,0.2276933193206787,1.1257915496826172
1761396673226940400,9.0449404296875,-0.24586601555347443,0.2933593988418579,0.9234483242034912
1761396673246317600,9.064317626953125,-0.25533416867256165,0.17271706461906433,0.43538138270378113
1761396673265681400,9.083681396484375,-0.10124793648719788,-0.1560714691877365,-0.3897205591201782
1761396673285072000,9.10307177734375,0.1519482582807541,-0.3927747905254364,-1.3660072088241577
1761396673304449300,9.12244921875,0.6143596172332764,-0.26434415578842163,-2.4287288188934326
1761396673323812900,9.141812744140625,1.661962628364563,-0.6862868666648865,-2.953446388244629
1761396673343203600,9.16120361328125,2.3050320148468018,-1.3062968254089355,-2.0790185928344727
1761396673362580700,9.180580810546875,1.5423892736434937,-1.0308047533035278,-0.5673243999481201
1761396673381944300,9.1999443359375,0.36879903078079224,0.025502873584628105,-0.002748812548816204
1761396673401335000,9.2193349609375,-0.04932591691613197,0.5548020005226135,-0.2011214643716812
1761396673420712200,9.238712158203125,-0.08887827396392822,-0.1375933438539505,-0.5867187976837158
1761396673440075800,9.25807568359375,-0.07391251623630524,-0.26373329758644104,-0.7273663878440857
1761396673459466500,9.277466552734374,-0.19272230565547943,0.35856732726097107,-0.18310146033763885
1761396673478843600,9.29684375,-0.32191649079322815,0.8675557971000671,0.5376983284950256
1761396673498207500,9.31620751953125,-0.18569757044315338,0.7539382576942444,0.8257128000259399
1761396673517598000,9.335597900390624,-0.16004198789596558,0.09009996801614761,0.6824691295623779
1761396673536975000,9.35497509765625,-0.09116895496845245,0.008399149402976036,0.7530219554901123
1761396673556339000,9.3743388671875,0.008857285603880882,0.2692309319972992,1.1161706447601318
1761396673575729700,9.393729736328124,0.07528692483901978,0.41445985436439514,1.3485980033874512
1761396673595106800,9.41310693359375,0.11606097966432571,0.6540647149085999,1.407239317893982
1761396673614470400,9.432470458984374,0.20371755957603455,0.7656970620155334,0.9889616966247559
1761396673633861000,9.451861083984374,0.046729814261198044,1.0680664777755737,-0.922837495803833
1761396673653238300,9.47123828125,-0.11499200016260147,1.426481008529663,-2.8766324520111084
1761396673672601900,9.490601806640624,0.3339807391166687,0.34253260493278503,-2.925042152404785
1761396673691992600,9.50999267578125,1.1198357343673706,-0.3405473530292511,-2.0416042804718018
1761396673711369700,9.52936962890625,0.8559496998786926,0.9497147798538208,-0.6922426819801331
1761396673730733600,9.548733642578124,0.10491301864385605,1.5547590255737305,0.6945333480834961
1761396673750124000,9.5681240234375,-0.07024743407964706,0.3089359998703003,1.6714308261871338
1761396673769501200,9.587501220703125,-0.6218425035476685,-0.27121618390083313,2.024958610534668
1761396673788865000,9.606864990234374,-1.4913835525512695,0.5079194903373718,1.633100152015686
1761396673808255700,9.626255859375,-1.8569756746292114,1.2099356651306152,0.7281299233436584
1761396673827632600,9.645632568359375,-1.6564650535583496,0.3958290219306946,-0.015423892997205257
1761396673846996500,9.66499658203125,-1.2574291229248047,-0.1632489264011383,-0.09009996801614761
1761396673866387200,9.68438720703125,-0.6702521443367004,0.3312319219112396,0.5630484819412231
1761396673885764400,9.703764404296875,-0.025808297097682953,0.1632489264011383,1.135412335395813
1761396673905128000,9.7231279296875,0.20936790108680725,-0.37322768568992615,0.9761339426040649
1761396673924518700,9.7425185546875,0.17470231652259827,-0.40636613965034485,0.6627692580223083
1761396673943895800,9.761895751953125,0.17684027552604675,-0.3703261613845825,0.6128324866294861
1761396673963259400,9.78125927734375,0.11270131915807724,-0.20432840287685394,0.6809419989585876
1761396673982650000,9.800650146484376,-0.05085303261876106,-0.27503398060798645,0.8171609044075012
1761396674002027300,9.82002734375,0.023212196305394173,-0.42133188247680664,0.834570050239563
1761396674021391000,9.83939111328125,0.12995775043964386,-0.14309096336364746,-0.0016798300202935934
1761396674040781600,9.858781494140626,0.07452336698770523,-0.1966928243637085,-1.1760337352752686
1761396674060158700,9.87815869140625,-0.0841442123055458,-0.564728319644928,-2.161330223083496
1761396674079522600,9.8975224609375,-0.11300674080848694,-0.9000834226608276,-3.2559685707092285
1761396674098913300,9.916913330078126,0.11209046840667725,-0.8675557971000671,-3.26849102973938
1761396674118290400,9.93629052734375,0.046729814261198044,-0.7487460374832153,-2.166675329208374
1761396674137654000,9.955654052734374,-0.21959958970546722,-0.5799994468688965,-0.9297095537185669
1761396674157044700,9.975044677734376,-0.5334223508834839,-0.4164451062679291,-0.29091599583625793
1761396674176422000,9.994421875,-0.5073086619377136,0.3304683566093445,-0.497229665517807
1761396674195785500,10.013785400390624,-0.24937839806079865,0.08780929446220398,-0.8861866593360901
1761396674215176200,10.03317626953125,0.1325538605451584,-0.6071822047233582,-1.2271921634674072
1761396674234553300,10.05255322265625,-0.08017370104789734,-0.3196258246898651,-0.3605526089668274
1761396674253917000,10.0719169921875,-0.22158484160900116,-0.1963873952627182,0.6581879258155823
1761396674273307600,10.0913076171875,0.10689827054738998,-0.042606595903635025,1.0723423957824707
