time,seconds_elapsed,z,y,x
1761299846391552300,0.05755224609375,-0.9950714111328125,-0.4665985107421875,-0.009979248046875
1761299846411674400,0.07767431640625,-0.76129150390625,-0.3752899169921875,0.03955078125
1761299846431796200,0.097796142578125,-0.6630859375,-0.24725341796875,0.1449737548828125
1761299846451918300,0.11791845703125,-0.8239288330078125,-0.1373291015625,0.06475830078125
1761299846472040400,0.13804052734375,-1.0955810546875,-0.098388671875,-0.0328826904296875
1761299846492162300,0.158162353515625,-0.9952392578125,-0.0672454833984375,-0.0823211669921875
1761299846512283400,0.178283447265625,-0.6291961669921875,-0.1603546142578125,-0.0453643798828125
1761299846532405500,0.198405517578125,-0.445892333984375,-0.2663726806640625,0.0337371826171875
1761299846552527400,0.21852734375,-0.42352294921875,-0.3348388671875,0.01141357421875
1761299846572649200,0.238649169921875,-0.5356292724609375,-0.3980865478515625,-0.075439453125
1761299846592771300,0.258771240234375,-0.7027740478515625,-0.430755615234375,-0.1674346923828125
1761299846612893400,0.2788935546875,-0.886383056640625,-0.46209716796875,-0.2600250244140625
1761299846633014300,0.29901416015625,-0.87408447265625,-0.4629974365234375,-0.249053955078125
1761299846653136100,0.31913623046875,-0.7411346435546875,-0.5494842529296875,-0.195037841796875
1761299846673258200,0.33925830078125,-0.77911376953125,-0.5692901611328125,-0.239410400390625
1761299846693380400,0.35938037109375,-0.870880126953125,-0.4725341796875,-0.2213287353515625
1761299846713502500,0.37950244140625,-0.983428955078125,-0.3912506103515625,-0.1292572021484375
1761299846733624600,0.39962451171875,-0.9376068115234375,-0.3546295166015625,-0.121734619140625
1761299846753746400,0.419746337890625,-0.9224395751953125,-0.3645782470703125,-0.1854095458984375
1761299846773867500,0.439867431640625,-0.933441162109375,-0.308441162109375,-0.149627685546875
1761299846793989600,0.45998974609375,-0.8222198486328125,-0.23388671875,-0.0604400634765625
1761299846814111700,0.48011181640625,-0.656890869140625,-0.2050933837890625,-0.0418243408203125
1761299846834233600,0.500233642578125,-0.47808837890625,-0.260833740234375,-0.1053466796875
1761299846854355500,0.52035546875,-0.4008636474609375,-0.376251220703125,-0.2186279296875
1761299846874477600,0.5404775390625,-0.376007080078125,-0.4297332763671875,-0.2829742431640625
1761299846894598700,0.5605986328125,-0.4378204345703125,-0.45745849609375,-0.171356201171875
1761299846914720500,0.580720458984375,-0.6146087646484375,-0.40478515625,-0.0386962890625
1761299846934842600,0.600842529296875,-0.7584686279296875,-0.3441314697265625,0.0662384033203125
1761299846954964700,0.62096484375,-0.839508056640625,-0.379913330078125,0.1015777587890625
1761299846975086600,0.641086669921875,-0.9035797119140625,-0.4503631591796875,0.0179901123046875
1761299846995208400,0.66120849609375,-0.9552154541015625,-0.5218048095703125,-0.0075836181640625
1761299847015329500,0.68132958984375,-0.8706512451171875,-0.623626708984375,0.008087158203125
1761299847035451600,0.70145166015625,-0.855224609375,-0.6725311279296875,-0.010009765625
1761299847055573800,0.72157373046875,-0.928253173828125,-0.7025299072265625,-0.0036468505859375
1761299847075695600,0.741695556640625,-0.9797515869140625,-0.7493896484375,-0.1023406982421875
1761299847095817500,0.7618173828125,-0.983856201171875,-0.8012542724609375,-0.1386260986328125
1761299847115939600,0.781939697265625,-0.91796875,-0.808135986328125,-0.0625457763671875
1761299847136060700,0.802060791015625,-0.8970489501953125,-0.8138885498046875,0.0465087890625
1761299847156182500,0.8221826171875,-0.9409332275390625,-0.756561279296875,0.1252593994140625
1761299847176304600,0.8423046875,-1.022125244140625,-0.73974609375,0.024017333984375
1761299847196426800,0.8624267578125,-1.0904083251953125,-0.7529754638671875,-0.1545257568359375
1761299847216548600,0.882548583984375,-0.9359588623046875,-0.790679931640625,-0.184661865234375
1761299847236670500,0.90267041015625,-0.865234375,-0.8109130859375,0.0027313232421875
1761299847256791600,0.92279150390625,-1.09100341796875,-0.7623443603515625,0.1583251953125
1761299847276913700,0.94291357421875,-1.461669921875,-0.6614227294921875,0.0440216064453125
1761299847297035800,0.963035888671875,-1.7033843994140625,-0.5641021728515625,-0.1356048583984375
1761299847317157600,0.98315771484375,-1.5759124755859375,-0.495697021484375,-0.1559906005859375
1761299847337279500,1.003279541015625,-1.2566070556640625,-0.54156494140625,-0.082855224609375
1761299847357401600,1.023401611328125,-1.015106201171875,-0.618316650390625,-0.0789337158203125
1761299847377522700,1.043522705078125,-0.875457763671875,-0.629058837890625,-0.1466827392578125
1761299847397644500,1.06364453125,-0.82672119140625,-0.5462799072265625,-0.183746337890625
1761299847417766700,1.0837666015625,-0.8179473876953125,-0.423675537109375,-0.14764404296875
1761299847437888500,1.103888427734375,-0.824493408203125,-0.33050537109375,-0.0824127197265625
1761299847458010600,1.1240107421875,-0.8131561279296875,-0.259674072265625,-0.1098175048828125
1761299847478132700,1.1441328125,-0.71710205078125,-0.219573974609375,-0.12725830078125
1761299847498253600,1.164253662109375,-0.611480712890625,-0.1505584716796875,-0.0347137451171875
1761299847518375700,1.184375732421875,-0.6298065185546875,-0.04693603515625,0.174774169921875
1761299847538497800,1.204497802734375,-0.6566314697265625,0.0501861572265625,0.1849365234375
1761299847558619400,1.224619384765625,-0.623931884765625,0.028167724609375,0.035125732421875
1761299847578741500,1.244741455078125,-0.53741455078125,-0.0785064697265625,-0.125274658203125
1761299847598863600,1.264863525390625,-0.4830780029296875,-0.296539306640625,-0.2437744140625
1761299847618985700,1.28498583984375,-0.48565673828125,-0.5155181884765625,-0.202972412109375
1761299847639106600,1.3051064453125,-0.8234405517578125,-0.57122802734375,-0.2288970947265625
1761299847659228700,1.325228759765625,-1.433319091796875,-0.4226226806640625,-0.3192596435546875
1761299847679350500,1.3453505859375,-1.7281036376953125,-0.2811279296875,-0.22723388671875
1761299847699472600,1.36547265625,-1.4300994873046875,-0.2986907958984375,-0.1307830810546875
1761299847719594800,1.3855947265625,-1.04296875,-0.4137420654296875,-0.084228515625
1761299847739716400,1.40571630859375,-0.821075439453125,-0.487091064453125,-0.101776123046875
1761299847759837400,1.42583740234375,-0.8130035400390625,-0.53424072265625,-0.1464385986328125
1761299847779959300,1.445959228515625,-0.9286346435546875,-0.491058349609375,-0.1862335205078125
1761299847800081200,1.4660810546875,-1.039642333984375,-0.331298828125,-0.109344482421875
1761299847820203300,1.486203369140625,-1.103118896484375,-0.230682373046875,0.027587890625
1761299847840325400,1.506325439453125,-1.10888671875,-0.1846466064453125,0.1135101318359375
1761299847860447500,1.526447509765625,-0.9276580810546875,-0.241973876953125,0.14263916015625
1761299847880568300,1.546568359375,-0.7306365966796875,-0.3231964111328125,0.255218505859375
1761299847900690400,1.5666904296875,-0.6251068115234375,-0.370635986328125,0.2719879150390625
1761299847920812300,1.586812255859375,-0.5825653076171875,-0.4532928466796875,0.1542205810546875
1761299847940934400,1.606934326171875,-0.610931396484375,-0.591217041015625,-0.0132293701171875
1761299847961056300,1.62705615234375,-0.8094329833984375,-0.5694732666015625,-0.1529541015625
1761299847981178400,1.647178466796875,-1.078277587890625,-0.4768829345703125,-0.0756988525390625
1761299848001299500,1.667299560546875,-1.22052001953125,-0.424102783203125,0.128021240234375
1761299848021421300,1.68742138671875,-1.1970672607421875,-0.3638763427734375,0.0898284912109375
1761299848041543200,1.707543212890625,-1.123382568359375,-0.341522216796875,-0.0002899169921875
1761299848061665300,1.727665283203125,-0.92840576171875,-0.3926239013671875,-0.0085906982421875
1761299848081787400,1.747787353515625,-0.669403076171875,-0.45062255859375,-0.020965576171875
1761299848101909500,1.767909423828125,-0.52703857421875,-0.540252685546875,0.012603759765625
1761299848122031000,1.788031005859375,-0.52154541015625,-0.5888824462890625,-0.0268402099609375
1761299848142152200,1.808152099609375,-0.7168426513671875,-0.65716552734375,-0.132354736328125
1761299848162274300,1.8282744140625,-0.9448394775390625,-0.6564483642578125,-0.1306304931640625
1761299848182396400,1.848396484375,-1.044219970703125,-0.6138458251953125,0.0297088623046875
1761299848202518300,1.868518310546875,-1.07403564453125,-0.5516510009765625,0.15826416015625
1761299848222640400,1.888640380859375,-1.0825347900390625,-0.538909912109375,0.1724700927734375
1761299848242762200,1.90876220703125,-1.0844573974609375,-0.5281982421875,0.1309967041015625
1761299848262883300,1.92888330078125,-1.1471405029296875,-0.5054168701171875,0.0493011474609375
1761299848283005200,1.949005126953125,-1.1551055908203125,-0.482574462890625,0.0348968505859375
1761299848303127300,1.969127197265625,-1.1803741455078125,-0.4712371826171875,-0.001861572265625
1761299848323249400,1.98924951171875,-1.1717681884765625,-0.4686279296875,-0.0270843505859375
1761299848343371300,2.009371337890625,-1.0823211669921875,-0.4661865234375,0.0214691162109375
1761299848363493000,2.0294931640625,-1.0250701904296875,-0.491790771484375,0.1229248046875
1761299848383614200,2.0496142578125,-0.9934234619140625,-0.48736572265625,0.2005157470703125
1761299848403736300,2.069736328125,-0.9312896728515625,-0.5620269775390625,0.213348388671875
1761299848423858400,2.0898583984375,-0.9775848388671875,-0.62841796875,0.0931549072265625
1761299848443980300,2.109980224609375,-1.1486968994140625,-0.5595245361328125,-0.036529541015625
1761299848464102100,2.13010205078125,-1.305816650390625,-0.444671630859375,-0.1714935302734375
1761299848484224300,2.150224365234375,-1.2580413818359375,-0.3557891845703125,-0.1313323974609375
1761299848504346400,2.170346435546875,-1.04083251953125,-0.2834014892578125,0.0020904541015625
1761299848524467200,2.19046728515625,-0.8702392578125,-0.2041778564453125,0.074493408203125
1761299848544589300,2.21058935546875,-0.833587646484375,-0.139190673828125,0.0272979736328125
1761299848564711400,2.23071142578125,-0.7900238037109375,-0.168609619140625,-0.110595703125
1761299848584833300,2.250833251953125,-0.6527099609375,-0.2286376953125,-0.1476898193359375
1761299848604955400,2.270955322265625,-0.582061767578125,-0.2128753662109375,-0.051605224609375
1761299848625077200,2.2910771484375,-0.56170654296875,-0.24072265625,-0.0425872802734375
1761299848645198300,2.3111982421875,-0.558258056640625,-0.2825775146484375,-0.0210113525390625
1761299848665320400,2.331320556640625,-0.560089111328125,-0.3188934326171875,0.0057220458984375
1761299848685442300,2.3514423828125,-0.6576385498046875,-0.354095458984375,-0.0784454345703125
1761299848705564200,2.371564208984375,-0.81341552734375,-0.3729248046875,-0.2069549560546875
1761299848725686800,2.391686767578125,-0.8976593017578125,-0.38861083984375,-0.29925537109375
1761299848745808600,2.41180859375,-0.9614715576171875,-0.36236572265625,-0.355682373046875
1761299848765930800,2.4319306640625,-0.963958740234375,-0.313201904296875,-0.2938385009765625
1761299848786051800,2.4520517578125,-0.9068145751953125,-0.3260955810546875,-0.1986846923828125
1761299848806173700,2.472173583984375,-0.85919189453125,-0.3253936767578125,-0.1801910400390625
1761299848826295600,2.492295654296875,-0.77734375,-0.4033203125,-0.271087646484375
1761299848846417700,2.512417724609375,-0.793914794921875,-0.4314117431640625,-0.30615234375
1761299848866539800,2.532539794921875,-0.9205780029296875,-0.389556884765625,-0.275970458984375
1761299848886662000,2.552661865234375,-1.1200714111328125,-0.2904510498046875,-0.1489105224609375
1761299848906782700,2.57278271484375,-1.26123046875,-0.2423553466796875,-0.057342529296875
1761299848926904600,2.592904541015625,-1.1776885986328125,-0.3262939453125,-0.1280364990234375
1761299848947026700,2.613026611328125,-0.9446868896484375,-0.39935302734375,-0.1866455078125
1761299848967148800,2.633148681640625,-0.7991180419921875,-0.4838714599609375,-0.1953125
1761299848987270700,2.653270751953125,-0.7135467529296875,-0.523223876953125,-0.1616058349609375
1761299849007392800,2.673392822265625,-0.7103424072265625,-0.6011199951171875,-0.155426025390625
1761299849027514600,2.6935146484375,-0.75189208984375,-0.633270263671875,-0.1692047119140625
1761299849047635700,2.7136357421875,-0.873565673828125,-0.6553497314453125,-0.1871795654296875
1761299849067757600,2.733757568359375,-0.9510498046875,-0.619354248046875,-0.1037139892578125
1761299849087879700,2.753879638671875,-1.0204315185546875,-0.5313262939453125,0.0004119873046875
1761299849108001800,2.774001708984375,-0.9921722412109375,-0.445587158203125,0.087799072265625
1761299849128123600,2.79412353515625,-0.936614990234375,-0.377349853515625,0.11669921875
1761299849148245800,2.814245849609375,-0.8153228759765625,-0.392547607421875,0.0148162841796875
1761299849168366600,2.83436669921875,-0.7000579833984375,-0.4413909912109375,-0.1279449462890625
1761299849188488700,2.85448876953125,-0.5770416259765625,-0.4931640625,-0.13470458984375
1761299849208610800,2.87461083984375,-0.522308349609375,-0.47979736328125,-0.044952392578125
1761299849228732700,2.894732666015625,-0.6053619384765625,-0.450836181640625,0.0234222412109375
1761299849248854500,2.9148544921875,-0.794342041015625,-0.468597412109375,-0.0113067626953125
1761299849268976600,2.9349765625,-0.8549041748046875,-0.517608642578125,-0.009521484375
1761299849289098800,2.9550986328125,-0.7788543701171875,-0.6384735107421875,0.071075439453125
1761299849309219600,2.975219482421875,-0.8211669921875,-0.658966064453125,0.17425537109375
1761299849329341700,2.995341796875,-0.994171142578125,-0.6551361083984375,0.156890869140625
1761299849349463800,3.0154638671875,-1.2094573974609375,-0.67681884765625,0.091400146484375
1761299849369585700,3.035585693359375,-1.440704345703125,-0.6444244384765625,0.167999267578125
1761299849389707800,3.055707763671875,-1.5112762451171875,-0.6175537109375,0.31439208984375
1761299849409829600,3.07582958984375,-1.5159149169921875,-0.6241455078125,0.3116912841796875
1761299849429950700,3.09595068359375,-1.3851776123046875,-0.5924224853515625,0.2273406982421875
1761299849450072800,3.11607275390625,-1.256134033203125,-0.5340728759765625,0.1159210205078125
1761299849470194700,3.136194580078125,-1.1542510986328125,-0.4830169677734375,0.0510406494140625
1761299849490316500,3.156316650390625,-1.013580322265625,-0.4593505859375,0.0931854248046875
1761299849510438700,3.176438720703125,-0.8813629150390625,-0.454559326171875,0.1213836669921875
1761299849530560800,3.196560791015625,-0.824188232421875,-0.459320068359375,0.16485595703125
1761299849550683000,3.216682861328125,-0.8194122314453125,-0.449737548828125,0.144927978515625
1761299849570803700,3.2368037109375,-0.917510986328125,-0.4736480712890625,0.0224456787109375
1761299849590925600,3.256925537109375,-1.0693206787109375,-0.43145751953125,-0.122650146484375
1761299849611047700,3.277047607421875,-1.0524444580078125,-0.335235595703125,-0.1673126220703125
1761299849631169800,3.297169677734375,-1.0533599853515625,-0.2779693603515625,-0.1623992919921875
1761299849651291600,3.317291748046875,-0.9140472412109375,-0.2305450439453125,-0.160125732421875
1761299849671413800,3.337413818359375,-0.752685546875,-0.2086334228515625,-0.1604461669921875
1761299849691535600,3.35753564453125,-0.644073486328125,-0.2014312744140625,-0.1512603759765625
1761299849711656700,3.37765673828125,-0.59564208984375,-0.223388671875,-0.16253662109375
1761299849731778600,3.397778564453125,-0.52520751953125,-0.296173095703125,-0.1726531982421875
1761299849751900700,3.417900634765625,-0.484710693359375,-0.347320556640625,-0.1103668212890625
1761299849772022800,3.438022705078125,-0.5859527587890625,-0.3374481201171875,-0.084930419921875
1761299849792144600,3.45814453125,-0.7292938232421875,-0.3228759765625,-0.052520751953125
1761299849812266500,3.4782666015625,-0.861358642578125,-0.272186279296875,-0.065093994140625
1761299849832387600,3.4983876953125,-0.8375701904296875,-0.306640625,-0.0828704833984375
1761299849852509400,3.518509521484375,-0.7921905517578125,-0.3765716552734375,-0.0427703857421875
1761299849872631600,3.538631591796875,-0.8212890625,-0.36724853515625,0.00030517578125
1761299849892753700,3.558753662109375,-0.87066650390625,-0.40814208984375,-0.0817413330078125
1761299849912875800,3.578875732421875,-1.02178955078125,-0.4198150634765625,-0.2040863037109375
1761299849932997600,3.59899755859375,-1.164520263671875,-0.3632354736328125,-0.2831268310546875
1761299849953119500,3.619119384765625,-1.1400146484375,-0.3564300537109375,-0.39031982421875
1761299849973240600,3.639240478515625,-1.107269287109375,-0.3130950927734375,-0.3847198486328125
1761299849993362700,3.65936279296875,-1.1746368408203125,-0.198638916015625,-0.217529296875
1761299850013484800,3.67948486328125,-1.238006591796875,-0.172882080078125,-0.1210479736328125
1761299850033606700,3.699606689453125,-1.0443115234375,-0.2888031005859375,-0.1306915283203125
1761299850053728500,3.719728515625,-0.7093048095703125,-0.4109649658203125,-0.2000579833984375
1761299850073850600,3.7398505859375,-0.5190582275390625,-0.550537109375,-0.2176666259765625
1761299850093972700,3.75997265625,-0.5525970458984375,-0.5842132568359375,-0.2861175537109375
1761299850114093600,3.780093505859375,-0.673370361328125,-0.592803955078125,-0.3196868896484375
1761299850134215700,3.800215576171875,-0.8558807373046875,-0.4976043701171875,-0.24114990234375
1761299850154337500,3.820337646484375,-0.972991943359375,-0.3856048583984375,-0.0272674560546875
1761299850174459600,3.840459716796875,-0.9525909423828125,-0.3086090087890625,0.0836334228515625
1761299850194581500,3.86058154296875,-0.763916015625,-0.33502197265625,0.0976715087890625
1761299850214703600,3.88070361328125,-0.574005126953125,-0.42437744140625,0.0535888671875
1761299850234824700,3.90082470703125,-0.4676513671875,-0.5014190673828125,0.0387725830078125
1761299850254946800,3.92094677734375,-0.471954345703125,-0.563232421875,0.088714599609375
1761299850275068400,3.941068359375,-0.559478759765625,-0.61468505859375,0.1622772216796875
1761299850295190500,3.9611904296875,-0.6750030517578125,-0.6845550537109375,0.1692962646484375
1761299850315312600,3.981312744140625,-0.8895416259765625,-0.76605224609375,0.0891265869140625
1761299850335432400,4.001432373046875,-1.0433807373046875,-0.790863037109375,0.085845947265625
1761299850355554600,4.021554443359375,-1.0761260986328125,-0.794036865234375,0.2199859619140625
1761299850375676700,4.0416767578125,-0.99407958984375,-0.8341827392578125,0.3473358154296875
1761299850395797800,4.0617978515625,-0.9354400634765625,-0.9239654541015625,0.3374176025390625
1761299850415919600,4.081919677734375,-1.071624755859375,-0.9448394775390625,0.2841949462890625
1761299850436041500,4.10204150390625,-1.3425140380859375,-0.8756256103515625,0.2322235107421875
1761299850456163600,4.12216357421875,-1.5535888671875,-0.7191619873046875,0.2179718017578125
1761299850476285700,4.14228564453125,-1.59552001953125,-0.60894775390625,0.2944183349609375
1761299850496407600,4.162407470703125,-1.52874755859375,-0.5142669677734375,0.409423828125
1761299850516529700,4.18252978515625,-1.24493408203125,-0.4940948486328125,0.45654296875
1761299850536650800,4.202650634765625,-0.9889373779296875,-0.537567138671875,0.3683929443359375
1761299850556772600,4.222772705078125,-0.8482666015625,-0.575897216796875,0.2030029296875
1761299850576894500,4.24289453125,-0.83148193359375,-0.5893096923828125,0.0801849365234375
1761299850597016600,4.2630166015625,-0.8835906982421875,-0.5818328857421875,-0.0084686279296875
1761299850617138700,4.283138671875,-0.81622314453125,-0.5795440673828125,-0.076263427734375
1761299850637260800,4.3032607421875,-0.5910186767578125,-0.553802490234375,-0.01837158203125
1761299850657382700,4.323382568359375,-0.5328826904296875,-0.5453338623046875,-0.0987548828125
1761299850677503500,4.34350341796875,-0.81280517578125,-0.3996734619140625,-0.247222900390625
1761299850697625600,4.36362548828125,-0.8725128173828125,-0.3302001953125,-0.1974945068359375
1761299850717747700,4.383747802734375,-0.568115234375,-0.24664306640625,0.027435302734375
1761299850737870300,4.403870361328125,-0.483428955078125,-0.1690826416015625,0.2266693115234375
1761299850757992200,4.4239921875,-0.8163909912109375,-0.0901947021484375,-0.009552001953125
1761299850778114000,4.444114013671875,-0.8445281982421875,-0.1912078857421875,-0.1825714111328125
1761299850798236200,4.464236083984375,-0.5323638916015625,-0.304840087890625,-0.096038818359375
1761299850818358300,4.484358154296875,-0.4111480712890625,-0.3941802978515625,0.0282440185546875
1761299850838479400,4.504479248046875,-0.5767822265625,-0.448211669921875,-0.0952911376953125
1761299850858601200,4.524601318359375,-0.66339111328125,-0.454132080078125,-0.2683868408203125
1761299850878723000,4.54472314453125,-0.6467437744140625,-0.55865478515625,-0.398284912109375
1761299850898845200,4.56484521484375,-0.7820587158203125,-0.5683746337890625,-0.430023193359375
1761299850918967300,4.58496728515625,-1.11944580078125,-0.4717254638671875,-0.3565826416015625
1761299850939089400,4.60508935546875,-1.1349334716796875,-0.401947021484375,-0.310211181640625
1761299850959211000,4.6252109375,-0.9685516357421875,-0.45501708984375,-0.2581787109375
1761299850979332000,4.64533203125,-0.858612060546875,-0.5128021240234375,-0.2875213623046875
1761299850999454200,4.6654541015625,-0.8033905029296875,-0.5740814208984375,-0.2842559814453125
1761299851019576300,4.685576416015625,-0.952362060546875,-0.5421295166015625,-0.2254486083984375
1761299851039698200,4.7056982421875,-1.0913543701171875,-0.4748687744140625,-0.1005859375
1761299851059820300,4.7258203125,-1.008270263671875,-0.4364166259765625,-0.0698089599609375
1761299851079942100,4.745942138671875,-0.81683349609375,-0.4903717041015625,-0.21142578125
1761299851100064300,4.766064208984375,-0.717376708984375,-0.563385009765625,-0.375
1761299851120185000,4.78618505859375,-0.6285400390625,-0.5880889892578125,-0.4100189208984375
1761299851140307200,4.80630712890625,-0.6734466552734375,-0.444915771484375,-0.33441162109375
1761299851160429300,4.82642919921875,-0.7357025146484375,-0.384765625,-0.1930389404296875
1761299851180551200,4.84655126953125,-0.7122344970703125,-0.363494873046875,-0.102264404296875
1761299851200673000,4.866673095703125,-0.6019439697265625,-0.4000091552734375,0.010772705078125
1761299851220795100,4.886795166015625,-0.5038909912109375,-0.4171295166015625,-0.0005645751953125
1761299851240917200,4.906917236328125,-0.5335540771484375,-0.4761199951171875,-0.0871124267578125
1761299851261038300,4.927038330078125,-0.7270355224609375,-0.43865966796875,-0.05548095703125
1761299851281160200,4.94716015625,-0.8399505615234375,-0.4402618408203125,0.0157470703125
1761299851301282000,4.967281982421875,-0.8368682861328125,-0.483184814453125,0.0269622802734375
1761299851321404200,4.987404052734375,-0.8526611328125,-0.50384521484375,0.0141448974609375
1761299851341526300,5.0075263671875,-0.807891845703125,-0.51953125,-0.0169525146484375
1761299851361648000,5.027648193359375,-0.6822357177734375,-0.62451171875,-0.013702392578125
1761299851381770200,5.047770263671875,-0.6681976318359375,-0.6885528564453125,0.059051513671875
1761299851401891300,5.067891357421875,-0.9210662841796875,-0.6517486572265625,0.132568359375
1761299851422013200,5.08801318359375,-1.124847412109375,-0.6620025634765625,0.116546630859375
1761299851442135000,5.108135009765625,-1.120513916015625,-0.7017669677734375,-0.00091552734375
1761299851462257200,5.128257080078125,-0.983184814453125,-0.7520599365234375,-0.048492431640625
1761299851482379300,5.148379150390625,-0.9052276611328125,-0.74481201171875,0.0669708251953125
1761299851502501400,5.16850146484375,-0.9766998291015625,-0.7274932861328125,0.0802764892578125
1761299851522623200,5.188623291015625,-1.11614990234375,-0.685302734375,0.040435791015625
1761299851542744000,5.208744140625,-1.3005523681640625,-0.573822021484375,0.018585205078125
1761299851562866200,5.2288662109375,-1.323089599609375,-0.4947967529296875,-0.02142333984375
1761299851582988300,5.24898828125,-1.08697509765625,-0.5221405029296875,-0.046875
1761299851603110400,5.2691103515625,-0.929901123046875,-0.533447265625,0.0575103759765625
1761299851623232000,5.28923193359375,-0.919158935546875,-0.500579833984375,0.16339111328125
1761299851643354000,5.30935400390625,-0.976470947265625,-0.4548797607421875,0.09344482421875
1761299851663476200,5.329476318359375,-1.0424957275390625,-0.444122314453125,-0.0109710693359375
1761299851683598300,5.349598388671875,-1.0537261962890625,-0.429534912109375,-0.1236114501953125
1761299851703719200,5.36971923828125,-1.0003204345703125,-0.4343109130859375,-0.2017974853515625
1761299851723841300,5.38984130859375,-0.9340362548828125,-0.41259765625,-0.1951904296875
1761299851743963600,5.409963623046875,-0.8334503173828125,-0.3636474609375,-0.1524505615234375
1761299851764085500,5.43008544921875,-0.6589202880859375,-0.323883056640625,-0.133514404296875
1761299851784207600,5.45020751953125,-0.566375732421875,-0.355560302734375,-0.1366119384765625
1761299851804329700,5.470329833984375,-0.5969696044921875,-0.3660430908203125,-0.130218505859375
1761299851824451600,5.49045166015625,-0.65802001953125,-0.32403564453125,-0.0833587646484375
1761299851844572700,5.51057275390625,-0.6473541259765625,-0.3043060302734375,-0.025238037109375
1761299851864694500,5.530694580078125,-0.5956878662109375,-0.3355712890625,-0.06781005859375
1761299851884816600,5.550816650390625,-0.6337127685546875,-0.3644561767578125,-0.142120361328125
1761299851904938800,5.570938720703125,-0.756317138671875,-0.3775787353515625,-0.1648406982421875
1761299851925060600,5.591060546875,-0.877532958984375,-0.357086181640625,-0.165252685546875
1761299851945182500,5.611182373046875,-0.9530029296875,-0.29229736328125,-0.1682281494140625
1761299851965304600,5.6313046875,-0.96868896484375,-0.3004302978515625,-0.198944091796875
1761299851985425700,5.65142578125,-0.876922607421875,-0.3423309326171875,-0.19696044921875
1761299852005547500,5.671547607421875,-0.742279052734375,-0.403717041015625,-0.2126312255859375
1761299852025669600,5.691669677734375,-0.70037841796875,-0.4601287841796875,-0.245452880859375
1761299852045791700,5.711791748046875,-0.8577117919921875,-0.4735870361328125,-0.3179779052734375
1761299852065913600,5.73191357421875,-1.092437744140625,-0.41290283203125,-0.3499298095703125
1761299852086035700,5.75203564453125,-1.2528839111328125,-0.3052215576171875,-0.2584075927734375
1761299852106157600,5.772157470703125,-1.246368408203125,-0.27288818359375,-0.176055908203125
1761299852126278700,5.792278564453125,-1.1673736572265625,-0.314788818359375,-0.1964569091796875
1761299852146400800,5.81240087890625,-1.0911407470703125,-0.341888427734375,-0.2520599365234375
1761299852166522600,5.832522705078125,-0.9975433349609375,-0.419769287109375,-0.293853759765625
1761299852186644500,5.85264453125,-0.90777587890625,-0.4696807861328125,-0.328369140625
1761299852206766600,5.8727666015625,-0.8885345458984375,-0.485382080078125,-0.3060302734375
1761299852226888700,5.892888671875,-0.9849853515625,-0.48284912109375,-0.3490753173828125
1761299852247010800,5.9130107421875,-1.0625152587890625,-0.503021240234375,-0.3778533935546875
1761299852267131600,5.933131591796875,-0.9297332763671875,-0.4761810302734375,-0.28326416015625
1761299852287253500,5.95325341796875,-0.719329833984375,-0.4483489990234375,-0.166229248046875
1761299852307375600,5.973375732421875,-0.5758209228515625,-0.4466705322265625,-0.0689849853515625
1761299852327497700,5.993497802734375,-0.5204925537109375,-0.4541778564453125,-0.05889892578125
1761299852347619600,6.01361962890625,-0.5534820556640625,-0.46307373046875,-0.0627288818359375
1761299852367741700,6.03374169921875,-0.585052490234375,-0.451446533203125,-0.001739501953125
1761299852387863600,6.053863525390625,-0.5628509521484375,-0.47857666015625,0.081146240234375
1761299852407985700,6.073985595703125,-0.5895843505859375,-0.50103759765625,0.1113128662109375
1761299852428106500,6.0941064453125,-0.7745513916015625,-0.52423095703125,0.046539306640625
1761299852448228600,6.114228515625,-0.95635986328125,-0.5226593017578125,0.0528411865234375
1761299852468350700,6.134350830078125,-1.0740814208984375,-0.4891815185546875,0.1356048583984375
1761299852488472600,6.15447265625,-1.0572357177734375,-0.495025634765625,0.2079620361328125
1761299852508594400,6.174594482421875,-1.052581787109375,-0.5537567138671875,0.1898040771484375
1761299852528716500,6.194716552734375,-1.0167999267578125,-0.639801025390625,0.0876922607421875
1761299852548838700,6.214838623046875,-0.973052978515625,-0.69549560546875,0.002197265625
1761299852568960800,6.234960693359375,-1.0075225830078125,-0.7018585205078125,0.043365478515625
1761299852589081600,6.25508154296875,-1.1861419677734375,-0.667572021484375,0.1204071044921875
1761299852609203500,6.275203369140625,-1.30535888671875,-0.6965789794921875,0.178680419921875
1761299852629325600,6.29532568359375,-1.2698211669921875,-0.6702880859375,0.134002685546875
1761299852649447700,6.31544775390625,-1.2799224853515625,-0.616851806640625,0.065673828125
1761299852669569500,6.335569580078125,-1.23681640625,-0.5561065673828125,0.1006317138671875
1761299852689691600,6.355691650390625,-1.104705810546875,-0.4885101318359375,0.2321624755859375
1761299852709813500,6.3758134765625,-1.0104217529296875,-0.41143798828125,0.309173583984375
1761299852729934000,6.39593408203125,-0.9606475830078125,-0.4111480712890625,0.238677978515625
1761299852750056000,6.416055908203125,-0.8777923583984375,-0.4383697509765625,0.1599578857421875
1761299852770178000,6.436177978515625,-0.64605712890625,-0.491546630859375,0.121673583984375
1761299852790300000,6.4562998046875,-0.6505889892578125,-0.4954071044921875,0.03729248046875
1761299852810422000,6.476422119140625,-0.9157257080078125,-0.4042510986328125,0.0051422119140625
1761299852830544000,6.4965439453125,-1.191741943359375,-0.26708984375,-0.05084228515625
1761299852850666000,6.516666015625,-1.137786865234375,-0.1742401123046875,-0.084716796875
1761299852870788000,6.5367880859375,-0.8299407958984375,-0.2194671630859375,-0.0560302734375
1761299852890909000,6.556908935546875,-0.587188720703125,-0.2235107421875,0.02581787109375
1761299852911031000,6.577031005859375,-0.521026611328125,-0.1993560791015625,0.0968475341796875
1761299852931153200,6.597153076171875,-0.5679168701171875,-0.1964111328125,0.12451171875
1761299852951274800,6.617274658203125,-0.609619140625,-0.2289886474609375,0.0433349609375
1761299852971396900,6.63739697265625,-0.653228759765625,-0.3183746337890625,-0.0170440673828125
1761299852991519000,6.65751904296875,-0.70654296875,-0.3856201171875,-0.0540771484375
1761299853011641000,6.67764111328125,-0.8043212890625,-0.3547210693359375,-0.1635894775390625
1761299853031762000,6.697761962890625,-0.9104461669921875,-0.3260955810546875,-0.2399749755859375
1761299853051884000,6.717884033203125,-0.9741363525390625,-0.2951812744140625,-0.2541351318359375
1761299853072006000,6.738005859375,-1.0935516357421875,-0.30621337890625,-0.3102569580078125
1761299853092128000,6.7581279296875,-1.13385009765625,-0.347808837890625,-0.2872467041015625
1761299853112250000,6.77825,-1.066741943359375,-0.446990966796875,-0.17364501953125
1761299853132372000,6.7983720703125,-0.9683990478515625,-0.493377685546875,-0.1416473388671875
1761299853152494000,6.818494140625,-1.0220947265625,-0.545196533203125,-0.222625732421875
1761299853172616000,6.838615966796875,-1.24786376953125,-0.504302978515625,-0.32763671875
1761299853192737000,6.858737060546875,-1.3525238037109375,-0.467498779296875,-0.3339385986328125
1761299853212859000,6.87885888671875,-1.1348876953125,-0.433258056640625,-0.266510009765625
1761299853232981000,6.89898095703125,-0.7995452880859375,-0.4064178466796875,-0.1798095703125
1761299853253103000,6.91910302734375,-0.5943450927734375,-0.4053192138671875,-0.118011474609375
1761299853273225000,6.939224853515625,-0.553131103515625,-0.45941162109375,-0.020477294921875
1761299853293346800,6.959346923828125,-0.5550384521484375,-0.5068359375,0.0000152587890625
1761299853313469000,6.979468994140625,-0.6406402587890625,-0.5241241455078125,-0.064727783203125
1761299853333591000,6.999591064453125,-0.8726959228515625,-0.476409912109375,-0.0707550048828125
1761299853353712000,7.019712158203125,-0.9110565185546875,-0.4880218505859375,-0.0247344970703125
1761299853373834000,7.039833984375,-0.7366943359375,-0.4948577880859375,-0.0021209716796875
1761299853393955800,7.059955810546875,-0.7113189697265625,-0.5102081298828125,0.0456085205078125
1761299853414078000,7.080077880859375,-0.810211181640625,-0.4974212646484375,0.1192169189453125
1761299853434200000,7.100199951171875,-0.8124847412109375,-0.520355224609375,0.1062164306640625
1761299853454322200,7.120322265625,-0.6742706298828125,-0.576690673828125,0.0827484130859375
1761299853474444000,7.140444091796875,-0.6217498779296875,-0.59332275390625,0.0889434814453125
1761299853494566000,7.16056591796875,-0.7144775390625,-0.6265106201171875,0.0781707763671875
1761299853514687000,7.18068701171875,-0.887237548828125,-0.5988616943359375,0.047760009765625
1761299853534808800,7.200808837890625,-0.9927825927734375,-0.5330657958984375,0.03875732421875
1761299853554931000,7.220930908203125,-0.855560302734375,-0.55352783203125,0.0890350341796875
1761299853575053000,7.241052978515625,-0.7945709228515625,-0.57550048828125,0.1923980712890625
