time,seconds_elapsed,z,y,x
1761299846407901200,0.073901123046875,0.6342368721961975,-0.006672029383480549,0.9549536108970642
1761299846428023300,0.094023193359375,0.9128695130348206,0.23446694016456604,0.4366089105606079
1761299846448145400,0.1141455078125,1.224908709526062,0.5704729557037354,0.2178705334663391
1761299846468266200,0.134266357421875,1.2663360834121704,0.33934858441352844,0.986791729927063
1761299846488388400,0.154388427734375,1.182962417602539,0.11898493021726608,2.046772003173828
1761299846508510500,0.174510498046875,1.1504111289978027,0.08030685782432556,2.223353624343872
1761299846528632300,0.19463232421875,1.1586705446243286,-0.033296629786491394,1.8108458518981934
1761299846548754200,0.214754150390625,1.2160108089447021,0.022023556753993034,1.227992296218872
1761299846568876300,0.234876220703125,1.1375129222869873,-0.04072467237710953,0.7398478984832764
1761299846588997400,0.254997314453125,0.8669792413711548,-0.38585522770881653,0.5919108390808105
1761299846609119500,0.275119384765625,0.5030868053436279,-0.48218244314193726,0.6844089031219482
1761299846629241300,0.295241455078125,0.26772341132164,-0.26413682103157043,0.7132083773612976
1761299846649363200,0.31536328125,0.163305401802063,-0.051871709525585175,0.299209862947464
1761299846669485300,0.3354853515625,0.013041732832789421,0.16245266795158386,-0.1994793713092804
1761299846689607400,0.355607421875,-0.1795271337032318,0.18665316700935364,-0.4804671108722687
1761299846709728300,0.375728271484375,-0.08569145202636719,0.062293484807014465,-0.36521610617637634
1761299846729850600,0.3958505859375,0.043195728212594986,0.03649654984474182,-0.18916353583335876
1761299846749972500,0.415972412109375,0.07963233441114426,0.3690062463283539,-0.12973684072494507
1761299846770094600,0.436094482421875,0.1907917857170105,0.6429101228713989,0.16505876183509827
1761299846790216700,0.456216796875,0.5123233795166016,0.6588891744613647,0.44703856110572815
1761299846810338600,0.476338623046875,0.9046551585197449,0.6665448546409607,0.5384937524795532
1761299846830459600,0.496459716796875,1.1115953922271729,0.7340972423553467,0.3051460087299347
1761299846850581800,0.516581787109375,1.0068832635879517,0.8179328441619873,-0.25982052087783813
1761299846870703600,0.53670361328125,0.5385168194770813,0.8725513815879822,-0.9860718250274658
1761299846890825500,0.556825439453125,0.14266273379325867,0.7088474631309509,-1.6734960079193115
1761299846910947600,0.576947509765625,0.0912957414984703,0.587527334690094,-1.967651128768921
1761299846931069700,0.597069580078125,0.33368608355522156,0.5864841938018799,-1.9044781923294067
1761299846951190800,0.617190673828125,0.715679407119751,0.5289568901062012,-1.607019305229187
1761299846971312600,0.637312744140625,0.9089292287826538,0.47290173172950745,-1.159865379333496
1761299846991434500,0.6574345703125,0.9741814732551575,0.36063212156295776,-0.536458432674408
1761299847011556600,0.677556640625,1.1214935779571533,0.25349166989326477,-0.19679445028305054
1761299847031678700,0.6976787109375,1.22128427028656,0.19411131739616394,-0.09475685656070709
1761299847051800800,0.71780078125,1.3149257898330688,0.09177734702825546,0.10841160267591476
1761299847071921700,0.737921630859375,1.2255951166152954,0.17823494970798492,0.32790884375572205
1761299847092043500,0.75804345703125,0.943439245223999,0.5113948583602905,0.3808596134185791
1761299847112165600,0.77816552734375,0.7786659598350525,0.9486209750175476,0.17564380168914795
1761299847132287500,0.79828759765625,0.7508668303489685,1.021040678024292,-0.03838672488927841
1761299847152409600,0.81840966796875,0.938171923160553,0.6532788872718811,-0.07559834420681
1761299847172531700,0.83853173828125,1.0826613903045654,0.478071004152298,-0.10025133192539215
1761299847192652800,0.85865283203125,0.9033796191215515,1.188966155052185,-0.11421319842338562
1761299847212774400,0.8787744140625,0.569040060043335,1.98884117603302,-0.29747408628463745
1761299847232896500,0.898896484375,0.49553802609443665,1.608824372291565,-0.6277128458023071
1761299847253018600,0.9190185546875,0.9002160429954529,0.3334650695323944,-0.7680512070655823
1761299847273140700,0.939140625,1.2918882369995117,-0.10265608131885529,-0.5760396122932434
1761299847293262800,0.959262939453125,1.3927562236785889,0.7658879160881042,-0.04758201912045479
1761299847313384400,0.979384521484375,1.4583162069320679,1.6658233404159546,0.49571964144706726
1761299847333505500,0.999505615234375,1.562785267829895,1.5995903015136719,0.815607488155365
1761299847353627600,1.019627685546875,1.5096615552902222,0.9041620492935181,0.8956723213195801
1761299847373749500,1.03974951171875,1.2468105554580688,0.4875338077545166,0.677982747554779
1761299847393871600,1.05987158203125,0.984922468662262,0.598783016204834,0.23591473698616028
1761299847413993500,1.079993408203125,0.8812963962554932,0.6919963359832764,-0.14650237560272217
1761299847434115600,1.100115478515625,0.9423753619194031,0.5107631087303162,-0.2697027325630188
1761299847454236400,1.120236328125,0.9816433191299438,0.2603303790092468,-0.08931928128004074
1761299847474358500,1.140358642578125,0.8776735663414001,0.04745279252529144,0.172755628824234
1761299847494480600,1.160480712890625,0.8960782885551453,-0.03015577234327793,0.32832327485084534
1761299847514602800,1.180602783203125,1.361764669418335,0.07908092439174652,0.5523476600646973
1761299847534724600,1.200724609375,2.0418801307678223,-0.004938780330121517,1.0435065031051636
1761299847554846500,1.220846435546875,2.365739345550537,-0.2145562767982483,1.6237157583236694
1761299847574967600,1.240967529296875,2.3112552165985107,-0.4376182556152344,1.882382869720459
1761299847595089700,1.261089599609375,1.898432731628418,-0.5606905817985535,1.603485107421875
1761299847615211800,1.281211669921875,1.3702189922332764,-0.792630672454834,0.6182731986045837
1761299847635333600,1.301333740234375,0.8322668671607971,-1.129571557044983,-0.5062983632087708
1761299847655455500,1.32145556640625,0.1587846428155899,-0.9494450688362122,-0.7437476515769958
1761299847675577600,1.34157763671875,-0.28336596488952637,-0.25978487730026245,-0.007912355475127697
1761299847695698400,1.361698486328125,-0.3920151889324188,0.6467496156692505,0.4074498116970062
1761299847715820500,1.381820556640625,-0.44183647632598877,1.202690601348877,0.16719892621040344
1761299847735942400,1.4019423828125,-0.5843837857246399,1.2186784744262695,-0.34007447957992554
1761299847756064500,1.422064453125,-0.7810774445533752,0.836577296257019,-0.7767819762229919
1761299847776186000,1.44218603515625,-1.0840426683425903,0.5001328587532043,-0.9685620665550232
1761299847796308200,1.46230810546875,-1.1267814636230469,0.7022828459739685,-0.9967183470726013
1761299847816430300,1.482430419921875,-0.7785233855247498,1.3415354490280151,-0.8467745780944824
1761299847836551400,1.502551513671875,-0.24148359894752502,1.8723276853561401,-0.43639078736305237
1761299847856673300,1.52267333984375,0.1792406141757965,1.9379734992980957,-0.06080774962902069
1761299847876795400,1.54279541015625,0.5989986062049866,1.4202115535736084,0.11684867739677429
1761299847896917200,1.562917236328125,1.0907937288284302,0.5068603754043579,0.0476645827293396
1761299847917039400,1.583039306640625,1.3247100114822388,-0.3791690170764923,-0.25891411304473877
1761299847937160200,1.60316015625,1.219541311264038,-0.837011456489563,-0.9630208611488342
1761299847957282300,1.6232822265625,0.8400357365608215,-0.6061145067214966,-1.6581640243530273
1761299847977404400,1.643404296875,0.5564070343971252,-0.31741777062416077,-1.6423407793045044
1761299847997526500,1.663526611328125,0.7482513785362244,-0.4461837708950043,-0.9420506954193115
1761299848017648000,1.683648193359375,1.1770833730697632,-0.19785182178020477,-0.2079767882823944
1761299848037770200,1.703770263671875,1.456499457359314,0.2936859726905823,0.5012044906616211
1761299848057892400,1.723892333984375,1.5957587957382202,0.33460676670074463,1.2339006662368774
1761299848078013400,1.744013427734375,1.625319242477417,0.04165680706501007,1.600084662437439
1761299848098135300,1.76413525390625,1.5802479982376099,-0.27943313121795654,1.5620850324630737
1761299848118257400,1.78425732421875,1.470664620399475,-0.27332407236099243,1.105871558189392
1761299848138379300,1.804379150390625,1.1556154489517212,0.24776427447795868,0.4991420805454254
1761299848158501400,1.82450146484375,0.7208552360534668,0.8581851124763489,0.23551341891288757
1761299848178623500,1.84462353515625,0.5800720453262329,0.9616156220436096,0.2857224941253662
1761299848198744300,1.864744384765625,0.7428789734840393,0.7662003040313721,0.46321937441825867
1761299848218866400,1.884866455078125,1.019118070602417,0.7470817565917969,0.5316704511642456
1761299848238988300,1.90498828125,1.268492341041565,0.8218114972114563,0.40929585695266724
1761299848259110100,1.925110107421875,1.3921476602554321,0.8088982105255127,0.4473097026348114
1761299848279232300,1.945232177734375,1.4727137088775635,0.7170673608779907,0.67326819896698
1761299848299354400,1.965354248046875,1.5362685918807983,0.7153914570808411,0.8947069644927979
1761299848319476500,1.9854765625,1.5518120527267456,0.8967798948287964,1.031998634338379
1761299848339597300,2.005597412109375,1.6229710578918457,1.3568896055221558,0.8947792053222656
1761299848359719200,2.02571923828125,1.7900820970535278,1.7896106243133545,0.63752681016922
1761299848379841300,2.04584130859375,2.0624969005584717,1.9101264476776123,0.4263004958629608
1761299848399963400,2.06596337890625,2.241082191467285,1.0835845470428467,0.29036635160446167
1761299848420085500,2.08608544921875,2.115089178085327,0.018658611923456192,0.0779275894165039
1761299848440207400,2.106207275390625,1.865645408630371,-0.045094821602106094,-0.15710513293743134
1761299848460328400,2.126328369140625,1.535996675491333,0.7896360754966736,-0.207086443901062
1761299848480450300,2.1464501953125,1.3024851083755493,1.4868820905685425,0.01130822952836752
1761299848500572200,2.166572265625,1.3351151943206787,1.5062237977981567,0.294115275144577
1761299848520694300,2.1866943359375,1.6178394556045532,1.1534241437911987,0.5381757020950317
1761299848540816400,2.20681640625,1.949635624885559,0.918264627456665,0.848553478717804
1761299848560938200,2.226938232421875,2.03019380569458,1.0715657472610474,1.1082204580307007
1761299848581059300,2.247059326171875,1.8885589838027954,1.315734624862671,1.1046967506408691
1761299848601181200,2.26718115234375,1.9016807079315186,1.365093469619751,1.0195103883743286
1761299848621303300,2.28730322265625,1.9132579565048218,1.146320104598999,0.9875265955924988
1761299848641425400,2.30742529296875,1.8788524866104126,0.8307787775993347,0.9716386198997498
1761299848661547500,2.327547607421875,1.9045733213424683,0.36953237652778625,0.8484290838241577
1761299848681669000,2.347669189453125,1.855517029762268,0.11720208823680878,0.5550270080566406
1761299848701791200,2.367791259765625,1.609244465827942,0.2912338674068451,0.3246275782585144
1761299848721912300,2.387912353515625,1.2357977628707886,0.3830313980579376,0.16125823557376862
1761299848742034700,2.40803466796875,0.7741739749908447,0.16516223549842834,0.12421006709337234
1761299848762156800,2.42815673828125,0.4109380543231964,0.03089740127325058,0.0981627106666565
1761299848782278700,2.448278564453125,0.20902769267559052,0.08118369430303574,-0.1334720253944397
1761299848802400500,2.468400390625,0.14610809087753296,0.23118697106838226,-0.4786204397678375
1761299848822522600,2.488522705078125,-0.11822639405727386,0.2910393476486206,-0.9932249784469604
1761299848842643700,2.508643798828125,-0.44160035252571106,0.2875002324581146,-1.5481904745101929
1761299848862765800,2.528765869140625,-0.6228453516960144,0.21778422594070435,-1.7831716537475586
1761299848882887700,2.5488876953125,-0.42046621441841125,0.06957630813121796,-1.5555901527404785
1761299848903009500,2.569009521484375,0.12409918755292892,0.15237365663051605,-0.9055474996566772
1761299848923131600,2.589131591796875,0.4824928343296051,0.5087998509407043,-0.33415383100509644
1761299848943253800,2.609253662109375,0.6086411476135254,0.6389502882957458,-0.10034763067960739
1761299848963375900,2.6293759765625,0.5590817928314209,0.4616281986236572,-0.055017221719026566
1761299848983496700,2.64949658203125,0.46551769971847534,0.11433202028274536,-0.11720160394906998
1761299849003618800,2.669618896484375,0.3159317672252655,-0.13893355429172516,-0.3197168707847595
1761299849023740700,2.68974072265625,0.09469791501760483,-0.10254912078380585,-0.6493489742279053
1761299849043862500,2.709862548828125,-0.24876727163791656,0.11930296570062637,-0.8671839237213135
1761299849063984600,2.729984619140625,-0.5047310590744019,0.12645812332630157,-0.8136038780212402
1761299849084106800,2.750106689453125,-0.4968169033527374,0.042478058487176895,-0.509699285030365
1761299849104227800,2.770227783203125,-0.2708691954612732,-0.04711107909679413,-0.04577090963721275
1761299849124349700,2.790349609375,0.11595417559146881,-0.022431444376707077,0.4060915410518646
1761299849144471600,2.810471435546875,0.37316104769706726,0.10379151254892349,0.7379841208457947
1761299849164593700,2.83059375,0.3273906409740448,0.3740542531013489,0.892099916934967
1761299849184715800,2.8507158203125,0.12089387327432632,0.35124140977859497,0.9067718982696533
1761299849204838000,2.870837890625,0.04586297646164894,-0.01846972666680813,0.7424927353858948
1761299849224959500,2.89095947265625,0.12144464254379272,-0.11293180286884308,0.5320684313774109
1761299849245080800,2.911080810546875,0.13014140725135803,0.19283844530582428,0.49721771478652954
1761299849265202700,2.93120263671875,0.05378679558634758,0.4823034405708313,0.5914110541343689
1761299849285324800,2.95132470703125,-0.05565829575061798,0.2252015918493271,0.5021680593490601
1761299849305446700,2.97144677734375,-0.028852857649326324,-0.008590597659349442,0.15208552777767181
1761299849325568800,2.99156884765625,0.05027090013027191,0.12244408577680588,-0.2176474779844284
1761299849345690600,3.011690673828125,0.004657343961298466,0.4900820255279541,-0.5337636470794678
1761299849365811700,3.031811767578125,0.030435018241405487,0.8128112554550171,-0.40451905131340027
1761299849385933600,3.05193359375,0.3472418785095215,0.7796204090118408,-0.01779750920832157
1761299849406055700,3.0720556640625,0.7419805526733398,0.7312537431716919,0.3251296877861023
1761299849426177800,3.092177734375,1.0494354963302612,0.7913729548454285,0.4575200080871582
1761299849446300000,3.1122998046875,1.2081495523452759,1.0441863536834717,0.4304908514022827
1761299849466421500,3.13242138671875,1.1956874132156372,1.3033342361450195,0.4804178476333618
1761299849486543600,3.152543701171875,1.2151850461959839,1.2363088130950928,0.46804702281951904
1761299849506664700,3.172664794921875,1.284118413925171,0.9546065926551819,0.34936589002609253
1761299849526786800,3.192786865234375,1.4536657333374023,0.6856223344802856,0.12419036775827408
1761299849546908700,3.21290869140625,1.6520808935165405,0.5726134181022644,-0.1694118231534958
1761299849567030800,3.23303076171875,1.7803093194961548,0.3409503698348999,-0.32030731439590454
1761299849587152600,3.253152587890625,1.7197976112365723,0.1057538166642189,-0.07349167764186859
1761299849607274800,3.273274658203125,1.6437698602676392,0.0368170440196991,0.27531543374061584
1761299849627396600,3.293396728515625,1.6251341104507446,0.10889241099357605,0.7196560502052307
1761299849647517700,3.313517578125,1.6299614906311035,0.4025821387767792,1.0508742332458496
1761299849667639800,3.333639892578125,1.6221345663070679,0.8307133913040161,1.1125941276550293
1761299849687761700,3.35376171875,1.5647571086883545,1.1374486684799194,1.0888543128967285
1761299849707883500,3.373883544921875,1.434807538986206,1.127402424812317,1.1745892763137817
1761299849728005600,3.394005615234375,1.1643846035003662,0.7589235305786133,1.2418276071548462
1761299849748127700,3.414127685546875,0.8591829538345337,0.4232098162174225,0.9690797328948975
1761299849768248600,3.43424853515625,0.6267651915550232,0.4940655827522278,0.5018144845962524
1761299849788370700,3.45437060546875,0.4883159399032593,0.5410493016242981,0.14890113472938538
1761299849808492500,3.474492431640625,0.42060160636901855,0.47682812809944153,0.10353871434926987
1761299849828614700,3.49461474609375,0.2605379521846771,0.12929755449295044,0.09251119941473007
1761299849848736500,3.514736572265625,0.06019946560263634,-0.3606044352054596,-0.04836858808994293
1761299849868858600,3.534858642578125,0.07598335295915604,-0.4231708347797394,-0.4580320119857788
1761299849888980700,3.554980712890625,0.06773436814546585,-0.3645651340484619,-0.9819860458374023
1761299849909101800,3.575101806640625,-0.09239708632230759,-0.6157059669494629,-1.1890203952789307
1761299849929223400,3.595223388671875,-0.24839740991592407,-0.753481388092041,-0.9514902830123901
1761299849949345500,3.615345458984375,-0.5006131529808044,-0.40444090962409973,-0.7944836616516113
1761299849969467600,3.635467529296875,-0.8368266820907593,0.15301330387592316,-0.9071413278579712
1761299849989589800,3.65558984375,-0.7397469878196716,0.6057767271995544,-0.8651162981987
1761299850009711600,3.675711669921875,-0.3636961281299591,0.6486806869506836,-0.2745465636253357
1761299850029833500,3.69583349609375,-0.12450485676527023,0.23105943202972412,0.44847920536994934
1761299850049954600,3.71595458984375,-0.2019236981868744,-0.24248963594436646,0.5532981157302856
1761299850070076700,3.73607666015625,-0.4950932264328003,-0.6631976366043091,0.17067809402942657
1761299850090198500,3.756198486328125,-0.9459618330001831,-0.6091265082359314,-0.41965991258621216
1761299850110320600,3.776320556640625,-1.5051610469818115,-0.1841467022895813,-1.0059629678726196
1761299850130442500,3.7964423828125,-1.90594482421875,0.29323792457580566,-1.1875190734863281
1761299850150564600,3.816564697265625,-1.8914564847946167,0.4322555959224701,-0.7614232301712036
1761299850170685400,3.836685546875,-1.5386217832565308,0.43458783626556396,-0.04367149621248245
1761299850190807600,3.8568076171875,-1.1525579690933228,0.2579001486301422,0.5127546191215515
1761299850210929700,3.8769296875,-0.9324139356613159,0.07408389449119568,0.6889499425888062
1761299850231051800,3.8970517578125,-0.861279308795929,-0.012657484039664268,0.5812833905220032
1761299850251173400,3.91717333984375,-0.824636697769165,-0.14760953187942505,0.44197821617126465
1761299850271295500,3.93729541015625,-0.7161126732826233,-0.4563073217868805,0.33780965209007263
1761299850291417600,3.95741748046875,-0.570457935333252,-0.603324830532074,0.10361641645431519
1761299850311538700,3.97753857421875,-0.6211729645729065,-0.3890909254550934,-0.07869701087474823
1761299850331659500,3.997659423828125,-0.8154756426811218,0.0159197635948658,-0.06880945712327957
1761299850351781600,4.01778173828125,-0.785014271736145,0.24836015701293945,0.03871692717075348
1761299850371903700,4.03790380859375,-0.5458879470825195,0.17386069893836975,0.0865054652094841
1761299850392025600,4.058025634765625,-0.3833381235599518,-0.0923301950097084,-0.13077159225940704
1761299850412146700,4.078146728515625,-0.3232801854610443,-0.3482484221458435,-0.5734850764274597
1761299850432268500,4.0982685546875,-0.32218146324157715,-0.2590520679950714,-0.8339763879776001
1761299850452390700,4.118390625,-0.2840745747089386,0.2528248727321625,-0.630548357963562
1761299850472512800,4.1385126953125,-0.06902188062667847,0.6723345518112183,-0.0069818077608942986
1761299850492634600,4.158634521484375,0.4046469032764435,0.9005014896392822,0.7492366433143616
1761299850512756500,4.178756591796875,1.0229904651641846,0.766750693321228,1.2219356298446655
1761299850532878600,4.198878662109375,1.476953387260437,0.3634938597679138,1.293121099472046
1761299850552999400,4.21899951171875,1.6271616220474243,0.05502590537071228,1.0207239389419556
1761299850573121500,4.23912158203125,1.5862014293670654,-0.0902271419763565,0.6683416962623596
1761299850593243600,4.25924365234375,1.4080373048782349,-0.1457250863313675,0.49558454751968384
1761299850613365800,4.27936572265625,1.140575885772705,-0.10625122487545013,0.3827097415924072
1761299850633487600,4.299487548828125,1.011722445487976,-0.4049483835697174,0.13214558362960815
1761299850653609500,4.319609375,0.8508339524269104,-0.8583483695983887,-0.20855100452899933
1761299850673731600,4.339731689453125,0.5270596742630005,-0.6928621530532837,-0.03702864423394203
1761299850693852700,4.359852783203125,0.26271215081214905,-0.3148348927497864,0.6460743546485901
1761299850713974800,4.379974853515625,0.4581001102924347,-0.16473570466041565,0.8257815837860107
1761299850734097200,4.40009716796875,1.0605530738830566,-0.3407684862613678,0.6637163758277893
1761299850754219300,4.42021923828125,1.4359973669052124,-0.24885204434394836,1.0793399810791016
1761299850774340000,4.440340087890625,1.1514915227890015,-0.34191837906837463,1.965460181236267
1761299850794462200,4.460462158203125,0.9002450108528137,-0.19457465410232544,1.9573922157287598
1761299850814584300,4.480584228515625,0.9651533961296082,-0.08598006516695023,1.3182649612426758
1761299850834706400,4.50070654296875,1.0062092542648315,-0.1077449694275856,0.7687063813209534
1761299850854828000,4.520828125,0.7907363772392273,-0.22753360867500305,0.40808403491973877
1761299850874950100,4.5409501953125,0.2943322956562042,-0.6231022477149963,-0.03934251889586449
1761299850895072300,4.561072265625,-0.29612988233566284,-0.9638330340385437,-0.47224873304367065
1761299850915193000,4.581193115234375,-0.5413156151771545,-0.6238727569580078,-0.563762903213501
1761299850935315200,4.601315185546875,-0.5644770860671997,0.28466692566871643,-0.6285151839256287
1761299850955437000,4.62143701171875,-0.5018627047538757,0.79022616147995,-0.8829306364059448
1761299850975559200,4.64155908203125,-0.6428483128547668,0.8274420499801636,-1.0792453289031982
1761299850995681300,4.661681396484375,-0.8788439035415649,0.7726824879646301,-1.2958351373672485
1761299851015803100,4.68180322265625,-0.886443555355072,0.673234224319458,-1.2119474411010742
1761299851035925200,4.70192529296875,-0.5744592547416687,0.49076810479164124,-0.6221229434013367
1761299851056046300,4.72204638671875,-0.07483343034982681,0.09454610198736191,0.05709610506892204
1761299851076168200,4.742168212890625,0.0835733488202095,-0.16892726719379425,0.25380030274391174
1761299851096290000,4.7622900390625,-0.16382381319999695,-0.20557901263237,0.12033715844154358
1761299851116412200,4.782412109375,-0.6038007736206055,-0.3106292188167572,-0.3970904052257538
1761299851136534300,4.8025341796875,-0.8981168270111084,0.06892253458499908,-0.992537796497345
1761299851156656400,4.822656494140625,-0.8980616927146912,0.5133236050605774,-1.2169595956802368
1761299851176778000,4.842778076171875,-0.7596003413200378,0.7137957215309143,-1.048726201057434
1761299851196899000,4.862899169921875,-0.5662981867790222,0.253021240234375,-0.754217803478241
1761299851217021200,4.883021240234375,-0.3773515522480011,-0.43648919463157654,-0.5997663736343384
1761299851237143300,4.903143310546875,-0.4211426079273224,-0.3818943202495575,-0.7137664556503296
1761299851257265200,4.92326513671875,-0.4676869511604309,-0.05054955184459686,-0.6061232089996338
1761299851277387300,4.94338720703125,-0.33871057629585266,0.07257994264364243,-0.22423791885375977
1761299851297509000,4.963509033203125,-0.18354707956314087,-0.12303776293992996,0.1801854521036148
1761299851317631200,4.98363134765625,-0.06572841107845306,-0.2997894287109375,0.5095810890197754
1761299851337752000,5.003751953125,0.006972204893827438,-0.14936883747577667,0.6126155853271484
1761299851357874200,5.023874267578125,-0.06917844712734222,-0.008503512479364872,0.4280393421649933
1761299851377996300,5.043996337890625,-0.12469922751188278,-0.04157304763793945,-0.04244827479124069
1761299851398118100,5.0641181640625,0.02900031954050064,-0.24569688737392426,-0.13740327954292297
1761299851418240300,5.084240234375,0.22229759395122528,-0.4747607409954071,0.14025969803333282
1761299851438362000,5.104362060546875,0.23085758090019226,-0.22744986414909363,0.2324146330356598
1761299851458484200,5.124484130859375,0.0738176479935646,0.2995416224002838,-0.04710517078638077
1761299851478605300,5.144605224609375,0.0938221663236618,0.44271183013916016,-0.5388098955154419
1761299851498727200,5.16472705078125,0.1708345115184784,0.1884218454360962,-0.8504647612571716
1761299851518849000,5.18484912109375,0.15255017578601837,-0.2829940915107727,-0.9323508143424988
1761299851538971100,5.20497119140625,0.2265792191028595,-0.3190053403377533,-0.6649094820022583
1761299851559093200,5.22509326171875,0.30465608835220337,0.057772375643253326,-0.05512896925210953
1761299851579215400,5.24521533203125,0.2563668191432953,0.33670714497566223,0.22852355241775513
1761299851599337200,5.265337158203125,0.27100396156311035,0.21129366755485535,0.17338700592517853
1761299851619458300,5.285458251953125,0.5522398352622986,0.01510082371532917,0.05933311954140663
1761299851639580200,5.305580078125,0.8781287670135498,0.16122446954250336,-0.1257118284702301
1761299851659702300,5.325702392578125,1.0559128522872925,0.2762414813041687,-0.17326271533966064
1761299851679824100,5.34582421875,1.0731136798858643,0.2689535617828369,-0.04588261991739273
1761299851699946200,5.3659462890625,0.9419724345207214,0.17659050226211548,0.16736546158790588
1761299851720068000,5.386068115234375,0.7970569133758545,0.26475533843040466,0.40877702832221985
1761299851740190500,5.4061904296875,0.789722204208374,0.5946382880210876,0.5878807902336121
1761299851760311600,5.4263115234375,0.8398118019104004,0.950862467288971,0.5123316645622253
1761299851780433700,5.44643359375,0.8464169502258301,1.1269019842147827,0.2777896821498871
1761299851800555800,5.4665556640625,0.7478491067886353,0.9368603229522705,0.32252246141433716
1761299851820677600,5.486677734375,0.760409951210022,0.3549670875072479,0.666215181350708
1761299851840799500,5.506799560546875,0.9062522053718567,-0.22880393266677856,0.9886606335639954
1761299851860921600,5.526921630859375,0.9957711100578308,-0.3094334900379181,0.862693190574646
1761299851881043700,5.547043701171875,0.9343709945678711,-0.10182865709066391,0.49918293952941895
1761299851901164500,5.56716455078125,0.815762460231781,-0.029738256707787514,0.2681272029876709
1761299851921286700,5.58728662109375,0.697837769985199,-0.1688884198665619,0.3007267415523529
1761299851941408500,5.607408447265625,0.6431707143783569,-0.18490900099277496,0.391643762588501
1761299851961530600,5.627530517578125,0.578360915184021,-0.002405459526926279,0.4351929724216461
1761299851981652500,5.647652587890625,0.5203141570091248,0.15925252437591553,0.29124027490615845
1761299852001774600,5.667774658203125,0.383577823638916,0.29804757237434387,-0.1933387666940689
1761299852021896700,5.687896728515625,0.16639715433120728,0.16505952179431915,-0.9285880327224731
1761299852042018600,5.7080185546875,-0.16504496335983276,-0.13170771300792694,-1.5304771661758423
1761299852062139400,5.728139404296875,-0.5409849882125854,-0.2105698436498642,-1.6826744079589844
1761299852082261500,5.748261474609375,-0.5621809363365173,-0.025781717151403427,-1.4064979553222656
1761299852102383600,5.768383544921875,-0.24785935878753662,0.21242578327655792,-0.9384657144546509
1761299852122505700,5.788505615234375,0.037132155150175095,0.26421231031417847,-0.5619238615036011
1761299852142627800,5.8086279296875,0.20880576968193054,0.2450011819601059,-0.3010276257991791
1761299852162749400,5.82874951171875,0.1874387115240097,0.08169004321098328,-0.2468893676996231
1761299852182871600,5.84887158203125,-0.02179478481411934,0.05074198171496391,-0.4511197507381439
1761299852202992600,5.86899267578125,-0.17859138548374176,0.07387369126081467,-0.6953483819961548
1761299852223114800,5.88911474609375,-0.37580350041389465,0.15352675318717957,-0.6844351887702942
1761299852243236600,5.909236572265625,-0.687728226184845,0.305084764957428,-0.26133328676223755
1761299852263358700,5.929358642578125,-0.9146783351898193,0.4410211443901062,0.1494038701057434
1761299852283480600,5.94948046875,-0.9297089576721191,0.5561553835868835,0.32229870557785034
1761299852303602700,5.969602783203125,-0.7995104789733887,0.48292291164398193,0.3585498332977295
1761299852323724500,5.989724609375,-0.6872421503067017,0.33316802978515625,0.3468644917011261
1761299852343845600,6.009845703125,-0.6702238917350769,0.18373636901378632,0.4146869480609894
1761299852363967700,6.0299677734375,-0.6308788061141968,0.05090683698654175,0.5359625220298767
1761299852384089600,6.050089599609375,-0.5270353555679321,-0.11718270182609558,0.4902987778186798
1761299852404211500,6.07021142578125,-0.36468738317489624,-0.30508899688720703,0.19741028547286987
1761299852424333600,6.09033349609375,-0.3007027804851532,-0.2684914767742157,-0.06769988685846329
1761299852444455700,6.11045556640625,-0.2959842085838318,-0.06257826834917068,-0.12420444190502167
1761299852464577800,6.130577880859375,-0.13559849560260773,0.08214887231588364,0.11085693538188934
1761299852484699600,6.15069970703125,0.15692149102687836,-0.07474339008331299,0.3958362936973572
1761299852504820500,6.170820556640625,0.39882853627204895,-0.3008216321468353,0.5755839943885803
1761299852524942600,6.190942626953125,0.4222310483455658,-0.18367348611354828,0.42750707268714905
1761299852545064700,6.211064697265625,0.22851042449474335,0.42965152859687805,-0.11557145416736603
1761299852565186600,6.2311865234375,0.06143703684210777,0.805790364742279,-0.6679620742797852
1761299852585308700,6.25130859375,0.09826449304819107,0.4984421730041504,-0.671582043170929
1761299852605430500,6.271430419921875,0.2522120773792267,0.014683808200061321,-0.29574865102767944
1761299852625552600,6.291552734375,0.40301114320755005,0.028775926679372787,-0.27370041608810425
1761299852645673500,6.311673583984375,0.4539949595928192,0.4449295103549957,-0.3428710401058197
1761299852665795600,6.331795654296875,0.5064507126808167,0.6407465934753418,-0.07154962420463562
1761299852685917700,6.351917724609375,0.7275415062904358,0.3984261155128479,0.311747282743454
1761299852706039600,6.37203955078125,1.135623812675476,0.04912848770618439,0.7010353207588196
1761299852726161700,6.39216162109375,1.383805751800537,-0.019264493137598038,0.9603562951087952
1761299852746283000,6.412282958984375,1.4365179538726807,0.16538524627685547,1.0406014919281006
1761299852766404900,6.43240478515625,1.382344365119934,0.16737130284309387,0.490431547164917
1761299852786527000,6.45252685546875,1.2742811441421509,-0.14642289280891418,-0.2591966986656189
1761299852806648000,6.47264794921875,1.125091314315796,-0.48441895842552185,-0.3524610698223114
1761299852826770200,6.492770263671875,1.0547397136688232,-0.3424139618873596,0.19915325939655304
1761299852846891800,6.512891845703125,1.0305356979370117,0.4030170142650604,0.890972912311554
1761299852867014000,6.533013916015625,0.9699659943580627,0.8605678677558899,1.162442922592163
1761299852887136000,6.553135986328125,0.9430942535400391,0.8633072972297668,1.0675938129425049
1761299852907258000,6.573258056640625,1.0470523834228516,0.7118610739707947,0.8787728548049927
1761299852927380000,6.5933798828125,1.2226275205612183,0.28239625692367554,0.8521628379821777
1761299852947501800,6.613501708984375,1.3324289321899414,-0.270386666059494,0.8916373252868652
1761299852967623000,6.633622802734375,1.2115157842636108,-0.6326650381088257,0.7675349116325378
1761299852987745000,6.6537451171875,1.0833154916763306,-0.4879346191883087,0.2837129831314087
1761299853007867100,6.6738671875,0.9371569752693176,-0.13694873452186584,-0.2710018754005432
1761299853027989000,6.693989013671875,0.7722389698028564,0.05504123494029045,-0.4728298485279083
1761299853048110800,6.71411083984375,0.5720762014389038,-0.10138017684221268,-0.5124581456184387
1761299853068233000,6.73423291015625,0.32794269919395447,-0.2517170011997223,-0.3007570207118988
1761299853088355000,6.75435498046875,0.1447807401418686,-0.13823683559894562,0.05938858538866043
1761299853108476000,6.774475830078125,0.06216144561767578,-0.24583011865615845,0.17444777488708496
1761299853128598000,6.794597900390625,0.14865213632583618,-0.1144494116306305,-0.22635838389396667
1761299853148720000,6.81472021484375,0.16907480359077454,0.2084861844778061,-0.9966654181480408
1761299853168842000,6.834842041015625,0.0682016909122467,0.7873049378395081,-1.2085888385772705
1761299853188963800,6.8549638671875,-0.021908031776547432,1.1141555309295654,-0.5348839163780212
1761299853209086000,6.8750859375,-0.016087546944618225,1.035527229309082,0.3179640471935272
1761299853229208000,6.8952080078125,0.08521123230457306,0.8595357537269592,0.6068233847618103
1761299853249330000,6.915329833984375,0.21754366159439087,0.8453736901283264,0.32745158672332764
1761299853269451000,6.935450927734375,0.3767208158969879,0.7981597185134888,-0.037088971585035324
1761299853289572900,6.95557275390625,0.47634536027908325,0.5514768362045288,-0.27504944801330566
1761299853309695000,6.975695068359375,0.4267645478248596,0.3376217484474182,-0.4717459976673126
1761299853329817000,6.995817138671875,0.28357023000717163,0.20194044709205627,-0.2476634532213211
1761299853349939000,7.01593896484375,0.207798033952713,0.323591411113739,0.20488394796848297
1761299853370060800,7.036060791015625,0.21987174451351166,0.6443150639533997,0.2179006189107895
1761299853390183000,7.056182861328125,0.22265513241291046,0.9210120439529419,0.0491652637720108
1761299853410305000,7.076304931640625,0.2894115447998047,0.6635389924049377,0.25816068053245544
1761299853430425900,7.09642578125,0.32142290472984314,0.21241381764411926,0.669417679309845
1761299853450548000,7.1165478515625,0.2988801896572113,0.025032131001353264,0.6451525688171387
1761299853470670000,7.136670166015625,0.34357669949531555,0.07395349442958832,0.34289824962615967
1761299853490792000,7.1567919921875,0.3277021646499634,0.10567686706781387,0.2228400707244873
1761299853510914000,7.1769140625,0.32724693417549133,0.5541489720344543,0.05334755405783653
1761299853531036000,7.197035888671875,0.3975107967853546,1.3617732524871826,0.23816123604774475
1761299853551158000,7.217157958984375,0.4857514798641205,1.4408622980117798,0.26338741183280945
1761299853571280100,7.237280029296875,0.6531335115432739,0.48232534527778625,0.2870001494884491
1761299853591401200,7.257401123046875,0.8969216346740723,-0.5582488775253296,0.11104793101549149
