time,seconds_elapsed,z,y,x
1761299135211736300,0.057736328125,-0.9329376220703125,-0.4102325439453125,-0.0487213134765625
1761299135231860200,0.077860107421875,-0.89971923828125,-0.4294586181640625,-0.05438232421875
1761299135251983000,0.097983154296875,-0.8793182373046875,-0.4157562255859375,-0.0386962890625
1761299135272106200,0.118106201171875,-0.870452880859375,-0.4024505615234375,-0.0216064453125
1761299135292229000,0.13822900390625,-0.8747406005859375,-0.402496337890625,-0.014312744140625
1761299135312352300,0.158352294921875,-0.8928985595703125,-0.4081573486328125,-0.0120391845703125
1761299135332476400,0.178476318359375,-0.8846588134765625,-0.4134979248046875,-0.0322265625
1761299135352599300,0.198599365234375,-0.8770751953125,-0.4245452880859375,-0.0454254150390625
1761299135372722400,0.218722412109375,-0.8927764892578125,-0.4183502197265625,-0.0309600830078125
1761299135392845300,0.23884521484375,-0.9212799072265625,-0.394287109375,-0.0234375
1761299135412968200,0.25896826171875,-0.9233856201171875,-0.3896636962890625,-0.022430419921875
1761299135433092400,0.27909228515625,-0.9025726318359375,-0.388458251953125,-0.0400543212890625
1761299135453215500,0.299215576171875,-0.9242095947265625,-0.3964691162109375,-0.0390777587890625
1761299135473338400,0.31933837890625,-1.0003662109375,-0.386474609375,-0.0449676513671875
1761299135493461200,0.339461181640625,-1.0180511474609375,-0.3630218505859375,-0.0443572998046875
1761299135513584400,0.35958447265625,-1.00836181640625,-0.3625030517578125,-0.048614501953125
1761299135533708300,0.379708251953125,-1.0000457763671875,-0.38055419921875,-0.0617218017578125
1761299135553831400,0.39983154296875,-0.9744415283203125,-0.3889923095703125,-0.057952880859375
1761299135573954300,0.419954345703125,-0.9280548095703125,-0.3761138916015625,-0.038665771484375
1761299135594077400,0.440077392578125,-0.88751220703125,-0.372711181640625,-0.0198516845703125
1761299135614200300,0.460200439453125,-0.86041259765625,-0.3825836181640625,-0.011627197265625
1761299135634324200,0.48032421875,-0.833526611328125,-0.3940277099609375,-0.023345947265625
1761299135654447400,0.500447265625,-0.847564697265625,-0.408660888671875,-0.020111083984375
1761299135674570200,0.5205703125,-0.881439208984375,-0.4017333984375,-0.0198516845703125
1761299135694693400,0.540693359375,-0.8963165283203125,-0.394622802734375,-0.02606201171875
1761299135714816300,0.560816162109375,-0.9020538330078125,-0.3932952880859375,-0.037750244140625
1761299135734940400,0.5809404296875,-0.9395904541015625,-0.3961334228515625,-0.0294036865234375
1761299135755063300,0.601063232421875,-0.97698974609375,-0.3779144287109375,-0.0463104248046875
1761299135775186200,0.621186279296875,-0.99786376953125,-0.37042236328125,-0.030120849609375
1761299135795309300,0.641309326171875,-0.9891204833984375,-0.3640289306640625,-0.03179931640625
1761299135815432200,0.66143212890625,-0.959930419921875,-0.369781494140625,-0.0349884033203125
1761299135835556400,0.681556396484375,-0.9213714599609375,-0.3787078857421875,-0.0266265869140625
1761299135855679200,0.70167919921875,-0.9022216796875,-0.384857177734375,-0.020599365234375
1761299135875802400,0.72180224609375,-0.891326904296875,-0.3853302001953125,-0.0142364501953125
1761299135895925200,0.74192529296875,-0.8987579345703125,-0.382598876953125,-0.0143890380859375
1761299135916048400,0.76204833984375,-0.9096832275390625,-0.3858642578125,-0.0166168212890625
1761299135936172300,0.78217236328125,-0.92047119140625,-0.389892578125,-0.018798828125
1761299135956295200,0.802295166015625,-0.9268798828125,-0.396240234375,-0.015106201171875
1761299135976418300,0.822418212890625,-0.936431884765625,-0.3957366943359375,-0.0173797607421875
1761299135996541200,0.842541259765625,-0.9295501708984375,-0.3958587646484375,-0.01483154296875
1761299136016665300,0.862665283203125,-0.9247283935546875,-0.3991546630859375,-0.0066680908203125
1761299136036788200,0.882788330078125,-0.930999755859375,-0.395172119140625,-0.0036468505859375
1761299136056911000,0.9029111328125,-0.9155731201171875,-0.3996429443359375,-0.00006103515625
1761299136077034200,0.9230341796875,-0.91021728515625,-0.4011383056640625,-0.0003204345703125
1761299136097157000,0.9431572265625,-0.9134979248046875,-0.4000244140625,0.001556396484375
1761299136117281300,0.96328125,-0.909027099609375,-0.392486572265625,-0.0011138916015625
1761299136137404200,0.983404052734375,-0.8917083740234375,-0.386199951171875,0.001129150390625
1761299136157527300,1.00352734375,-0.9041900634765625,-0.3719482421875,0.0120391845703125
1761299136177650200,1.023650146484375,-0.944610595703125,-0.3766937255859375,-0.0063934326171875
1761299136197773300,1.043773193359375,-0.9642333984375,-0.38726806640625,-0.0198211669921875
1761299136217897200,1.063897216796875,-0.9924163818359375,-0.3888702392578125,-0.0417633056640625
1761299136238020000,1.08402001953125,-0.9850921630859375,-0.3729248046875,-0.0496673583984375
1761299136258143200,1.104143310546875,-0.950958251953125,-0.37213134765625,-0.0352935791015625
1761299136278266000,1.12426611328125,-0.914825439453125,-0.3853759765625,-0.027435302734375
1761299136298389200,1.14438916015625,-0.90325927734375,-0.3899688720703125,-0.0296478271484375
1761299136318513400,1.164513427734375,-0.897735595703125,-0.3945465087890625,-0.0407867431640625
1761299136338636000,1.184635986328125,-0.8855133056640625,-0.403656005859375,-0.0532989501953125
1761299136358759200,1.20475927734375,-0.88677978515625,-0.4056854248046875,-0.0600738525390625
1761299136378882000,1.224882080078125,-0.90478515625,-0.4019927978515625,-0.0503692626953125
1761299136399005200,1.245005126953125,-0.9116668701171875,-0.3949737548828125,-0.0411834716796875
1761299136419129300,1.26512939453125,-0.896026611328125,-0.395416259765625,-0.0395660400390625
1761299136439252500,1.28525244140625,-0.8753662109375,-0.4019775390625,-0.0491790771484375
1761299136459375400,1.305375244140625,-0.8782806396484375,-0.404296875,-0.0633087158203125
1761299136479498500,1.32549853515625,-0.913330078125,-0.3959808349609375,-0.0686492919921875
1761299136499621400,1.345621337890625,-0.9491424560546875,-0.3886566162109375,-0.0548248291015625
1761299136519745300,1.365745361328125,-0.98919677734375,-0.381683349609375,-0.04705810546875
1761299136539868400,1.385868408203125,-1.001708984375,-0.3810272216796875,-0.072052001953125
1761299136559991300,1.4059912109375,-0.9775848388671875,-0.394500732421875,-0.0908050537109375
1761299136580114400,1.426114501953125,-0.9425201416015625,-0.4126129150390625,-0.0929718017578125
1761299136600238300,1.44623828125,-0.9219970703125,-0.4163665771484375,-0.083038330078125
1761299136620361200,1.466361328125,-0.902252197265625,-0.4134063720703125,-0.0729217529296875
1761299136640484400,1.486484375,-0.8670806884765625,-0.41168212890625,-0.0721282958984375
1761299136660607200,1.506607177734375,-0.849517822265625,-0.421295166015625,-0.0746307373046875
1761299136680730400,1.52673046875,-0.850738525390625,-0.4257049560546875,-0.0733795166015625
1761299136700854300,1.546854248046875,-0.874908447265625,-0.4135894775390625,-0.071044921875
1761299136720977400,1.566977294921875,-0.9032745361328125,-0.4000091552734375,-0.059844970703125
1761299136741100300,1.587100341796875,-0.908416748046875,-0.3909454345703125,-0.0555877685546875
1761299136761223400,1.607223388671875,-0.89300537109375,-0.3939666748046875,-0.0551300048828125
1761299136781346300,1.62734619140625,-0.898712158203125,-0.4011383056640625,-0.0568389892578125
1761299136801470200,1.64747021484375,-0.919158935546875,-0.39935302734375,-0.0610198974609375
1761299136821593300,1.66759326171875,-0.93798828125,-0.390289306640625,-0.061553955078125
1761299136841716200,1.68771630859375,-0.9456024169921875,-0.400299072265625,-0.0844268798828125
1761299136861839400,1.70783935546875,-0.95111083984375,-0.4050750732421875,-0.0980224609375
1761299136881962200,1.727962158203125,-0.9457855224609375,-0.4005584716796875,-0.0933990478515625
1761299136902086100,1.748086181640625,-0.9169769287109375,-0.4012451171875,-0.0877685546875
1761299136922209300,1.768209228515625,-0.8882293701171875,-0.411163330078125,-0.089019775390625
1761299136942332200,1.788332275390625,-0.879547119140625,-0.4237823486328125,-0.095611572265625
1761299136962455300,1.808455322265625,-0.9104766845703125,-0.4304046630859375,-0.0937347412109375
1761299136982578200,1.828578125,-0.911590576171875,-0.42047119140625,-0.1028289794921875
1761299137002702300,1.848702392578125,-0.8931121826171875,-0.4241790771484375,-0.1027374267578125
1761299137022825200,1.8688251953125,-0.8964996337890625,-0.4195709228515625,-0.084228515625
1761299137042948600,1.888948486328125,-0.9096221923828125,-0.4047088623046875,-0.0778656005859375
1761299137063071500,1.909071533203125,-0.904571533203125,-0.4083709716796875,-0.07989501953125
1761299137083194400,1.9291943359375,-0.8939971923828125,-0.42047119140625,-0.09356689453125
1761299137103318800,1.94931884765625,-0.908050537109375,-0.4160308837890625,-0.08404541015625
1761299137123441700,1.969441650390625,-0.9210357666015625,-0.3980560302734375,-0.0777435302734375
1761299137143564800,1.989564697265625,-0.9118499755859375,-0.3941497802734375,-0.0791473388671875
1761299137163687700,2.009687744140625,-0.9036102294921875,-0.4027862548828125,-0.0836029052734375
1761299137183811600,2.0298115234375,-0.9141387939453125,-0.412109375,-0.098541259765625
1761299137203934700,2.049934814453125,-0.9188079833984375,-0.41888427734375,-0.103851318359375
1761299137224057600,2.0700576171875,-0.923828125,-0.4158935546875,-0.09893798828125
1761299137244180700,2.0901806640625,-0.922882080078125,-0.41693115234375,-0.1015625
1761299137264303600,2.1103037109375,-0.917877197265625,-0.4310150146484375,-0.1063995361328125
1761299137284427500,2.130427490234375,-0.9053497314453125,-0.4391632080078125,-0.1156463623046875
1761299137304550700,2.150550537109375,-0.8926544189453125,-0.441497802734375,-0.10955810546875
1761299137324673500,2.170673583984375,-0.8995208740234375,-0.4358062744140625,-0.088592529296875
1761299137344796700,2.190796630859375,-0.9057159423828125,-0.414337158203125,-0.0852203369140625
1761299137364919600,2.21091943359375,-0.913970947265625,-0.419708251953125,-0.0821990966796875
1761299137385043700,2.231043701171875,-0.9225006103515625,-0.4140625,-0.071441650390625
1761299137405166600,2.25116650390625,-0.91802978515625,-0.3978118896484375,-0.0672607421875
1761299137425289700,2.271289794921875,-0.89508056640625,-0.4046478271484375,-0.066436767578125
1761299137445412600,2.29141259765625,-0.8883514404296875,-0.419769287109375,-0.07275390625
1761299137465535700,2.31153564453125,-0.9071044921875,-0.415313720703125,-0.0793914794921875
1761299137485659600,2.33165966796875,-0.9120330810546875,-0.40576171875,-0.0770721435546875
1761299137505782500,2.351782470703125,-0.890777587890625,-0.4115142822265625,-0.0796051025390625
1761299137525905700,2.37190576171875,-0.8812713623046875,-0.4293212890625,-0.0959930419921875
1761299137546028500,2.392028564453125,-0.9005279541015625,-0.4301605224609375,-0.0903167724609375
1761299137566151700,2.412151611328125,-0.9224700927734375,-0.4272308349609375,-0.095550537109375
1761299137586275600,2.432275634765625,-0.9346466064453125,-0.434722900390625,-0.104705810546875
1761299137606398500,2.4523984375,-0.938140869140625,-0.433929443359375,-0.1040802001953125
1761299137626521600,2.472521484375,-0.94482421875,-0.413330078125,-0.0900115966796875
1761299137646644500,2.49264453125,-0.932586669921875,-0.4043731689453125,-0.0807037353515625
1761299137666767600,2.512767578125,-0.8992919921875,-0.411529541015625,-0.0708160400390625
1761299137686891500,2.5328916015625,-0.879302978515625,-0.41339111328125,-0.0640716552734375
1761299137707014700,2.5530146484375,-0.896209716796875,-0.408294677734375,-0.0669403076171875
1761299137727137500,2.573137451171875,-0.896087646484375,-0.411285400390625,-0.0768280029296875
1761299137747260700,2.5932607421875,-0.8738861083984375,-0.416046142578125,-0.071075439453125
1761299137767383600,2.613383544921875,-0.878631591796875,-0.4106597900390625,-0.0656890869140625
1761299137787507500,2.633507568359375,-0.8917083740234375,-0.40594482421875,-0.07696533203125
1761299137807630600,2.653630615234375,-0.8819427490234375,-0.419525146484375,-0.08258056640625
1761299137827753500,2.67375341796875,-0.8802032470703125,-0.4201812744140625,-0.0789642333984375
1761299137847876600,2.693876708984375,-0.9041595458984375,-0.41015625,-0.0765533447265625
1761299137867999500,2.71399951171875,-0.9295806884765625,-0.41912841796875,-0.081817626953125
1761299137888123400,2.734123291015625,-0.9384002685546875,-0.43115234375,-0.090087890625
1761299137908246500,2.75424658203125,-0.9448089599609375,-0.4298858642578125,-0.080780029296875
1761299137928369400,2.774369384765625,-0.9437408447265625,-0.4203643798828125,-0.0772247314453125
1761299137948492500,2.794492431640625,-0.933807373046875,-0.418792724609375,-0.07855224609375
1761299137968615400,2.814615478515625,-0.919036865234375,-0.4187469482421875,-0.078033447265625
1761299137988739600,2.834739501953125,-0.918609619140625,-0.4158172607421875,-0.084869384765625
1761299138008862500,2.854862548828125,-0.898468017578125,-0.4197998046875,-0.089111328125
1761299138028985600,2.874985595703125,-0.8681488037109375,-0.4205474853515625,-0.0858001708984375
1761299138049108700,2.895108642578125,-0.8544158935546875,-0.41302490234375,-0.075042724609375
1761299138069232600,2.915232666015625,-0.8610076904296875,-0.4093475341796875,-0.0735931396484375
1761299138089355800,2.935355712890625,-0.87066650390625,-0.416595458984375,-0.0675506591796875
1761299138109478700,2.955478759765625,-0.890472412109375,-0.4166259765625,-0.0670623779296875
1761299138129601800,2.975601806640625,-0.9197540283203125,-0.4099273681640625,-0.0662384033203125
1761299138149724700,2.995724609375,-0.9318084716796875,-0.4091339111328125,-0.0709075927734375
1761299138169848600,3.0158486328125,-0.932586669921875,-0.4225921630859375,-0.0819854736328125
1761299138189971700,3.0359716796875,-0.9293212890625,-0.429534912109375,-0.08270263671875
1761299138210094600,3.056094482421875,-0.92529296875,-0.42376708984375,-0.0809783935546875
1761299138230217700,3.0762177734375,-0.9254302978515625,-0.417999267578125,-0.07403564453125
1761299138250340600,3.096340576171875,-0.921051025390625,-0.4174041748046875,-0.076416015625
1761299138270464800,3.11646484375,-0.91314697265625,-0.4138946533203125,-0.0760498046875
1761299138290587600,3.136587646484375,-0.9120635986328125,-0.40911865234375,-0.0743255615234375
1761299138310710800,3.156710693359375,-0.90850830078125,-0.4080047607421875,-0.0767822265625
1761299138330833700,3.176833740234375,-0.9099884033203125,-0.409332275390625,-0.0812530517578125
1761299138350956800,3.196956787109375,-0.919647216796875,-0.406402587890625,-0.0796051025390625
1761299138371080700,3.217080810546875,-0.910858154296875,-0.4007568359375,-0.0758056640625
1761299138391203600,3.23720361328125,-0.88421630859375,-0.4097747802734375,-0.0724945068359375
1761299138411326700,3.25732666015625,-0.8673248291015625,-0.4151763916015625,-0.0695037841796875
1761299138431449600,3.27744970703125,-0.891082763671875,-0.417633056640625,-0.06402587890625
1761299138451572700,3.29757275390625,-0.921112060546875,-0.418365478515625,-0.072357177734375
1761299138471696600,3.317696533203125,-0.927001953125,-0.4262237548828125,-0.07952880859375
1761299138491819500,3.337819580078125,-0.9343109130859375,-0.4307403564453125,-0.0808868408203125
1761299138511942700,3.357942626953125,-0.94940185546875,-0.42724609375,-0.0764617919921875
1761299138532065500,3.3780654296875,-0.949676513671875,-0.4359130859375,-0.08404541015625
1761299138552188700,3.398188720703125,-0.9379730224609375,-0.451263427734375,-0.0966339111328125
1761299138572312600,3.4183125,-0.93170166015625,-0.4570465087890625,-0.0959320068359375
1761299138592435700,3.438435791015625,-0.919708251953125,-0.4473114013671875,-0.0872344970703125
1761299138612558600,3.45855859375,-0.9035491943359375,-0.4364776611328125,-0.0783843994140625
1761299138632681700,3.478681640625,-0.907501220703125,-0.419525146484375,-0.0657806396484375
1761299138652804600,3.4988046875,-0.9089202880859375,-0.3972320556640625,-0.05755615234375
1761299138672928500,3.518928466796875,-0.8883209228515625,-0.3968963623046875,-0.0579376220703125
1761299138693051600,3.5390517578125,-0.854461669921875,-0.4049835205078125,-0.065643310546875
1761299138713174500,3.559174560546875,-0.85479736328125,-0.40081787109375,-0.0457305908203125
1761299138733297700,3.579297607421875,-0.8670654296875,-0.3743133544921875,-0.0179901123046875
1761299138753420500,3.599420654296875,-0.857208251953125,-0.3537445068359375,0.00860595703125
1761299138773544400,3.61954443359375,-0.8421783447265625,-0.3540496826171875,0.0135040283203125
1761299138793667600,3.63966748046875,-0.8561859130859375,-0.3724517822265625,0.016082763671875
1761299138813790500,3.65979052734375,-0.8691864013671875,-0.3721160888671875,0.0125885009765625
1761299138833913600,3.67991357421875,-0.89703369140625,-0.369842529296875,0.00494384765625
1761299138854036500,3.700036376953125,-0.933319091796875,-0.381134033203125,-0.01312255859375
1761299138874160600,3.72016064453125,-0.9529266357421875,-0.4066619873046875,-0.0545806884765625
1761299138894283500,3.740283447265625,-0.961944580078125,-0.4439697265625,-0.1050262451171875
1761299138914406700,3.76040673828125,-0.9572906494140625,-0.4671783447265625,-0.145660400390625
1761299138934529500,3.780529541015625,-0.95587158203125,-0.4780426025390625,-0.1723480224609375
1761299138954653700,3.80065380859375,-0.9529876708984375,-0.4834136962890625,-0.1838226318359375
1761299138974776800,3.82077685546875,-0.953887939453125,-0.476715087890625,-0.1750946044921875
1761299138994899700,3.840899658203125,-0.921295166015625,-0.477508544921875,-0.1522674560546875
1761299139015022800,3.86102294921875,-0.8998260498046875,-0.4638214111328125,-0.14056396484375
1761299139035145700,3.881145751953125,-0.9068145751953125,-0.425567626953125,-0.095489501953125
1761299139055269600,3.90126953125,-0.9176788330078125,-0.3950958251953125,-0.0642242431640625
1761299139075392800,3.921392822265625,-0.9076080322265625,-0.3916015625,-0.0585479736328125
1761299139095515600,3.941515625,-0.8975677490234375,-0.402801513671875,-0.0571746826171875
1761299139115638800,3.961638671875,-0.893707275390625,-0.4005279541015625,-0.0551300048828125
1761299139135761700,3.98176171875,-0.8920440673828125,-0.3916015625,-0.0451812744140625
1761299139155882800,4.0018828125,-0.91156005859375,-0.38580322265625,-0.029876708984375
1761299139176007000,4.0220068359375,-0.930389404296875,-0.3809356689453125,-0.024444580078125
1761299139196129800,4.0421298828125,-0.9347076416015625,-0.383087158203125,-0.0315093994140625
1761299139216253000,4.0622529296875,-0.9192962646484375,-0.38323974609375,-0.0363922119140625
1761299139236375800,4.082375732421875,-0.9012603759765625,-0.3801116943359375,-0.04290771484375
1761299139256498700,4.102498779296875,-0.8785247802734375,-0.387420654296875,-0.05096435546875
1761299139276622800,4.122622802734375,-0.854827880859375,-0.3998870849609375,-0.0555267333984375
1761299139296745700,4.142745849609375,-0.8598175048828125,-0.4060211181640625,-0.0548553466796875
1761299139316868900,4.162868896484375,-0.8782958984375,-0.403350830078125,-0.0472259521484375
1761299139336991700,4.18299169921875,-0.878753662109375,-0.4073944091796875,-0.051025390625
1761299139357115000,4.203114990234375,-0.87542724609375,-0.4224090576171875,-0.06646728515625
1761299139377238800,4.22323876953125,-0.9100799560546875,-0.425018310546875,-0.0653228759765625
1761299139397361700,4.243361572265625,-0.96392822265625,-0.410888671875,-0.0479736328125
1761299139417484800,4.26348486328125,-0.97979736328125,-0.399200439453125,-0.036407470703125
1761299139437607700,4.283607666015625,-0.966796875,-0.4071807861328125,-0.0457763671875
1761299139457731800,4.30373193359375,-0.943878173828125,-0.4266815185546875,-0.063140869140625
1761299139477854700,4.323854736328125,-0.9233856201171875,-0.43231201171875,-0.077178955078125
1761299139497977900,4.343977783203125,-0.9071197509765625,-0.4244232177734375,-0.068817138671875
1761299139518100700,4.364100830078125,-0.89495849609375,-0.4133758544921875,-0.078216552734375
1761299139538223600,4.3842236328125,-0.887603759765625,-0.4139862060546875,-0.0916595458984375
1761299139558349800,4.404349853515625,-0.893798828125,-0.4092559814453125,-0.096221923828125
1761299139578472700,4.42447265625,-0.8895111083984375,-0.3990631103515625,-0.0945281982421875
1761299139598595600,4.444595703125,-0.8735809326171875,-0.4041290283203125,-0.0832061767578125
1761299139618718700,4.46471875,-0.86383056640625,-0.41680908203125,-0.0782470703125
1761299139638841600,4.484841552734375,-0.8824310302734375,-0.42401123046875,-0.0630645751953125
1761299139658965800,4.5049658203125,-0.91845703125,-0.4091644287109375,-0.045745849609375
1761299139679089000,4.5250888671875,-0.9429168701171875,-0.403167724609375,-0.031097412109375
1761299139699211800,4.545211669921875,-0.94610595703125,-0.4062042236328125,-0.030059814453125
1761299139719335000,4.5653349609375,-0.9534454345703125,-0.4158782958984375,-0.039520263671875
1761299139739457800,4.585457763671875,-0.976348876953125,-0.4177093505859375,-0.040435791015625
1761299139759581700,4.605581787109375,-1.00091552734375,-0.4082183837890625,-0.0424652099609375
1761299139779704800,4.625704833984375,-0.993408203125,-0.3961639404296875,-0.0386199951171875
1761299139799827700,4.64582763671875,-0.9532470703125,-0.3940887451171875,-0.046875
1761299139819950800,4.665950927734375,-0.9113006591796875,-0.4051971435546875,-0.063934326171875
1761299139840073700,4.68607373046875,-0.9044342041015625,-0.411102294921875,-0.0750274658203125
1761299139860198000,4.706197998046875,-0.9243011474609375,-0.3978118896484375,-0.0662078857421875
1761299139880320800,4.72632080078125,-0.9090728759765625,-0.3836517333984375,-0.056671142578125
1761299139900444000,4.74644384765625,-0.8627166748046875,-0.39190673828125,-0.0649871826171875
1761299139920566800,4.76656689453125,-0.8344879150390625,-0.4062347412109375,-0.0759429931640625
1761299139940690700,4.786690673828125,-0.8267974853515625,-0.405303955078125,-0.07354736328125
1761299139960813800,4.806813720703125,-0.8127288818359375,-0.3927764892578125,-0.0572967529296875
1761299139980936700,4.826936767578125,-0.794952392578125,-0.38433837890625,-0.037445068359375
1761299140001059800,4.847059814453125,-0.814300537109375,-0.3798828125,-0.0385894775390625
1761299140021182700,4.8671826171875,-0.8545379638671875,-0.3919525146484375,-0.0517425537109375
1761299140041306000,4.88730615234375,-0.8933868408203125,-0.402679443359375,-0.056915283203125
1761299140061428700,4.9074287109375,-0.9512939453125,-0.3983612060546875,-0.036224365234375
1761299140081552000,4.9275517578125,-1.01434326171875,-0.39862060546875,-0.02850341796875
1761299140101674800,4.9476748046875,-1.053131103515625,-0.39862060546875,-0.0179901123046875
1761299140121798000,4.9677978515625,-1.0706024169921875,-0.4006500244140625,-0.009765625
1761299140141922000,4.987922119140625,-1.0653228759765625,-0.3983917236328125,-0.01715087890625
1761299140162045000,5.008044921875,-1.0407867431640625,-0.4052886962890625,-0.0409698486328125
1761299140182168000,5.02816796875,-1.0032501220703125,-0.414703369140625,-0.072021484375
1761299140202291000,5.048291015625,-0.976318359375,-0.416534423828125,-0.084259033203125
1761299140222414000,5.0684140625,-0.9471435546875,-0.4023284912109375,-0.078369140625
1761299140242538000,5.0885380859375,-0.9075775146484375,-0.3895721435546875,-0.0708465576171875
1761299140262660900,5.108660888671875,-0.8792266845703125,-0.3924102783203125,-0.0739898681640625
1761299140282784000,5.128783935546875,-0.855865478515625,-0.39617919921875,-0.0778350830078125
1761299140302907000,5.148906982421875,-0.8275299072265625,-0.3945465087890625,-0.0746002197265625
1761299140323030000,5.169030029296875,-0.8013153076171875,-0.3914794921875,-0.06707763671875
1761299140343154000,5.18915380859375,-0.8147735595703125,-0.39556884765625,-0.05712890625
1761299140363277000,5.209277099609375,-0.8305511474609375,-0.4016571044921875,-0.0722808837890625
1761299140383400000,5.22939990234375,-0.852294921875,-0.41961669921875,-0.0496673583984375
1761299140403523000,5.249523193359375,-0.928558349609375,-0.4098052978515625,-0.0336761474609375
1761299140423646000,5.26964599609375,-1.010162353515625,-0.391387939453125,-0.02532958984375
1761299140443769900,5.289769775390625,-1.057525634765625,-0.382568359375,-0.0055389404296875
1761299140463893000,5.30989306640625,-1.0526885986328125,-0.380523681640625,-0.0030670166015625
1761299140484015900,5.330015869140625,-1.005950927734375,-0.3945770263671875,-0.00146484375
1761299140504139000,5.350138916015625,-0.9640045166015625,-0.4131011962890625,-0.0146636962890625
1761299140524262000,5.370261962890625,-0.955963134765625,-0.4178466796875,-0.0306243896484375
1761299140544385800,5.3903857421875,-0.9615936279296875,-0.3961181640625,-0.042083740234375
1761299140564509000,5.410509033203125,-0.91705322265625,-0.3814239501953125,-0.038543701171875
1761299140584631800,5.4306318359375,-0.8551177978515625,-0.3902130126953125,-0.03204345703125
1761299140604755000,5.4507548828125,-0.8248748779296875,-0.398101806640625,-0.0404205322265625
1761299140624877800,5.4708779296875,-0.8302459716796875,-0.40380859375,-0.0494232177734375
1761299140645002000,5.491001953125,-0.8514251708984375,-0.3922119140625,-0.0500335693359375
1761299140665124900,5.511124755859375,-0.88641357421875,-0.3813629150390625,-0.04742431640625
1761299140685248000,5.531248046875,-0.920654296875,-0.376556396484375,-0.05340576171875
1761299140705371000,5.551370849609375,-0.92120361328125,-0.3825836181640625,-0.0653533935546875
1761299140725494000,5.571493896484375,-0.89068603515625,-0.407928466796875,-0.0642547607421875
1761299140745618000,5.591617919921875,-0.8606719970703125,-0.422149658203125,-0.0491943359375
1761299140765740800,5.61174072265625,-0.876220703125,-0.4195556640625,-0.0246124267578125
1761299140785864000,5.631864013671875,-0.8949127197265625,-0.4059295654296875,-0.0013275146484375
1761299140805986800,5.65198681640625,-0.89801025390625,-0.4236602783203125,-0.013641357421875
1761299140826110000,5.67210986328125,-0.9196624755859375,-0.449432373046875,-0.04827880859375
1761299140846233900,5.69223388671875,-0.9610748291015625,-0.44830322265625,-0.068359375
1761299140866356700,5.712356689453125,-0.988128662109375,-0.4286651611328125,-0.06878662109375
1761299140886480000,5.73247998046875,-0.9669036865234375,-0.4184722900390625,-0.070892333984375
1761299140906602800,5.752602783203125,-0.9351959228515625,-0.4275054931640625,-0.0727691650390625
1761299140926726000,5.772725830078125,-0.9280853271484375,-0.4242706298828125,-0.070709228515625
1761299140946849800,5.792849853515625,-0.9020843505859375,-0.4160614013671875,-0.0621490478515625
1761299140966973000,5.812972900390625,-0.8709564208984375,-0.417510986328125,-0.0523681640625
1761299140987095800,5.833095703125,-0.8383331298828125,-0.42572021484375,-0.0572357177734375
1761299141007219000,5.853218994140625,-0.8409881591796875,-0.4406280517578125,-0.0457916259765625
1761299141027341800,5.873341796875,-0.878936767578125,-0.4324188232421875,-0.031463623046875
1761299141047465700,5.8934658203125,-0.8968658447265625,-0.416107177734375,-0.0149383544921875
1761299141067588900,5.9135888671875,-0.897064208984375,-0.42230224609375,-0.022369384765625
1761299141087711700,5.933711669921875,-0.906524658203125,-0.439971923828125,-0.0428619384765625
1761299141107835000,5.9538349609375,-0.941925048828125,-0.4517822265625,-0.05902099609375
1761299141127958800,5.973958740234375,-0.9711151123046875,-0.442535400390625,-0.0606536865234375
1761299141148081700,5.99408154296875,-0.9564361572265625,-0.4256134033203125,-0.04681396484375
1761299141168204800,6.014204833984375,-0.916290283203125,-0.4253692626953125,-0.044097900390625
1761299141188327700,6.03432763671875,-0.898590087890625,-0.42388916015625,-0.044281005859375
1761299141208450800,6.054450927734375,-0.8995361328125,-0.42578125,-0.0508575439453125
1761299141228574700,6.07457470703125,-0.8984527587890625,-0.4239654541015625,-0.0494384765625
1761299141248697900,6.09469775390625,-0.9021148681640625,-0.4146881103515625,-0.044158935546875
1761299141268820700,6.11482080078125,-0.90423583984375,-0.4052581787109375,-0.036865234375
1761299141288943900,6.13494384765625,-0.876678466796875,-0.4067230224609375,-0.042938232421875
1761299141309066800,6.155066650390625,-0.8570556640625,-0.42388916015625,-0.055633544921875
1761299141329191000,6.17519091796875,-0.87091064453125,-0.4278717041015625,-0.05682373046875
1761299141349314000,6.19531396484375,-0.894561767578125,-0.4156951904296875,-0.0476531982421875
1761299141369436700,6.215436767578125,-0.90423583984375,-0.412567138671875,-0.0453948974609375
1761299141389559800,6.235559814453125,-0.9008026123046875,-0.4210052490234375,-0.04779052734375
1761299141409682700,6.2556826171875,-0.9128265380859375,-0.427703857421875,-0.043365478515625
1761299141429806800,6.275806884765625,-0.933441162109375,-0.4210052490234375,-0.0400848388671875
1761299141449930000,6.295929931640625,-0.9219207763671875,-0.417724609375,-0.0376739501953125
1761299141470052900,6.316052978515625,-0.9079437255859375,-0.42877197265625,-0.0390777587890625
1761299141490176000,6.336176025390625,-0.92730712890625,-0.430694580078125,-0.0419158935546875
1761299141510299000,6.356298828125,-0.94091796875,-0.4339141845703125,-0.045989990234375
1761299141530423000,6.376423095703125,-0.9317626953125,-0.4329071044921875,-0.0493621826171875
1761299141550546000,6.3965458984375,-0.90557861328125,-0.4276123046875,-0.0397186279296875
1761299141570669000,6.4166689453125,-0.88116455078125,-0.423309326171875,-0.0361175537109375
1761299141590792000,6.4367919921875,-0.865478515625,-0.42828369140625,-0.043670654296875
1761299141610915000,6.4569150390625,-0.869140625,-0.4365997314453125,-0.04229736328125
1761299141631039000,6.4770390625,-0.88250732421875,-0.42242431640625,-0.0308990478515625
1761299141651161900,6.497161865234375,-0.882843017578125,-0.4078521728515625,-0.0226898193359375
1761299141671285000,6.517284912109375,-0.873382568359375,-0.413818359375,-0.02581787109375
1761299141691408000,6.537407958984375,-0.8823089599609375,-0.426177978515625,-0.04217529296875
1761299141711531000,6.557531005859375,-0.8988189697265625,-0.4321136474609375,-0.0483245849609375
1761299141731655000,6.577655029296875,-0.916748046875,-0.434906005859375,-0.0520782470703125
1761299141751777800,6.59777783203125,-0.9332275390625,-0.4295654296875,-0.0489044189453125
1761299141771901000,6.61790087890625,-0.956573486328125,-0.419158935546875,-0.0407867431640625
1761299141792023800,6.63802392578125,-0.95379638671875,-0.410797119140625,-0.0371551513671875
1761299141812147000,6.65814697265625,-0.929412841796875,-0.4199371337890625,-0.0392608642578125
1761299141832270800,6.678270751953125,-0.9067230224609375,-0.4273529052734375,-0.04669189453125
1761299141852394000,6.69839404296875,-0.8921966552734375,-0.43072509765625,-0.0477752685546875
1761299141872516900,6.718516845703125,-0.919830322265625,-0.416229248046875,-0.0307159423828125
1761299141892640000,6.738639892578125,-0.9506683349609375,-0.403656005859375,-0.0368194580078125
1761299141912763000,6.758762939453125,-0.937408447265625,-0.415863037109375,-0.0413055419921875
1761299141932886800,6.77888671875,-0.9180755615234375,-0.424560546875,-0.05413818359375
1761299141953010000,6.799010009765625,-0.9198760986328125,-0.4289093017578125,-0.0598297119140625
1761299141973132800,6.8191328125,-0.91485595703125,-0.4231414794921875,-0.0593414306640625
1761299141993256000,6.839255859375,-0.9084320068359375,-0.4218597412109375,-0.0550537109375
1761299142013378800,6.85937890625,-0.897308349609375,-0.404815673828125,-0.037689208984375
1761299142033502700,6.879502685546875,-0.8787994384765625,-0.3990936279296875,-0.0344696044921875
1761299142053626600,6.899626708984375,-0.85302734375,-0.4073944091796875,-0.0438690185546875
1761299142073749500,6.91974951171875,-0.8427886962890625,-0.422393798828125,-0.049468994140625
1761299142093872600,6.93987255859375,-0.871856689453125,-0.420318603515625,-0.042449951171875
1761299142113996800,6.959996826171875,-0.898681640625,-0.407867431640625,-0.0428619384765625
1761299142134119700,6.98011962890625,-0.903961181640625,-0.41851806640625,-0.049224853515625
1761299142154242800,7.000242919921875,-0.9073028564453125,-0.4287109375,-0.06329345703125
1761299142174365700,7.02036572265625,-0.9353790283203125,-0.4317474365234375,-0.06219482421875
1761299142194488800,7.04048876953125,-0.9608612060546875,-0.428436279296875,-0.0675811767578125
1761299142214612700,7.06061279296875,-0.963958740234375,-0.4228515625,-0.05963134765625
1761299142234735600,7.080735595703125,-0.9505157470703125,-0.408447265625,-0.0415191650390625
1761299142254858800,7.100858642578125,-0.918487548828125,-0.40789794921875,-0.0525054931640625
1761299142274981600,7.120981689453125,-0.892333984375,-0.4270477294921875,-0.0601654052734375
1761299142295104800,7.141104736328125,-0.8888702392578125,-0.4267730712890625,-0.05010986328125
1761299142315228700,7.161228759765625,-0.8964080810546875,-0.40374755859375,-0.0372467041015625
1761299142335351800,7.181351806640625,-0.8989105224609375,-0.405670166015625,-0.0369873046875
1761299142355474700,7.201474609375,-0.882171630859375,-0.4268035888671875,-0.0258331298828125
1761299142375597800,7.221597900390625,-0.882720947265625,-0.432037353515625,-0.01434326171875
1761299142395720700,7.241720703125,-0.901275634765625,-0.42230224609375,-0.0093536376953125
1761299142415844600,7.2618447265625,-0.9226837158203125,-0.4250640869140625,-0.016204833984375
1761299142435967700,7.2819677734375,-0.9067535400390625,-0.43682861328125,-0.023651123046875
1761299142456090600,7.302090576171875,-0.897064208984375,-0.4378204345703125,-0.024627685546875
1761299142476213800,7.3222138671875,-0.9152679443359375,-0.4255828857421875,-0.02288818359375
1761299142496336600,7.342336669921875,-0.9317626953125,-0.4201507568359375,-0.0317230224609375
1761299142516460500,7.36246044921875,-0.923858642578125,-0.424041748046875,-0.0368499755859375
1761299142536583700,7.382583740234375,-0.91693115234375,-0.425537109375,-0.0378875732421875
1761299142556706600,7.40270654296875,-0.922698974609375,-0.4174041748046875,-0.020050048828125
1761299142576829700,7.42282958984375,-0.91033935546875,-0.40863037109375,-0.0152435302734375
1761299142596952600,7.44295263671875,-0.884796142578125,-0.4157562255859375,-0.0210723876953125
1761299142617076700,7.46307666015625,-0.8966827392578125,-0.4308929443359375,-0.043304443359375
1761299142637199600,7.48319970703125,-0.920989990234375,-0.4365234375,-0.0548858642578125
1761299142657322800,7.50332275390625,-0.9146881103515625,-0.428680419921875,-0.0361328125
1761299142677445600,7.523445556640625,-0.9046783447265625,-0.421234130859375,-0.0310821533203125
1761299142697568800,7.54356884765625,-0.9104766845703125,-0.4233856201171875,-0.0350799560546875
1761299142717692700,7.563692626953125,-0.9213714599609375,-0.4285888671875,-0.043060302734375
1761299142737815600,7.583815673828125,-0.9275970458984375,-0.4285125732421875,-0.0385284423828125
1761299142757938700,7.603938720703125,-0.9312896728515625,-0.4132080078125,-0.0394134521484375
1761299142778061600,7.6240615234375,-0.9222412109375,-0.4106903076171875,-0.028350830078125
1761299142798184700,7.644184814453125,-0.9149627685546875,-0.4105987548828125,-0.0158843994140625
1761299142818308600,7.66430859375,-0.9182281494140625,-0.4013671875,-0.0208587646484375
1761299142838431500,7.684431396484375,-0.9101715087890625,-0.4057464599609375,-0.029449462890625
1761299142858554600,7.7045546875,-0.8874053955078125,-0.4137115478515625,-0.034637451171875
1761299142878677500,7.724677490234375,-0.8656768798828125,-0.42523193359375,-0.0412139892578125
1761299142898800600,7.744800537109375,-0.8713226318359375,-0.4290008544921875,-0.0364532470703125
1761299142918924500,7.764924560546875,-0.8892059326171875,-0.419189453125,-0.028656005859375
1761299142939047700,7.785047607421875,-0.8945770263671875,-0.41668701171875,-0.024169921875
1761299142959170600,7.805170654296875,-0.889862060546875,-0.4210357666015625,-0.02801513671875
1761299142979293700,7.825293701171875,-0.9129180908203125,-0.424346923828125,-0.023590087890625
1761299142999416600,7.84541650390625,-0.929168701171875,-0.4161529541015625,-0.0208587646484375
1761299143019540500,7.86554052734375,-0.933929443359375,-0.4184722900390625,-0.019866943359375
1761299143039663400,7.885663330078125,-0.91644287109375,-0.416229248046875,-0.0284576416015625
1761299143059786200,7.9057861328125,-0.90313720703125,-0.414825439453125,-0.0248260498046875
1761299143079909400,7.925909423828125,-0.9102935791015625,-0.4136505126953125,-0.032928466796875
1761299143100032300,7.9460322265625,-0.9339599609375,-0.41729736328125,-0.0319976806640625
1761299143120156400,7.966156494140625,-0.939056396484375,-0.4027557373046875,-0.02099609375
1761299143140279300,7.986279296875,-0.9302825927734375,-0.3939208984375,-0.0261383056640625
1761299143160400100,8.006400146484374,-0.908294677734375,-0.40692138671875,-0.0394287109375
1761299143180523300,8.026523193359376,-0.902313232421875,-0.41436767578125,-0.0385589599609375
1761299143200646100,8.046646240234375,-0.88006591796875,-0.39825439453125,-0.0238037109375
1761299143220770000,8.06677001953125,-0.853240966796875,-0.3888702392578125,-0.027435302734375
1761299143240893200,8.08689306640625,-0.830535888671875,-0.373748779296875,-0.0347442626953125
1761299143261016000,8.10701611328125,-0.833587646484375,-0.4396514892578125,0.03802490234375
1761299143281139200,8.12713916015625,-0.9057159423828125,-0.3905029296875,-0.0624847412109375
1761299143301262000,8.147261962890624,-0.9909515380859375,-0.385528564453125,-0.04351806640625
