time,seconds_elapsed,z,y,x
1761396971968033000,0.258032958984375,-0.015395641326904297,0.020614147186279297,-0.23256802558898926
1761396971987410000,0.277409912109375,0.1053609848022461,-0.011804580688476562,-0.34521016478538513
1761396972006786800,0.296786865234375,0.4522438049316406,-0.011271953582763672,-0.02686399221420288
1761396972026163700,0.316163818359375,0.38907814025878906,-0.08607864379882812,-0.04809880256652832
1761396972045540600,0.33554052734375,0.06610965728759766,-0.0448455810546875,-0.04748803377151489
1761396972064917500,0.35491748046875,-0.29077720642089844,-0.0026979446411132812,0.02387005090713501
1761396972084294400,0.37429443359375,-0.30219602584838867,0.0020051002502441406,0.05159956216812134
1761396972103671600,0.393671630859375,-0.17021751403808594,0.003231525421142578,0.16831016540527344
1761396972123048400,0.41304833984375,-0.11676216125488281,0.026386737823486328,0.24759364128112793
1761396972142425300,0.43242529296875,-0.07938528060913086,0.04921531677246094,0.17552274465560913
1761396972161802200,0.45180224609375,-0.2033548355102539,0.09422111511230469,0.21202778816223145
1761396972181179100,0.47117919921875,-0.3120250701904297,0.0541081428527832,0.021080195903778076
1761396972200556000,0.49055615234375,-0.3036160469055176,0.04464864730834961,-0.218450665473938
1761396972219933000,0.509932861328125,-0.2460312843322754,0.07215690612792969,-0.09716850519180298
1761396972239310000,0.52931005859375,-0.10833740234375,0.09824514389038086,-0.12173962593078613
1761396972258687000,0.54868701171875,0.3484625816345215,0.041748046875,-0.13814592361450195
1761396972278063900,0.56806396484375,0.37246179580688477,-0.0066242218017578125,-0.13758856058120728
1761396972297440800,0.587440673828125,0.010660171508789062,-0.05298614501953125,-0.233911395072937
1761396972316817700,0.606817626953125,-0.14752769470214844,-0.06389570236206055,-0.36485499143600464
1761396972336194600,0.626194580078125,0.09284782409667969,0.0035400390625,-0.2217453122138977
1761396972355571500,0.645571533203125,0.2345128059387207,0.041131019592285156,0.05249124765396118
1761396972374948400,0.6649482421875,0.15765094757080078,0.052581787109375,-0.012052536010742188
1761396972394325500,0.684325439453125,-0.0708169937133789,0.02168560028076172,-0.24408745765686035
1761396972413702400,0.703702392578125,-0.08119964599609375,0.00878763198852539,-0.31842517852783203
1761396972433079300,0.723079345703125,0.26521825790405273,-0.006724357604980469,-0.24706149101257324
1761396972452456200,0.742456298828125,0.017418861389160156,0.05298757553100586,-0.16172176599502563
1761396972471833000,0.7618330078125,-0.007687091827392578,0.12179422378540039,0.004472196102142334
1761396972491210000,0.7812099609375,-0.010265827178955078,0.0688772201538086,-0.041464269161224365
1761396972510587000,0.8005869140625,-0.07253503799438477,0.038630008697509766,-0.0977131724357605
1761396972529964000,0.819964111328125,-0.2020554542541504,0.07560968399047852,-0.005084395408630371
1761396972549341000,0.8393408203125,-0.065277099609375,0.015320301055908203,-0.0537223219871521
1761396972568717800,0.8587177734375,0.07537126541137695,-0.05301618576049805,-0.03594785928726196
1761396972588094700,0.8780947265625,-0.03416919708251953,-0.0723423957824707,0.1450951099395752
1761396972607471600,0.8974716796875,-0.0623936653137207,-0.0653848648071289,0.18519890308380127
1761396972626848500,0.9168486328125,-0.15944337844848633,-0.050627708435058594,0.26517194509506226
1761396972646225400,0.936225341796875,-0.2058873176574707,0.030431747436523438,0.29492467641830444
1761396972665602300,0.955602294921875,0.01154184341430664,-0.02069854736328125,0.18051230907440186
1761396972684979500,0.9749794921875,0.08211517333984375,-0.009613513946533203,0.2009485960006714
1761396972704356400,0.9943564453125,-0.1316847801208496,0.05545759201049805,0.2659872770309448
1761396972723733200,1.013733154296875,-0.17267847061157227,0.04376363754272461,0.05166780948638916
1761396972743110100,1.033110107421875,-0.28443145751953125,0.0445408821105957,0.01165705919265747
1761396972762487000,1.052487060546875,-0.21932220458984375,0.09254741668701172,-0.010290741920471191
1761396972781864000,1.071864013671875,-0.04326343536376953,0.09209871292114258,-0.0913083553314209
1761396972801240800,1.09124072265625,0.07159709930419922,0.08388853073120117,-0.03945505619049072
1761396972820617700,1.11061767578125,0.011881828308105469,0.07761096954345703,-0.08133798837661743
1761396972839995000,1.129994873046875,-0.002353668212890625,-0.0004591941833496094,-0.2699826955795288
1761396972859371800,1.149371826171875,0.0375361442565918,-0.01669597625732422,-0.41546690464019775
1761396972878748700,1.168748779296875,0.17565011978149414,-0.00522613525390625,-0.36190134286880493
1761396972898125600,1.18812548828125,0.16157197952270508,0.014792442321777344,-0.16190195083618164
1761396972917502500,1.20750244140625,0.15281915664672852,-0.004164695739746094,-0.14038866758346558
1761396972936879400,1.22687939453125,0.06210041046142578,-0.02411937713623047,-0.17818796634674072
1761396972956256300,1.24625634765625,0.0010972023010253906,-0.025522708892822266,-0.24987441301345825
1761396972975633400,1.26563330078125,-0.13942766189575195,0.010736942291259766,-0.1311168074607849
1761396972995010300,1.28501025390625,-0.04590463638305664,0.06414937973022461,-0.022243738174438477
1761396973014387200,1.30438720703125,0.10246801376342773,0.043967247009277344,-0.004967749118804932
1761396973033764000,1.32376416015625,0.10714054107666016,0.029556751251220703,-0.029565870761871338
1761396973053141000,1.34314111328125,0.025259971618652344,0.05142354965209961,-0.03313809633255005
1761396973072518000,1.362517822265625,-0.026608943939208984,0.002850055694580078,-0.07496476173400879
1761396973091894800,1.381894775390625,-0.017142295837402344,0.014331817626953125,-0.08215367794036865
1761396973111271700,1.401271728515625,-0.0595850944519043,0.01479339599609375,0.09687995910644531
1761396973130648800,1.42064892578125,-0.11645841598510742,0.012781620025634766,0.0632506012916565
1761396973150025700,1.440025634765625,0.010901451110839844,-0.013880252838134766,-0.08935999870300293
1761396973169402600,1.459402587890625,0.07761669158935547,-0.013980865478515625,-0.10267198085784912
1761396973188779500,1.478779541015625,0.035077571868896484,0.03006744384765625,-0.04031801223754883
1761396973208156400,1.498156494140625,-0.14896774291992188,0.05672025680541992,-0.04069405794143677
1761396973227533300,1.517533203125,-0.16455554962158203,0.03142738342285156,-0.031799137592315674
1761396973246910500,1.536910400390625,0.005192756652832031,0.0033593177795410156,-0.10168921947479248
1761396973266287400,1.556287353515625,0.05103015899658203,0.008640766143798828,-0.003249049186706543
1761396973285664300,1.575664306640625,-0.07771492004394531,0.037265777587890625,0.09968602657318115
1761396973305041200,1.595041259765625,-0.17642450332641602,0.03583669662475586,0.0692179799079895
1761396973324418000,1.61441796875,-0.0723271369934082,0.01730203628540039,-0.00039058923721313477
1761396973343795000,1.633794921875,0.10587120056152344,0.0266571044921875,-0.13890767097473145
1761396973363171800,1.653171875,0.12411642074584961,0.04552507400512695,-0.027969837188720703
1761396973382548700,1.672548828125,0.08240842819213867,0.017472267150878906,0.016652822494506836
1761396973401925600,1.691925537109375,-0.13613319396972656,0.012291431427001953,-0.08475637435913086
1761396973421302800,1.711302734375,-0.061187744140625,-0.011504650115966797,-0.15654730796813965
1761396973440679700,1.7306796875,0.13392162322998047,0.0039691925048828125,-0.12692129611968994
1761396973460056600,1.750056640625,0.13456392288208008,0.0021491050720214844,0.05765944719314575
1761396973479433500,1.76943359375,0.09908103942871094,0.01315927505493164,0.12383711338043213
1761396973498810400,1.788810302734375,-0.0029888153076171875,-0.006432533264160156,0.055525779724121094
1761396973518187300,1.808187255859375,0.01765584945678711,0.007178306579589844,-0.07043492794036865
1761396973537564200,1.827564208984375,0.02837657928466797,-0.004090785980224609,-0.06862121820449829
1761396973556941000,1.846941162109375,0.1259899139404297,-0.02201700210571289,0.022334396839141846
1761396973576318200,1.866318115234375,0.2292466163635254,-0.03271150588989258,0.16326385736465454
1761396973595695000,1.885695068359375,0.22820615768432617,0.0005254745483398438,0.16028505563735962
1761396973615072000,1.905072021484375,-0.010191917419433594,0.033449649810791016,-0.1075935959815979
1761396973634449000,1.924448974609375,-0.14853334426879883,0.030006885528564453,-0.3036072850227356
1761396973653825800,1.94382568359375,-0.2650914192199707,0.04309797286987305,-0.30907368659973145
1761396973673202700,1.96320263671875,-0.09994983673095703,0.04118680953979492,-0.24495500326156616
1761396973692579600,1.98257958984375,-0.11724615097045898,0.027374744415283203,-0.08630561828613281
1761396973711956700,2.001956787109375,-0.17854976654052734,0.06422615051269531,0.03225135803222656
1761396973731333600,2.021333740234375,-0.1535506248474121,0.05167579650878906,0.11038839817047119
1761396973750710500,2.04071044921875,-0.21410465240478516,0.037161827087402344,0.04185831546783447
1761396973770087400,2.06008740234375,-0.15921497344970703,0.013625144958496094,-0.02455770969390869
1761396973789464300,2.07946435546875,-0.041339874267578125,0.040289878845214844,-0.040646255016326904
1761396973808841200,2.09884130859375,0.10552310943603516,0.03566598892211914,0.057106733322143555
1761396973828218000,2.118218017578125,0.12281322479248047,-0.00011682510375976562,0.03186291456222534
1761396973847595000,2.137594970703125,0.06027984619140625,-0.0010080337524414062,-0.06348621845245361
1761396973866972200,2.15697216796875,-0.0846858024597168,0.02584552764892578,-0.07649201154708862
1761396973886349000,2.17634912109375,-0.06738471984863281,0.031310081481933594,-0.016093671321868896
1761396973905726000,2.195725830078125,0.06167936325073242,-0.004596233367919922,0.003872811794281006
1761396973925102800,2.215102783203125,0.02340221405029297,-0.025119304656982422,0.07850700616836548
1761396973944479700,2.234479736328125,0.036106109619140625,-0.0004062652587890625,0.1202092170715332
1761396973963856600,2.253856689453125,0.02987957000732422,0.0472412109375,0.09178191423416138
1761396973983233500,2.273233642578125,-0.03364276885986328,0.05343770980834961,-0.10590779781341553
1761396974002610400,2.2926103515625,-0.04040098190307617,0.028949260711669922,-0.23534291982650757
1761396974021987600,2.311987548828125,-0.024130821228027344,0.03854703903198242,-0.22891008853912354
1761396974041364500,2.331364501953125,-0.1079874038696289,0.05463409423828125,-0.1685149073600769
1761396974060741400,2.350741455078125,0.0011882781982421875,0.01985311508178711,-0.15385645627975464
1761396974080118300,2.3701181640625,0.09061002731323242,0.0029239654541015625,-0.0671529769897461
1761396974099495200,2.3894951171875,0.11881685256958008,-0.02142953872680664,0.03574800491333008
1761396974118872000,2.4088720703125,0.1004023551940918,-0.02321338653564453,0.009622275829315186
1761396974138249000,2.4282490234375,-0.04771137237548828,-0.010899066925048828,0.0951417088508606
1761396974157625900,2.4476259765625,-0.10605812072753906,0.027183055877685547,0.11357444524765015
1761396974177003000,2.4670029296875,-0.06706428527832031,0.0008540153503417969,0.05019885301589966
1761396974196380000,2.4863798828125,0.07108402252197266,0.004551887512207031,-0.01560211181640625
1761396974215756800,2.5057568359375,0.08505535125732422,0.012212276458740234,-0.08847719430923462
1761396974235133700,2.5251337890625,-0.05899858474731445,0.037526607513427734,-0.07968699932098389
1761396974254510600,2.544510498046875,-0.06691741943359375,0.0441899299621582,-0.05047607421875
1761396974273887500,2.563887451171875,-0.07890701293945312,0.041855812072753906,-0.020415186882019043
1761396974293264400,2.583264404296875,-0.09483814239501953,0.0481257438659668,-0.05625271797180176
1761396974312641500,2.6026416015625,-0.017416000366210938,0.032906532287597656,-0.0874565839767456
1761396974332018400,2.622018310546875,0.0488128662109375,0.03243303298950195,-0.025189638137817383
1761396974351395300,2.641395263671875,-0.07706117630004883,0.05119752883911133,-0.044858336448669434
1761396974370772200,2.660772216796875,-0.11830854415893555,0.007456302642822266,-0.17156493663787842
1761396974390149000,2.680149169921875,-0.11456537246704102,0.00820016860961914,-0.1573905348777771
1761396974409526000,2.699526123046875,-0.0033626556396484375,0.02701425552368164,0.023224174976348877
1761396974428903000,2.71890283203125,0.06107378005981445,0.013067245483398438,0.016713261604309082
1761396974448279800,2.73827978515625,0.1028294563293457,0.0036153793334960938,-0.07941848039627075
1761396974467657000,2.757656982421875,0.1944599151611328,-0.004813194274902344,0.010298609733581543
1761396974487033900,2.777033935546875,0.11704301834106445,0.016040802001953125,0.020219504833221436
1761396974506410800,2.79641064453125,0.0665898323059082,0.005213737487792969,-0.01551133394241333
1761396974525787600,2.81578759765625,-0.034465789794921875,0.008661270141601562,-0.03775429725646973
1761396974545164500,2.83516455078125,-0.08348274230957031,0.00897216796875,-0.02832973003387451
1761396974564541400,2.85454150390625,-0.1001749038696289,0.006228446960449219,0.03217935562133789
1761396974583918300,2.87391845703125,-0.25441789627075195,0.03366374969482422,0.10556399822235107
1761396974603295200,2.893295166015625,-0.3484349250793457,0.05337667465209961,0.24635213613510132
1761396974622672400,2.91267236328125,-0.09897947311401367,0.06633424758911133,0.1478833556175232
1761396974642049300,2.93204931640625,0.12451887130737305,0.0589594841003418,-0.026637136936187744
1761396974661426200,2.95142626953125,0.3717331886291504,0.06831884384155273,-0.09693896770477295
1761396974680803000,2.970802978515625,0.4497346878051758,0.04135894775390625,-0.08033472299575806
1761396974700180000,2.990179931640625,0.15714693069458008,0.009072303771972656,-0.1777769923210144
1761396974719556900,3.009556884765625,-0.15069007873535156,-0.05115365982055664,-0.3140663206577301
1761396974738933800,3.028933837890625,-0.25107622146606445,-0.05775022506713867,-0.37677863240242004
1761396974758310700,3.048310546875,-0.17438697814941406,-0.013434886932373047,-0.17668917775154114
1761396974777687800,3.067687744140625,0.12537813186645508,-0.0019502639770507812,0.07530295848846436
1761396974797064700,3.087064697265625,0.3143782615661621,0.0073184967041015625,0.13541585206985474
1761396974816441600,3.106441650390625,0.24095726013183594,-0.023924827575683594,0.1442973017692566
1761396974835818500,3.125818603515625,-0.12703180313110352,0.004593849182128906,0.03856468200683594
1761396974855195400,3.1451953125,-0.26827096939086914,0.03271627426147461,-0.001174628734588623
1761396974874572300,3.164572265625,-0.32573413848876953,0.06464004516601562,-0.04951596260070801
1761396974893949200,3.18394921875,-0.09564542770385742,0.030866146087646484,-0.008691191673278809
1761396974913326300,3.203326416015625,0.002708911895751953,0.0526270866394043,-0.006731748580932617
1761396974932703200,3.222703125,0.051479339599609375,0.08190202713012695,-0.021669387817382812
1761396974952080100,3.242080078125,0.0340576171875,0.032796382904052734,-0.1167120635509491
1761396974971457000,3.26145703125,0.053154945373535156,0.013494014739990234,-0.25239360332489014
1761396974990834000,3.280833984375,0.09392166137695312,-0.011586666107177734,-0.16114774346351624
1761396975010210800,3.3002109375,-0.09680986404418945,0.03165864944458008,-0.06281834840774536
1761396975029587700,3.319587646484375,-0.2700800895690918,0.0516047477722168,-0.07918798923492432
1761396975048964600,3.338964599609375,-0.32379722595214844,0.05645895004272461,-0.1129138171672821
1761396975068341800,3.358341796875,0.01733112335205078,0.012997627258300781,-0.07397425174713135
1761396975087718700,3.37771875,0.2624678611755371,-0.005332469940185547,-0.008733987808227539
1761396975107095600,3.397095458984375,0.24242353439331055,-0.010262012481689453,0.16700565814971924
1761396975126472400,3.416472412109375,0.029262065887451172,-0.0021615028381347656,0.10026693344116211
1761396975145849300,3.435849365234375,-0.16996526718139648,-0.014441490173339844,-0.013864696025848389
1761396975165226200,3.455226318359375,-0.053093910217285156,-0.025295257568359375,-0.059704601764678955
1761396975184603100,3.47460302734375,0.03860044479370117,0.0014324188232421875,0.06940191984176636
1761396975203980000,3.49397998046875,0.013702869415283203,0.02032947540283203,0.08979564905166626
1761396975223357200,3.513357177734375,0.012807369232177734,0.007117271423339844,-0.016335904598236084
1761396975242734000,3.532734130859375,0.016106605529785156,-0.013004302978515625,0.036282360553741455
1761396975262111000,3.552111083984375,-0.04616069793701172,0.03460884094238281,0.046937644481658936
1761396975281488000,3.57148779296875,-0.19986581802368164,0.06061887741088867,0.012491405010223389
1761396975300864800,3.59086474609375,-0.11725854873657227,0.04970693588256836,-0.06394481658935547
1761396975320241700,3.61024169921875,0.10581779479980469,0.05999040603637695,-0.07823213934898376
1761396975339618600,3.62961865234375,0.05450725555419922,0.06079292297363281,-0.10410204529762268
1761396975358995500,3.648995361328125,0.022068023681640625,0.04236555099487305,-0.2023678421974182
1761396975378372400,3.668372314453125,0.03918313980102539,-0.01746225357055664,-0.15256240963935852
1761396975397749500,3.68774951171875,0.14908170700073242,-0.029526233673095703,-0.08244812488555908
1761396975417126400,3.70712646484375,0.19802379608154297,-0.03184938430786133,-0.03135833144187927
1761396975436503300,3.72650341796875,0.10838079452514648,-0.006661415100097656,-0.03021085262298584
1761396975455880200,3.745880126953125,-0.03077220916748047,0.012463092803955078,0.02145332098007202
1761396975475257000,3.765257080078125,-0.1395416259765625,0.017914295196533203,-0.0007967948913574219
1761396975494634000,3.784634033203125,-0.13744211196899414,0.028223037719726562,-0.029895037412643433
1761396975514011000,3.804010986328125,0.06036090850830078,0.025411128997802734,0.020160794258117676
1761396975533387800,3.8233876953125,0.11018085479736328,0.04409074783325195,-0.018371224403381348
1761396975552765000,3.842764892578125,0.09656000137329102,-0.00395965576171875,-0.08395940065383911
1761396975572141800,3.862141845703125,-0.05165863037109375,0.01780080795288086,-0.16901955008506775
1761396975591518700,3.881518798828125,-0.08196067810058594,0.015221595764160156,-0.12478631734848022
1761396975610895600,3.9008955078125,0.009070396423339844,0.00968027114868164,-0.027803897857666016
1761396975630272500,3.9202724609375,0.017589092254638672,0.02799510955810547,0.02807706594467163
1761396975649649400,3.9396494140625,0.0667414665222168,0.03463602066040039,-0.014783382415771484
1761396975669026300,3.9590263671875,0.03693437576293945,-0.0024466514587402344,0.028985202312469482
1761396975688403200,3.9784033203125,0.0019702911376953125,0.008505821228027344,0.05849558115005493
1761396975707780400,3.9977802734375,0.019020557403564453,0.018158435821533203,-0.005708873271942139
1761396975727157200,4.0171572265625,-0.04200553894042969,0.02742767333984375,-0.112813800573349
1761396975746534100,4.0365341796875,0.012887001037597656,-0.004771232604980469,-0.12453144788742065
1761396975765911000,4.0559111328125,0.11268281936645508,-0.02602386474609375,-0.14544284343719482
1761396975785288000,4.075287841796875,0.1029205322265625,-0.03696298599243164,-0.09004965424537659
1761396975804664800,4.094664794921875,-0.020351886749267578,0.007631778717041016,0.04162764549255371
1761396975824041700,4.114041748046875,-0.17758417129516602,0.03529500961303711,0.1315891146659851
1761396975843418600,4.133418701171875,-0.1818394660949707,0.0326542854309082,0.05947142839431763
1761396975862795800,4.152795654296875,-0.1699972152709961,0.044951438903808594,0.043462276458740234
1761396975882172700,4.172172607421875,-0.04063129425048828,0.06072378158569336,0.041502535343170166
1761396975901549600,4.191549560546875,0.03596305847167969,0.03170967102050781,-0.060129135847091675
1761396975920926500,4.210926513671875,0.08222532272338867,-0.0026407241821289062,-0.10830175876617432
1761396975940303400,4.230303466796875,0.009964466094970703,0.017765045166015625,-0.08958080410957336
1761396975959680300,4.24968017578125,0.02480316162109375,0.008230209350585938,-0.023008882999420166
1761396975979057200,4.26905712890625,0.06356954574584961,0.013139724731445312,-0.057969510555267334
1761396975998434300,4.288434326171875,0.09967231750488281,0.0156707763671875,0.015748977661132812
1761396976017811200,4.307811279296875,-0.06150007247924805,0.0034198760986328125,0.012674808502197266
1761396976037188000,4.32718798828125,-0.20621538162231445,0.02349710464477539,-0.08107045292854309
1761396976056565000,4.34656494140625,-0.19217252731323242,0.021368026733398438,-0.20301204919815063
1761396976075942000,4.36594189453125,0.07302331924438477,0.0024590492248535156,-0.0631718635559082
1761396976095318800,4.38531884765625,0.13281869888305664,0.0314183235168457,0.05746954679489136
1761396976114695700,4.40469580078125,0.1069340705871582,0.0020084381103515625,0.01507025957107544
1761396976134072600,4.424072509765625,0.05271196365356445,-0.016797542572021484,0.0025684237480163574
1761396976153449700,4.44344970703125,-0.09139823913574219,0.014655590057373047,0.0426861047744751
1761396976172826600,4.46282666015625,-0.14641332626342773,0.006585121154785156,0.014347195625305176
1761396976192203500,4.48220361328125,0.007422924041748047,0.011151313781738281,-0.007664501667022705
1761396976211580400,4.501580322265625,0.07442140579223633,0.013971328735351562,-0.04115325212478638
1761396976230957300,4.520957275390625,0.09761476516723633,0.012095451354980469,-0.16493600606918335
1761396976250334200,4.540334228515625,0.09744119644165039,0.018070220947265625,-0.15251535177230835
1761396976269711000,4.559711181640625,0.07145881652832031,0.03132200241088867,-0.10243624448776245
1761396976289088000,4.579087890625,-0.05518770217895508,0.03700876235961914,-0.030472934246063232
1761396976308561700,4.598561767578125,-0.06449079513549805,0.03408336639404297,-0.01605933904647827
1761396976327842000,4.617842041015625,-0.07981538772583008,0.028795242309570312,-0.054601967334747314
1761396976347219000,4.637218994140625,0.020827770233154297,0.006040096282958984,-0.03132045269012451
1761396976366595800,4.656595947265625,0.1873469352722168,-0.02784585952758789,0.01116025447845459
1761396976385972700,4.67597265625,0.05983448028564453,0.005967617034912109,0.0316128134727478
1761396976405349600,4.695349609375,-0.07846212387084961,0.012538909912109375,-0.008470356464385986
1761396976424726500,4.7147265625,-0.15666532516479492,-0.005778789520263672,-0.039622366428375244
1761396976444103400,4.734103515625,-0.03152799606323242,0.007434368133544922,-0.0003234744071960449
1761396976463480300,4.753480224609375,0.09097051620483398,0.01485443115234375,-0.02777242660522461
1761396976482857500,4.772857421875,0.09530305862426758,0.006909847259521484,-0.010746479034423828
1761396976502234400,4.792234375,-0.04773712158203125,0.025327682495117188,-0.015702486038208008
1761396976521611300,4.811611328125,-0.09660720825195312,0.04548454284667969,-0.08414167165756226
1761396976540988200,4.83098828125,0.06885576248168945,0.0003066062927246094,-0.1405981183052063
1761396976560365000,4.850364990234375,0.13292789459228516,0.005559444427490234,-0.08072075247764587
1761396976579742000,4.869741943359375,0.012900829315185547,0.025944232940673828,0.0066414475440979
1761396976599118800,4.889118896484375,-0.19417715072631836,0.019077301025390625,0.04656785726547241
1761396976618495700,4.908495849609375,-0.14741897583007812,0.021117687225341797,-0.0029604434967041016
1761396976637873000,4.927872802734375,0.0119781494140625,0.006985664367675781,-0.036054134368896484
1761396976657249800,4.947249755859375,0.06065988540649414,0.016270160675048828,-0.034839510917663574
1761396976676626700,4.966626708984375,0.07332372665405273,0.018218040466308594,-0.016442060470581055
1761396976696003600,4.986003662109375,0.023437023162841797,0.0010170936584472656,0.0059964656829833984
1761396976715380500,5.00538037109375,-0.032485008239746094,-0.0017247200012207031,-0.05276697874069214
1761396976734757400,5.02475732421875,-0.03526020050048828,-0.0011043548583984375,-0.08235180377960205
1761396976754134300,5.04413427734375,0.05865287780761719,0.008197784423828125,-0.04362285137176514
1761396976773511200,5.06351123046875,0.06420183181762695,0.0026655197143554688,-0.03536856174468994
1761396976792888300,5.082888427734375,0.012642383575439453,0.009819984436035156,-0.06570464372634888
1761396976812265200,5.10226513671875,0.025912761688232422,0.008534908294677734,-0.10010427236557007
1761396976831642000,5.12164208984375,0.05670356750488281,0.018336772918701172,-0.0481189489364624
1761396976851019000,5.14101904296875,0.040282249450683594,0.033208370208740234,0.02355778217315674
1761396976870396000,5.16039599609375,-0.05698060989379883,0.02485942840576172,0.03100210428237915
1761396976889772800,5.179772705078125,-0.09441900253295898,0.007089138031005859,-0.030233561992645264
1761396976909149700,5.199149658203125,-0.05647611618041992,-0.006951808929443359,-0.1017923355102539
1761396976928526600,5.218526611328125,0.05486297607421875,0.0031147003173828125,-0.06849437952041626
1761396976947903700,5.23790380859375,0.07083749771118164,0.01650094985961914,-0.02722477912902832
1761396976967280600,5.25728076171875,-0.09798765182495117,0.06418895721435547,0.00803595781326294
1761396976986657500,5.276657470703125,-0.1809520721435547,0.02524709701538086,0.050710976123809814
1761396977006034400,5.296034423828125,-0.0030832290649414062,-0.020222187042236328,0.07458227872848511
1761396977025411300,5.315411376953125,0.19202041625976562,-0.045256614685058594,0.0992882251739502
1761396977044788200,5.334788330078125,0.2014942169189453,-0.0038623809814453125,0.02998507022857666
1761396977064165000,5.3541650390625,0.08950471878051758,0.006276607513427734,-0.07001185417175293
1761396977083542000,5.3735419921875,-0.05737638473510742,0.01853322982788086,-0.10696965456008911
1761396977102919000,5.3929189453125,-0.11781454086303711,0.02085113525390625,-0.07189851999282837
1761396977122296000,5.412296142578125,-0.14773035049438477,0.028434276580810547,-0.02552241086959839
1761396977141673000,5.4316728515625,-0.1250152587890625,0.014525413513183594,0.009555816650390625
1761396977161049900,5.4510498046875,-0.11220884323120117,0.004919528961181641,-0.044707417488098145
1761396977180426800,5.4704267578125,-0.07487297058105469,-0.005470752716064453,-0.035928308963775635
1761396977199803600,5.4898037109375,0.02291393280029297,0.003942966461181641,0.0078067779541015625
1761396977219180500,5.5091806640625,0.08028841018676758,0.0015435218811035156,0.04327887296676636
1761396977238557400,5.528557373046875,-0.06026792526245117,0.010855674743652344,-0.06378865242004395
1761396977257934300,5.547934326171875,-0.039628028869628906,0.006931304931640625,-0.0897865891456604
1761396977277311500,5.5673115234375,0.08603525161743164,-0.008084774017333984,0.1299383044242859
1761396977296688400,5.5866884765625,0.1676316261291504,-0.012770652770996094,0.09857213497161865
1761396977316065300,5.606065185546875,0.08757448196411133,-0.033782005310058594,-0.06284886598587036
1761396977335442200,5.625442138671875,0.08968734741210938,-0.017921924591064453,-0.11425027251243591
1761396977354819000,5.644819091796875,0.15868759155273438,0.006287574768066406,-0.009118914604187012
1761396977374196000,5.664196044921875,0.07137823104858398,0.0684041976928711,0.024384737014770508
1761396977393572900,5.68357275390625,-0.051033973693847656,0.08919811248779297,-0.01758289337158203
1761396977412949800,5.70294970703125,-0.18206357955932617,0.0782022476196289,-0.2249324917793274
1761396977432327000,5.722326904296875,-0.19018983840942383,0.051755428314208984,-0.28297972679138184
1761396977451703800,5.741703857421875,0.013616085052490234,0.03597068786621094,-0.20566675066947937
1761396977471080700,5.761080810546875,0.19070005416870117,-0.02331399917602539,-0.09256678819656372
1761396977490457600,5.78045751953125,0.13130760192871094,-0.017116546630859375,0.010659635066986084
1761396977509834500,5.79983447265625,-0.08719825744628906,-0.003695964813232422,0.05004006624221802
1761396977529211400,5.81921142578125,-0.18433046340942383,-0.021161556243896484,0.10410428047180176
1761396977548588300,5.83858837890625,-0.10358715057373047,-0.030124664306640625,0.13383734226226807
1761396977567965200,5.857965087890625,0.0036101341247558594,-0.002895832061767578,0.19997119903564453
1761396977587342300,5.87734228515625,-0.006839752197265625,0.00937795639038086,0.1351373791694641
1761396977606719200,5.89671923828125,-0.09161615371704102,0.02022409439086914,0.006396472454071045
1761396977626096000,5.91609619140625,0.004965782165527344,-0.0037822723388671875,-0.08668094873428345
1761396977645473000,5.93547314453125,0.030883312225341797,0.036493778228759766,-0.13992074131965637
1761396977664850000,5.954849853515625,0.08568382263183594,0.017713069915771484,-0.1699312925338745
1761396977684226800,5.974226806640625,0.2158951759338379,-0.009027957916259766,-0.23434394598007202
1761396977703603700,5.993603759765625,0.18552875518798828,0.025844573974609375,-0.1946401596069336
1761396977722980600,6.012980712890625,0.014697074890136719,0.03521585464477539,-0.13806021213531494
1761396977742357500,6.032357421875,-0.11789178848266602,0.021016597747802734,-0.12923294305801392
1761396977761734700,6.051734619140625,0.11845254898071289,0.013988494873046875,0.08125364780426025
1761396977781111600,6.071111572265625,0.25719499588012695,0.062032222747802734,0.05239838361740112
1761396977800488400,6.090488525390625,0.2772798538208008,0.00930929183959961,-0.12365877628326416
1761396977819865300,6.109865234375,0.09382820129394531,0.0066928863525390625,-0.33122894167900085
1761396977839242200,6.1292421875,0.0542149543762207,0.0334930419921875,-0.42311522364616394
1761396977858619100,6.148619140625,0.010241031646728516,0.04052019119262695,-0.19192039966583252
1761396977877996000,6.16799609375,0.04152393341064453,0.022830963134765625,-0.07611900568008423
1761396977897373000,6.187373046875,-0.32621192932128906,0.035292625427246094,0.05898642539978027
1761396977916750000,6.20675,-0.6529498100280762,0.07618236541748047,0.33371639251708984
1761396977936127000,6.226126953125,-0.5661792755126953,0.10565471649169922,0.31804269552230835
1761396977955503900,6.24550390625,-0.21073246002197266,-0.02041006088256836,0.11780035495758057
1761396977974880800,6.264880859375,0.09494352340698242,-0.13634252548217773,-0.027479946613311768
1761396977994257700,6.284257568359375,0.5090179443359375,-0.2637624740600586,0.0931321382522583
1761396978013634600,6.303634521484375,0.5309414863586426,-0.22845840454101562,0.3103570342063904
1761396978033011500,6.323011474609375,0.2671647071838379,-0.029065608978271484,0.4524136185646057
1761396978052388400,6.342388427734375,-0.09393835067749023,0.11317634582519531,0.4556305408477783
1761396978071765200,6.36176513671875,-0.43027687072753906,0.14776229858398438,0.07038730382919312
1761396978091142100,6.38114208984375,-0.5617074966430664,0.13566160202026367,-0.27967435121536255
1761396978110519300,6.400519287109375,-0.3019108772277832,0.07814788818359375,-0.30833345651626587
1761396978129896200,6.419896240234375,0.06302595138549805,-0.014488697052001953,-0.06268483400344849
1761396978149273000,6.439273193359375,0.2752203941345215,-0.06367826461791992,-0.008122384548187256
1761396978168650000,6.45864990234375,0.3155026435852051,-0.07251834869384766,0.01805710792541504
1761396978188027000,6.47802685546875,0.40836095809936523,-0.09149599075317383,0.09481889009475708
1761396978207403800,6.49740380859375,0.15534114837646484,-0.10751533508300781,0.042965471744537354
1761396978226780700,6.51678076171875,-0.18924522399902344,-0.06279563903808594,0.10862034559249878
1761396978246157600,6.536157470703125,-0.2819538116455078,0.03734016418457031,0.24858564138412476
1761396978265534700,6.55553466796875,-0.28906822204589844,0.0686960220336914,0.18357950448989868
1761396978284911600,6.57491162109375,-0.1704854965209961,0.03924989700317383,-0.14524155855178833
1761396978304288500,6.59428857421875,0.12394523620605469,0.052887916564941406,-0.5171300172805786
1761396978323665400,6.61366552734375,0.1220560073852539,0.09570550918579102,-0.3622733950614929
1761396978343042300,6.633042236328125,0.09076881408691406,0.1337127685546875,-0.238772451877594
1761396978362419200,6.652419189453125,-0.07831335067749023,0.10077381134033203,-0.29797956347465515
1761396978381796000,6.671796142578125,0.10193967819213867,0.012734413146972656,-0.4753926396369934
1761396978401173000,6.691173095703125,0.28798341751098633,-0.03625059127807617,-0.2630442976951599
1761396978420550100,6.710550048828125,0.1300039291381836,-0.023189067840576172,0.12929034233093262
1761396978439927000,6.729927001953125,-0.26172542572021484,0.02895975112915039,0.33696597814559937
1761396978459304000,6.749303955078125,-0.36133718490600586,0.029463768005371094,0.35480302572250366
1761396978478680800,6.768680908203125,-0.15791893005371094,0.015354156494140625,0.15916866064071655
1761396978498057700,6.7880576171875,0.07682418823242188,0.059814453125,-0.11847132444381714
1761396978517434600,6.8074345703125,0.07035398483276367,0.08390665054321289,-0.20958295464515686
1761396978536811500,6.8268115234375,-0.07316160202026367,0.0839700698852539,-0.19741308689117432
1761396978556188400,6.8461884765625,-0.019514083862304688,0.04091596603393555,-0.3736780881881714
1761396978575565600,6.865565673828125,0.2376565933227539,-0.04062938690185547,-0.4642917513847351
1761396978594942500,6.8849423828125,0.4498567581176758,-0.12632989883422852,-0.20464754104614258
1761396978614319400,6.9043193359375,0.23376989364624023,-0.09741401672363281,0.14840102195739746
1761396978633696300,6.9236962890625,-0.17543745040893555,-0.05533599853515625,0.4644065499305725
1761396978653073200,6.9430732421875,-0.40941524505615234,-0.040128231048583984,0.6362490057945251
1761396978672450000,6.962449951171875,-0.44169092178344727,-0.03105640411376953,0.6167218685150146
1761396978691827000,6.981826904296875,-0.35316991806030273,-0.009034156799316406,0.34501516819000244
1761396978711203800,7.001203857421875,0.03775453567504883,0.06668329238891602,0.040567219257354736
1761396978730580700,7.020580810546875,0.08047246932983398,0.1642313003540039,-0.24290454387664795
1761396978749958000,7.0399580078125,0.10020971298217773,0.10632896423339844,-0.5853593349456787
1761396978769334800,7.059334716796875,0.26461124420166016,0.03217363357543945,-0.8535671234130859
1761396978788711700,7.078711669921875,0.3905510902404785,-0.01006174087524414,-0.5939643383026123
1761396978808088600,7.098088623046875,0.5203595161437988,-0.07551717758178711,-0.1753583550453186
1761396978827465500,7.117465576171875,0.06515073776245117,-0.050653934478759766,0.11540353298187256
1761396978846842400,7.13684228515625,-0.2808194160461426,-0.0026254653930664062,0.4500250816345215
1761396978866219300,7.15621923828125,-0.4206242561340332,-0.010245323181152344,0.6337299942970276
1761396978885596200,7.17559619140625,-0.3221311569213867,-0.05006885528564453,0.4211943745613098
1761396978904973300,7.194973388671875,-0.2259058952331543,-0.04596710205078125,0.11621731519699097
1761396978924350200,7.21435009765625,0.03850269317626953,0.033238887786865234,-0.023103952407836914
1761396978943727000,7.23372705078125,0.2825460433959961,0.12099838256835938,-0.15785163640975952
1761396978963104000,7.25310400390625,0.34383201599121094,0.116546630859375,-0.41821742057800293
1761396978982481000,7.27248095703125,0.0552978515625,0.03388404846191406,-0.5002873539924622
1761396979001857800,7.29185791015625,-0.18425750732421875,-0.04442167282104492,-0.21509116888046265
1761396979021234700,7.311234619140625,-0.17686700820922852,-0.05334949493408203,0.1807788610458374
1761396979040611600,7.330611572265625,-0.13880681991577148,-0.034992218017578125,0.4373818635940552
1761396979059988700,7.34998876953125,-0.07500982284545898,-0.01000356674194336,0.4731280207633972
1761396979079365600,7.36936572265625,0.12690210342407227,0.026133060455322266,0.2348862886428833
1761396979098742500,7.388742431640625,0.1729426383972168,0.018416404724121094,-0.003576219081878662
1761396979118119400,7.408119384765625,-0.07216119766235352,0.018895626068115234,-0.1550387740135193
1761396979137496300,7.427496337890625,-0.28148746490478516,0.05497121810913086,-0.21291613578796387
1761396979156873200,7.446873291015625,-0.15204429626464844,0.06876516342163086,-0.06499111652374268
1761396979176250000,7.46625,0.15082168579101562,0.07196187973022461,-0.03193071484565735
1761396979195627000,7.485626953125,0.36300134658813477,0.030680179595947266,-0.25170987844467163
1761396979215004000,7.50500390625,0.48941707611083984,-0.05454063415527344,-0.5343779921531677
1761396979234380800,7.524380859375,0.40960693359375,-0.11218070983886719,-0.5473490953445435
1761396979253758000,7.543758056640625,0.10953378677368164,-0.12456846237182617,-0.2629231810569763
1761396979273134800,7.563134765625,-0.03652763366699219,-0.10351800918579102,0.0760238766670227
1761396979292511700,7.58251171875,-0.16631078720092773,-0.05764055252075195,0.48479917645454407
1761396979311888600,7.601888671875,-0.40160465240478516,0.0041255950927734375,0.7239207029342651
1761396979331265500,7.621265625,-0.46769285202026367,0.03032684326171875,0.4131893813610077
1761396979350642400,7.640642333984375,-0.052767276763916016,-0.0020952224731445312,-0.026151061058044434
1761396979370019300,7.660019287109375,0.22453022003173828,-0.0012841224670410156,-0.15952757000923157
1761396979389396200,7.679396240234375,0.10206031799316406,0.10125970840454102,-0.22883740067481995
1761396979408773400,7.6987734375,0.005822658538818359,0.10147619247436523,-0.2482030689716339
1761396979428150300,7.718150390625,-0.008835792541503906,0.10561990737915039,-0.310883104801178
1761396979447527200,7.737527099609375,-0.00929117202758789,0.05555915832519531,-0.2984532117843628
1761396979466904000,7.756904052734375,-0.013115882873535156,0.05610466003417969,-0.16102594137191772
1761396979486281000,7.776281005859375,0.1287221908569336,0.04445362091064453,-0.050752729177474976
1761396979505657900,7.795657958984375,0.20208120346069336,-0.023150920867919922,-0.15074506402015686
1761396979525034800,7.81503466796875,0.2251567840576172,-0.09488439559936523,-0.06934866309165955
1761396979544411600,7.83441162109375,0.006320953369140625,-0.038842201232910156,0.1751035749912262
1761396979563788800,7.853788818359375,-0.09492158889770508,0.020835399627685547,0.27216029167175293
1761396979583165700,7.873165771484375,-0.03838825225830078,0.007912635803222656,0.058657318353652954
1761396979602542600,7.89254248046875,0.09493446350097656,-0.03957033157348633,-0.02888360619544983
1761396979621919500,7.91191943359375,0.03825044631958008,0.018996715545654297,-0.02152922749519348
1761396979641296400,7.93129638671875,-0.2149496078491211,0.011387348175048828,0.0034251809120178223
1761396979660673300,7.95067333984375,-0.10237836837768555,-0.015953540802001953,-0.06814628839492798
1761396979680050200,7.97005029296875,0.045163631439208984,-0.037421226501464844,-0.16713866591453552
1761396979699427000,7.989427001953125,0.08869504928588867,0.005162239074707031,0.0050830841064453125
1761396979718804000,8.008803955078125,0.006819725036621094,0.024816513061523438,0.14489108324050903
1761396979738181000,8.02818115234375,-0.1041116714477539,-0.016712188720703125,0.09026479721069336
1761396979757558000,8.04755810546875,-0.29504966735839844,0.004293918609619141,0.08901780843734741
1761396979776935000,8.066934814453125,-0.24550247192382812,0.09594202041625977,0.15430179238319397
1761396979796311800,8.086311767578126,-0.0530400276184082,0.09526205062866211,-0.06183844804763794
1761396979815688700,8.105688720703125,0.17083263397216797,0.06174659729003906,-0.2484627515077591
1761396979835065600,8.125065673828125,0.20831680297851562,-0.01555013656616211,-0.23816901445388794
1761396979854442500,8.1444423828125,0.15414953231811523,-0.0338749885559082,-0.28444141149520874
1761396979873819400,8.1638193359375,0.1739821434020996,-0.0381159782409668,-0.11400830745697021
1761396979893196500,8.183196533203125,0.23351001739501953,-0.04375791549682617,0.1785527467727661
1761396979912573400,8.202573486328125,-0.08159112930297852,0.006041526794433594,0.2593770921230316
1761396979931950300,8.221950439453124,-0.2680206298828125,0.03156757354736328,0.25024086236953735
1761396979951327200,8.2413271484375,-0.31110715866088867,0.0612177848815918,0.10961124300956726
1761396979970704100,8.2607041015625,-0.06671905517578125,0.04257678985595703,0.0283544659614563
1761396979990081000,8.2800810546875,0.0721135139465332,-0.010921955108642578,0.026665180921554565
1761396980009458000,8.2994580078125,0.1402297019958496,-0.06674528121948242,0.12959283590316772
1761396980028834800,8.318834716796875,0.23288726806640625,-0.10925960540771484,-0.01954510807991028
1761396980048211700,8.338211669921876,0.48985910415649414,-0.13560152053833008,-0.37244516611099243
1761396980067588600,8.357588623046874,0.5952820777893066,-0.12479496002197266,-0.49588096141815186
1761396980086965800,8.3769658203125,0.31535768508911133,-0.06486749649047852,-0.28314000368118286
1761396980106342700,8.3963427734375,-0.2660536766052246,0.016498088836669922,-0.06402593851089478
1761396980125719600,8.415719482421874,-0.535285472869873,0.09738492965698242,0.027198821306228638
1761396980145096400,8.435096435546875,-0.5454773902893066,0.08128833770751953,0.12312084436416626
1761396980164473300,8.454473388671875,-0.42656660079956055,0.04991483688354492,0.1286669671535492
1761396980183850200,8.473850341796876,-0.2219252586364746,0.0801548957824707,0.29948633909225464
1761396980203227100,8.49322705078125,0.06598424911499023,0.0882558822631836,0.27421215176582336
1761396980222604000,8.51260400390625,0.2459397315979004,0.010883808135986328,-0.11898660659790039
1761396980241981200,8.531981201171876,0.26755762100219727,-0.0035467147827148438,-0.37654173374176025
1761396980261358000,8.551358154296874,0.24218511581420898,0.037581443786621094,-0.3080558776855469
1761396980280735000,8.57073486328125,-0.013246536254882812,0.09713602066040039,-0.2904950678348541
1761396980300112000,8.59011181640625,-0.04105854034423828,0.1216421127319336,-0.0918692946434021
1761396980319488800,8.60948876953125,0.025834083557128906,0.12586688995361328,0.04003646969795227
1761396980338865700,8.62886572265625,-0.1572399139404297,0.11685991287231445,-0.1580834984779358
1761396980358242600,8.64824267578125,-0.30768394470214844,0.10994672775268555,-0.427285760641098
1761396980377619500,8.667619384765626,0.022636890411376953,0.02028512954711914,-0.363487184047699
1761396980396996600,8.68699658203125,0.29381322860717773,-0.0972142219543457,-0.23780253529548645
1761396980416373500,8.70637353515625,0.35982179641723633,-0.14900541305541992,0.012754678726196289
1761396980435750400,8.72575048828125,0.37644147872924805,-0.1554560661315918,0.33604979515075684
1761396980455127300,8.745127197265624,0.08662271499633789,-0.13909339904785156,0.5030438303947449
1761396980474504200,8.764504150390625,-0.08371400833129883,-0.1361560821533203,0.3762274384498596
1761396980493881000,8.783881103515625,-0.11262321472167969,-0.07952165603637695,0.2193676233291626
1761396980513258000,8.803258056640624,-0.26806163787841797,0.02807474136352539,0.3592996597290039
1761396980532635000,8.822634765625,-0.2916860580444336,0.0882720947265625,0.3224913477897644
1761396980552011800,8.84201171875,-0.2811155319213867,0.04509305953979492,0.0255318284034729
1761396980571389000,8.861388916015626,-0.11303329467773438,-0.011572837829589844,0.10236769914627075
1761396980590765800,8.880765869140625,0.2127208709716797,-0.07416820526123047,0.09965741634368896
1761396980610142700,8.900142822265625,0.3317704200744629,-0.07762384414672852,-0.04157227277755737
1761396980629519600,8.91951953125,0.17458009719848633,-0.017419815063476562,0.011608302593231201
1761396980648896500,8.938896484375,-0.08862066268920898,0.050737857818603516,0.06511437892913818
1761396980668273400,8.9582734375,-0.25565147399902344,0.07471799850463867,-0.019961535930633545
1761396980687650300,8.977650390625,-0.2205820083618164,0.09932231903076172,-0.06655284762382507
1761396980707027200,8.997027099609374,-0.0927886962890625,0.09999322891235352,-0.14803647994995117
1761396980726404000,9.016404052734375,-0.1580495834350586,0.11854171752929688,-0.25221705436706543
1761396980745781200,9.03578125,0.036490440368652344,0.07293510437011719,-0.48698776960372925
1761396980765158100,9.055158203125,0.22485065460205078,-0.011590003967285156,-0.5619450211524963
1761396980784535000,9.07453515625,0.2833251953125,-0.023744583129882812,-0.4014679193496704
1761396980803912000,9.093911865234375,0.23630523681640625,-0.008427143096923828,-0.14611679315567017
1761396980823288800,9.113288818359376,0.19944000244140625,-0.02051067352294922,-0.05502858757972717
1761396980842665700,9.132665771484374,-0.03381061553955078,-0.014735221862792969,-0.008138597011566162
1761396980862042600,9.152042724609375,-0.09064722061157227,-0.009323596954345703,0.0011578202247619629
1761396980881419500,9.17141943359375,-0.09908914566040039,0.017560958862304688,-0.06396540999412537
1761396980900796400,9.19079638671875,0.005168437957763672,-0.01107025146484375,-0.019839465618133545
1761396980920173600,9.210173583984375,0.15566730499267578,-0.04205179214477539,0.012326300144195557
1761396980939550500,9.229550537109375,0.10796642303466797,-0.03968954086303711,0.032922983169555664
1761396980958927400,9.24892724609375,0.003757476806640625,-0.04333925247192383,0.09771841764450073
1761396980978304300,9.26830419921875,-0.10482311248779297,-0.0013246536254882812,0.167253315448761
1761396980997681200,9.28768115234375,-0.11313867568969727,0.013379096984863281,0.16285622119903564
1761396981017058000,9.30705810546875,-0.03044748306274414,0.01647472381591797,0.16071641445159912
1761396981036435000,9.32643505859375,-0.09596633911132812,0.01758575439453125,0.19337278604507446
1761396981055811800,9.345811767578125,-0.12320280075073242,0.014310836791992188,0.12093532085418701
1761396981075189000,9.36518896484375,-0.38905811309814453,0.07678413391113281,0.1203458309173584
1761396981094566000,9.38456591796875,-0.46273231506347656,0.045778751373291016,0.3842124938964844
1761396981113942800,9.40394287109375,-0.31617307662963867,0.09094715118408203,0.47750288248062134
1761396981133319700,9.423319580078125,0.017414569854736328,-0.025115966796875,0.32698529958724976
1761396981152696600,9.442696533203126,0.10739564895629883,0.011655807495117188,-0.28150486946105957
1761396981172073500,9.462073486328125,0.6218271255493164,-0.0833597183227539,-0.39583349227905273
1761396981191450400,9.481450439453125,0.6742644309997559,-0.012621402740478516,-0.4036777913570404
1761396981210827300,9.5008271484375,0.2789888381958008,-0.002144336700439453,-0.5688600540161133
1761396981230204400,9.520204345703124,-0.010266304016113281,-0.014258384704589844,-0.3866051733493805
1761396981249581300,9.539581298828125,0.04497051239013672,-0.050963401794433594,-0.15544182062149048
1761396981268958200,9.558958251953126,0.050713539123535156,-0.05457448959350586,0.025289177894592285
1761396981288335000,9.578335205078124,-0.053994178771972656,0.00956106185913086,0.23020410537719727
1761396981307712000,9.5977119140625,-0.08597087860107422,-0.00009059906005859375,0.2701568007469177
1761396981327089000,9.6170888671875,-0.21647071838378906,0.0054187774658203125,0.03049945831298828
1761396981346465800,9.6364658203125,-0.22485113143920898,0.00460052490234375,-0.10184276103973389
1761396981365842700,9.6558427734375,-0.07664012908935547,0.04860401153564453,-0.07339924573898315
1761396981385219800,9.6752197265625,0.12027597427368164,0.011153221130371094,0.006461977958679199
1761396981404596500,9.694596435546876,0.14229154586791992,0.004668235778808594,0.04436272382736206
1761396981423973600,9.7139736328125,-0.02322244644165039,-0.022377490997314453,0.014180302619934082
1761396981443350500,9.7333505859375,0.03265953063964844,-0.034712791442871094,0.013437986373901367
1761396981462727400,9.7527275390625,0.010422229766845703,0.019735336303710938,0.052215576171875
1761396981482104300,9.772104248046874,-0.08795928955078125,0.03182411193847656,0.11652082204818726
1761396981501481200,9.791481201171875,-0.010508060455322266,-0.03243827819824219,-0.14031004905700684
1761396981520858000,9.810858154296875,0.07925081253051758,-0.0529179573059082,-0.27997270226478577
1761396981540235000,9.830235107421874,0.09172344207763672,0.007892608642578125,-0.14860200881958008
1761396981559612000,9.84961181640625,-0.027159690856933594,0.05600309371948242,0.06768554449081421
1761396981578989000,9.868989013671875,-0.03985404968261719,0.036249637603759766,0.16498780250549316
1761396981598366000,9.888365966796876,-0.11068439483642578,0.00965261459350586,0.04739105701446533
1761396981617742800,9.907742919921875,-0.03165626525878906,0.010064125061035156,-0.04116243124008179
1761396981637119700,9.92711962890625,0.0982203483581543,0.012515544891357422,-0.03844481706619263
1761396981656496600,9.94649658203125,0.11548423767089844,-0.011337757110595703,-0.07287639379501343
1761396981675873500,9.96587353515625,-0.004535198211669922,-0.014949321746826172,-0.042006850242614746
1761396981695250400,9.98525048828125,-0.10192632675170898,0.012340545654296875,-0.016489624977111816
1761396981714627300,10.00462744140625,0.0462498664855957,0.0002994537353515625,0.038676679134368896
1761396981734004200,10.024004150390626,0.1792459487915039,-0.024272441864013672,0.043849289417266846
1761396981753381400,10.04338134765625,-0.07139825820922852,0.005374431610107422,-0.01639401912689209
1761396981772758300,10.06275830078125,-0.19663333892822266,-0.01175546646118164,-0.03790014982223511
1761396981792135200,10.08213525390625,-0.026438236236572266,-0.023587703704833984,-0.005901634693145752
1761396981811512000,10.101511962890624,0.19493913650512695,-0.025235652923583984,0.16263407468795776
1761396981830889000,10.120888916015625,0.03403902053833008,0.03930854797363281,0.03833901882171631
1761396981850265900,10.140265869140626,-0.23659181594848633,0.017264842987060547,-0.08386766910552979
1761396981869642800,10.159642822265624,-0.20564746856689453,0.05253267288208008,-0.13732999563217163
1761396981889019600,10.17901953125,-0.029729366302490234,0.03217458724975586,-0.08630579710006714
1761396981908396800,10.198396728515625,0.2302532196044922,0.0195159912109375,0.04731506109237671
1761396981927773700,10.217773681640624,0.32463836669921875,-0.007706165313720703,0.12502890825271606
1761396981947150600,10.237150634765625,0.2361164093017578,-0.022747039794921875,-0.020863115787506104
1761396981966527500,10.256527587890625,-0.004038333892822266,-0.025166034698486328,-0.16204392910003662
1761396981985904400,10.275904296875,-0.12639284133911133,0.004294395446777344,-0.1490141749382019
1761396982005281300,10.29528125,-0.156158447265625,0.021066665649414062,-0.10294884443283081
1761396982024658200,10.314658203125,-0.14152097702026367,0.02454853057861328,0.044141173362731934
1761396982044035000,10.33403515625,-0.1507859230041504,0.015529155731201172,0.10277503728866577
1761396982063412200,10.353412109375,0.04953765869140625,-0.03296470642089844,0.1664448380470276
1761396982082788900,10.372788818359375,0.1622295379638672,-0.020695209503173828,0.13849544525146484
1761396982102166000,10.392166015625,0.10312128067016602,-0.020786285400390625,0.010356247425079346
1761396982121543000,10.41154296875,-0.044376373291015625,-0.01143026351928711,-0.11181926727294922
1761396982140919800,10.430919921875,-0.0003571510314941406,-0.012438774108886719,-0.21000364422798157
1761396982160296700,10.450296630859375,0.10152244567871094,-0.015784263610839844,-0.12260013818740845
1761396982179673600,10.469673583984376,0.05128622055053711,0.049254417419433594,0.1008111834526062
1761396982199050500,10.489050537109375,-0.12888860702514648,0.05015277862548828,0.09376746416091919
1761396982218427400,10.508427490234375,-0.14656925201416016,-0.006363868713378906,-0.011982619762420654
1761396982237804300,10.52780419921875,0.06806325912475586,-0.011385917663574219,-0.09734112024307251
1761396982257181400,10.547181396484374,0.1527247428894043,0.028299331665039062,-0.10376995801925659
1761396982276558300,10.566558349609375,0.0837712287902832,0.03286886215209961,-0.05481785535812378
1761396982295935200,10.585935302734375,-0.026109695434570312,-0.011419296264648438,-0.11487430334091187
1761396982315312000,10.60531201171875,-0.1030416488647461,-0.02630901336669922,-0.0901118814945221
1761396982334689000,10.62468896484375,-0.04734516143798828,0.006004810333251953,0.16308915615081787
1761396982354066000,10.64406591796875,0.040313720703125,-0.006326198577880859,0.09767395257949829
1761396982373442800,10.66344287109375,0.03832387924194336,-0.022546768188476562,-0.04251444339752197
1761396982392819700,10.68281982421875,0.02496337890625,-0.013917922973632812,-0.01189643144607544
1761396982412196900,10.70219677734375,-0.019956111907958984,0.008055686950683594,-0.021605074405670166
1761396982450950700,10.74095068359375,0.051366329193115234,0.0011515617370605469,0.04487186670303345
1761396982470327600,10.76032763671875,-0.0377354621887207,-0.024009227752685547,-0.12556785345077515
1761396982489704400,10.779704345703125,-0.02923440933227539,-0.012637615203857422,-0.030328869819641113
1761396982509081300,10.799081298828124,-0.039043426513671875,0.017124652862548828,0.056793272495269775
1761396982528458200,10.818458251953125,-0.08590078353881836,0.04742622375488281,0.041078031063079834
1761396982547835100,10.837835205078125,-0.10575532913208008,0.06180620193481445,0.0012851953506469727
1761396982567212300,10.85721240234375,0.11624574661254883,0.0013895034790039062,-0.051791489124298096
1761396982586589200,10.876589111328125,0.23307371139526367,-0.002617359161376953,0.016070008277893066
1761396982605966000,10.895966064453125,0.12723827362060547,-0.026611804962158203,-0.08414912223815918
1761396982625343000,10.915343017578126,-0.07048177719116211,-0.015072345733642578,-0.1855030059814453
1761396982644719900,10.934719970703124,-0.08541440963745117,0.0022735595703125,-0.01189124584197998
1761396982664096800,10.9540966796875,0.024276256561279297,0.036464691162109375,0.0522114634513855
1761396982683473700,10.9734736328125,0.004870891571044922,0.0010695457458496094,-0.007561028003692627
1761396982702850600,10.9928505859375,0.07902050018310547,-0.025557518005371094,-0.024787604808807373
1761396982722227500,11.0122275390625,-0.03729534149169922,-0.006503105163574219,0.10630267858505249
1761396982741604400,11.031604248046875,-0.014842033386230469,-0.012618064880371094,-0.06601142883300781
1761396982760981500,11.0509814453125,0.008209705352783203,-0.014843463897705078,-0.08990487456321716
1761396982780358400,11.0703583984375,0.02988433837890625,0.013002872467041016,0.06677013635635376
1761396982799735300,11.0897353515625,-0.08133172988891602,0.0015940666198730469,0.13013571500778198
1761396982819112200,11.1091123046875,0.0031957626342773438,-0.02544260025024414,0.0037903785705566406
1761396982838489000,11.128489013671874,0.05597400665283203,0.0033512115478515625,-0.05035591125488281
1761396982857866000,11.147865966796875,0.13690900802612305,-0.007028102874755859,-0.07630297541618347
1761396982877243000,11.167242919921875,0.029578685760498047,0.004082679748535156,-0.10455197095870972
1761396982896619800,11.186619873046874,-0.012782096862792969,0.028333187103271484,-0.08854430913925171
1761396982915996700,11.20599658203125,0.0015888214111328125,0.025942325592041016,-0.06452065706253052
1761396982935373800,11.225373779296875,-0.003223896026611328,0.019884109497070312,0.003480195999145508
1761396982954750700,11.244750732421876,-0.0102996826171875,-0.007635593414306641,0.04783397912979126
1761396982974127600,11.264127685546875,-0.10874509811401367,0.0005626678466796875,0.05301320552825928
1761396982993504500,11.28350439453125,-0.09322118759155273,0.0034961700439453125,-0.0017161965370178223
1761396983012881400,11.30288134765625,0.1184077262878418,-0.0022454261779785156,0.04754215478897095
1761396983032258300,11.32225830078125,0.14835500717163086,-0.010972023010253906,0.045854806900024414
1761396983051635200,11.34163525390625,-0.01949930191040039,-0.024376392364501953,-0.05377089977264404
1761396983071012000,11.36101220703125,-0.1291956901550293,0.014960765838623047,-0.08074593544006348
1761396983090389200,11.38038916015625,-0.08244609832763672,-0.0024590492248535156,0.01512998342514038
1761396983109766100,11.39976611328125,0.15245771408081055,-0.007964134216308594,-0.07031381130218506
1761396983129143000,11.41914306640625,0.14227867126464844,-0.019870281219482422,-0.01812434196472168
1761396983148520000,11.43852001953125,0.11973762512207031,-0.05314445495605469,0.013158559799194336
1761396983167896800,11.457896728515625,0.13465452194213867,-0.10654115676879883,0.2895772457122803
1761396983187273700,11.477273681640625,0.0059680938720703125,0.0007572174072265625,0.37075275182724
1761396983206650600,11.496650634765626,-0.1060791015625,-0.03138589859008789,0.17585867643356323
1761396983226027500,11.516027587890624,0.09964895248413086,-0.012752056121826172,0.0730324387550354
1761396983245404700,11.53540478515625,-0.2735481262207031,-0.059436798095703125,0.06409692764282227
1761396983264781600,11.554781494140625,-0.13221359252929688,0.3124575614929199,-0.0759044885635376
1761396983284158500,11.574158447265624,-0.4189629554748535,-0.28809404373168945,0.03687375783920288
1761396983303535400,11.593535400390625,-0.5584225654602051,0.6090950965881348,-0.6393570899963379
1761396983322912300,11.612912353515625,-0.7445063591003418,0.7721381187438965,-1.407036542892456
1761396983342289200,11.6322890625,-0.2745938301086426,-1.0320630073547363,0.49745309352874756
1761396983361666000,11.651666015625,0.5716829299926758,0.049767494201660156,0.2595279812812805
1761396983381043000,11.67104296875,0.812563419342041,0.18035221099853516,-0.008412569761276245
1761396983400420000,11.690420166015626,0.8479995727539062,-0.16826200485229492,-0.05008736252784729
1761396983419796700,11.709796630859374,0.34165287017822266,-0.11702108383178711,-0.09425874054431915
1761396983439174000,11.729173828125,-0.26409387588500977,-0.05356597900390625,-0.17087998986244202
1761396983458550800,11.74855078125,-0.3571352958679199,-0.0017704963684082031,0.17285984754562378
1761396983477927700,11.767927734375,-0.17531728744506836,-0.0014619827270507812,0.45154869556427
1761396983497304600,11.7873046875,0.26376867294311523,-0.15276002883911133,0.23501598834991455
1761396983516681500,11.806681396484375,0.24947118759155273,0.01651906967163086,0.21431562304496765
1761396983536058400,11.826058349609376,0.27637434005737305,0.07391834259033203,0.09178438782691956
1761396983555435300,11.845435302734375,0.25849246978759766,0.0796823501586914,-0.385850727558136
1761396983574812200,11.864812255859375,0.10918951034545898,0.011323928833007812,-0.5351661443710327
1761396983594189300,11.884189208984376,0.34279918670654297,-0.07584095001220703,0.18765117228031158
1761396983613566200,11.903566162109374,0.3832254409790039,-0.05744600296020508,0.6258431673049927
1761396983632943000,11.922943115234375,-0.07361793518066406,-0.07890892028808594,0.46289965510368347
