time,seconds_elapsed,z,y,x
1761395793631432000,0.239431884765625,-0.037682533264160156,0.00043010711669921875,0.07719755172729492
1761395793651197400,0.259197509765625,0.02170085906982422,-0.03676557540893555,-0.05901935696601868
1761395793670962700,0.278962646484375,0.09867286682128906,-0.056160926818847656,0.23173055052757263
1761395793690728200,0.298728271484375,0.0009851455688476562,-0.08336114883422852,0.1346566081047058
1761395793710493400,0.318493408203125,-0.020468711853027344,-0.06113243103027344,-0.03397977352142334
1761395793730259000,0.338259033203125,-0.0969552993774414,0.016142845153808594,0.2762291431427002
1761395793749993500,0.357993408203125,0.12289810180664062,-0.03427839279174805,0.24354514479637146
1761395793769371400,0.377371337890625,0.04191875457763672,-0.03210306167602539,-0.03078553080558777
1761395793788749300,0.396749267578125,0.006440162658691406,-0.008172035217285156,-0.044982343912124634
1761395793808127200,0.416127197265625,0.017730712890625,0.02989053726196289,0.11861386895179749
1761395793827505000,0.4355048828125,-0.1669769287109375,0.06119394302368164,0.22301310300827026
1761395793846882800,0.4548828125,-0.23871421813964844,0.04314994812011719,0.05909544229507446
1761395793866260700,0.4742607421875,-0.08732414245605469,0.022486209869384766,0.0725318193435669
1761395793885638700,0.493638671875,0.03683280944824219,0.011626720428466797,0.16216757893562317
1761395793905016600,0.5130166015625,0.0802755355834961,0.0018863677978515625,0.0719744861125946
1761395793924394500,0.53239453125,0.07127761840820312,-0.036026954650878906,0.08472654223442078
1761395793943772400,0.5517724609375,-0.03452110290527344,-0.020175933837890625,0.10791006684303284
1761395793963150000,0.571150146484375,-0.10747814178466797,0.03314924240112305,0.0964597761631012
1761395793982528000,0.590528076171875,-0.2350635528564453,0.09805583953857422,0.061722397804260254
1761395794001906000,0.609906005859375,-0.16544246673583984,0.08735942840576172,-0.06839320063591003
1761395794021283800,0.629283935546875,0.4041118621826172,-0.013154983520507812,-0.16366812586784363
1761395794040661800,0.648661865234375,0.51092529296875,-0.024654388427734375,-0.015188157558441162
1761395794060039700,0.668039794921875,0.0017271041870117188,-0.00938272476196289,0.15634381771087646
1761395794079417300,0.687417236328125,-0.15358829498291016,-0.05347776412963867,0.02514958381652832
1761395794098795300,0.706795166015625,-0.12895870208740234,-0.028871536254882812,0.05955258011817932
1761395794118173200,0.726173095703125,-0.17810535430908203,0.005437374114990234,0.21655169129371643
1761395794137551000,0.745551025390625,-0.09900760650634766,-0.008276939392089844,0.26807621121406555
1761395794156929000,0.764928955078125,0.1501331329345703,-0.07491064071655273,0.04210364818572998
1761395794176307000,0.784306884765625,0.12863540649414062,-0.0645284652709961,-0.11513936519622803
1761395794195684900,0.803684814453125,0.043328285217285156,-0.0010042190551757812,0.05020830035209656
1761395794215062500,0.8230625,0.1286334991455078,-0.0038595199584960938,0.15285426378250122
1761395794234440400,0.8424404296875,0.09508228302001953,-0.0064373016357421875,0.05758404731750488
1761395794253818400,0.861818359375,-0.1368122100830078,0.015250682830810547,0.08477410674095154
1761395794273196300,0.8811962890625,-0.2426280975341797,0.06527280807495117,0.18487536907196045
1761395794292574200,0.90057421875,-0.10335063934326172,0.027149677276611328,0.16479972004890442
1761395794311952100,0.9199521484375,0.0744924545288086,-0.025651931762695312,-0.028106391429901123
1761395794331329800,0.939329833984375,0.09924697875976562,-0.013509750366210938,0.0185411274433136
1761395794350707700,0.958707763671875,0.2953767776489258,-0.02921295166015625,0.10837903618812561
1761395794370085600,0.978085693359375,0.20591449737548828,-0.020587444305419922,0.10333654284477234
1761395794389463600,0.997463623046875,-0.20985698699951172,0.012762069702148438,0.10366752743721008
1761395794408841500,1.016841552734375,-0.24016666412353516,0.012332916259765625,-0.07024094462394714
1761395794428219400,1.036219482421875,0.13213062286376953,0.004456520080566406,-0.020710021257400513
1761395794447597300,1.055597412109375,0.026253700256347656,0.0369873046875,0.15122511982917786
1761395794466975200,1.074975341796875,-0.06184959411621094,0.028139591217041016,-0.026319921016693115
1761395794486353000,1.094352783203125,0.10915088653564453,-0.010251998901367188,-0.04587060213088989
1761395794505730800,1.113730712890625,0.02648448944091797,0.004794597625732422,0.10852643847465515
1761395794525108700,1.133108642578125,0.02379131317138672,-0.019862651824951172,0.11456584930419922
1761395794544486700,1.152486572265625,0.0690774917602539,-0.035981178283691406,0.12341177463531494
1761395794563864600,1.171864501953125,0.07933807373046875,-0.031815528869628906,-0.013721466064453125
1761395794583242500,1.191242431640625,0.045968055725097656,-0.008560657501220703,-0.0678989589214325
1761395794602620200,1.2106201171875,-0.07587242126464844,0.048772335052490234,0.15242892503738403
1761395794621998000,1.229998046875,-0.041378021240234375,0.02023029327392578,0.16913408041000366
1761395794641376000,1.2493759765625,-0.022129058837890625,-0.0025606155395507812,0.03900235891342163
1761395794660754000,1.26875390625,-0.17146682739257812,0.02039194107055664,0.1183122992515564
1761395794680131800,1.2881318359375,0.03278541564941406,-0.003250598907470703,0.06990322470664978
1761395794699509800,1.307509765625,0.1617603302001953,-0.014854907989501953,0.08925741910934448
1761395794718887700,1.3268876953125,-0.040534019470214844,-0.012573719024658203,0.08992227911949158
1761395794738265300,1.346265380859375,-0.16978931427001953,-0.004812717437744141,0.10149246454238892
1761395794757643300,1.365643310546875,-0.03207206726074219,-0.015909194946289062,0.007110476493835449
1761395794777021200,1.385021240234375,0.1487884521484375,-0.006220817565917969,0.06935113668441772
1761395794796399000,1.404399169921875,0.1756887435913086,0.00595855712890625,0.12771832942962646
1761395794815777000,1.423777099609375,0.18837928771972656,-0.016500473022460938,-0.06799444556236267
1761395794835155000,1.443155029296875,-0.012316703796386719,0.006544589996337891,-0.08140087127685547
1761395794854532600,1.46253271484375,-0.12962722778320312,0.01870107650756836,0.2071416974067688
1761395794873910500,1.48191064453125,0.016733169555664062,-0.03136491775512695,0.05208894610404968
1761395794893288400,1.501288330078125,0.08459091186523438,-0.029881954193115234,0.023900866508483887
1761395794912666400,1.520666259765625,-0.07973861694335938,0.022244930267333984,0.15389138460159302
1761395794932044300,1.540044189453125,-0.1420879364013672,0.046689510345458984,-0.0035118162631988525
1761395794951422200,1.559422119140625,0.0670614242553711,0.013195037841796875,0.021858185529708862
1761395794970800000,1.578800048828125,0.17918872833251953,0.021535873413085938,0.22373774647712708
1761395794990178000,1.598177978515625,0.026597976684570312,-0.01963186264038086,0.14495685696601868
1761395795009555700,1.6175556640625,0.00090789794921875,-0.03996467590332031,-0.10041606426239014
1761395795028933600,1.63693359375,0.03625297546386719,-0.015813350677490234,0.06862059235572815
1761395795048311600,1.6563115234375,-0.082427978515625,0.032334327697753906,0.1361655592918396
1761395795067689500,1.675689453125,-0.20691967010498047,0.03345823287963867,0.1380975842475891
1761395795087067400,1.6950673828125,0.09716987609863281,-0.020943641662597656,0.023871034383773804
1761395795106445300,1.7144453125,0.1530599594116211,-0.017240524291992188,0.005497157573699951
1761395795125823000,1.733822998046875,-0.09785079956054688,-0.00016546249389648438,0.09309709072113037
1761395795145201000,1.753200927734375,-0.006192207336425781,-0.02859354019165039,0.0025960803031921387
1761395795164578800,1.772578857421875,0.1059865951538086,-0.01570749282836914,0.11250895261764526
1761395795183956700,1.791956787109375,-0.09087753295898438,0.01604318618774414,0.1642877757549286
1761395795203334700,1.811334716796875,-0.17246532440185547,0.0057888031005859375,-0.0003394186496734619
1761395795222712600,1.830712646484375,0.060265541076660156,-0.016559600830078125,0.04483833909034729
1761395795242090500,1.850090576171875,0.1640920639038086,-0.01714038848876953,0.14043807983398438
1761395795261468200,1.86946826171875,0.07327079772949219,-0.028139114379882812,0.07809937000274658
1761395795280846000,1.88884619140625,-0.012541770935058594,-0.027595043182373047,0.024981915950775146
1761395795300224000,1.90822412109375,-0.034354209899902344,0.007565975189208984,0.13288745284080505
1761395795319602000,1.927601806640625,0.010300636291503906,0.007165431976318359,0.03576037287712097
1761395795338979800,1.946979736328125,-0.02055835723876953,0.0434727668762207,-0.05338355898857117
1761395795358357800,1.966357666015625,-0.10763072967529297,0.05429887771606445,0.09288445115089417
1761395795377735700,1.985735595703125,-0.02301311492919922,0.027814865112304688,-0.041416019201278687
1761395795397113300,2.00511328125,0.16875267028808594,-0.014535903930664062,-0.11351126432418823
1761395795416491300,2.0244912109375,0.18299102783203125,-0.006560325622558594,0.0014792978763580322
1761395795435869200,2.043869140625,-0.03380775451660156,0.0023412704467773438,0.04890933632850647
1761395795455247000,2.0632470703125,-0.12769603729248047,-0.006310939788818359,0.0820758044719696
1761395795474625000,2.082625,-0.0654611587524414,-0.009578227996826172,0.12465253472328186
1761395795494003000,2.1020029296875,0.0983419418334961,-0.0008974075317382812,0.08676624298095703
1761395795513380900,2.121380859375,0.0911569595336914,0.019790172576904297,0.13948261737823486
1761395795532758500,2.140758544921875,-0.17600345611572266,0.0469822883605957,0.28373050689697266
1761395795552136400,2.160136474609375,-0.2362995147705078,-0.005465030670166016,0.18583115935325623
1761395795571514400,2.179514404296875,-0.008474349975585938,-0.04370927810668945,0.008841723203659058
1761395795590892300,2.198892333984375,0.12313556671142578,-0.025482654571533203,0.18283209204673767
1761395795610270200,2.218270263671875,0.15978431701660156,-0.0410151481628418,0.1514463722705841
1761395795629648100,2.237648193359375,0.020181655883789062,-0.05205392837524414,0.005953580141067505
1761395795649026000,2.257026123046875,-0.061084747314453125,0.0031833648681640625,-0.03241807222366333
1761395795668404000,2.276404052734375,-0.08502674102783203,0.044542789459228516,0.07319879531860352
1761395795687781600,2.29578173828125,-0.02206707000732422,0.03152179718017578,0.009439527988433838
1761395795707159600,2.31515966796875,0.09771442413330078,0.005384922027587891,-0.038427382707595825
1761395795726537500,2.334537353515625,0.08794212341308594,0.010226249694824219,0.020265907049179077
1761395795745915400,2.353915283203125,0.052649497985839844,0.020649433135986328,0.039979130029678345
1761395795765293300,2.373293212890625,0.12307071685791016,-0.006793022155761719,-0.07945722341537476
1761395795784671200,2.392671142578125,0.08223152160644531,0.005844593048095703,-0.012761890888214111
1761395795804049200,2.412049072265625,-0.05184459686279297,-0.002254962921142578,0.14905160665512085
1761395795823426800,2.4314267578125,-0.116119384765625,-0.040985107421875,0.11944416165351868
1761395795842804700,2.4508046875,0.023889541625976562,-0.03740072250366211,-0.0032491981983184814
1761395795862182700,2.4701826171875,0.05348682403564453,0.0026845932006835938,0.030097752809524536
1761395795881560600,2.489560546875,-0.025827407836914062,0.02926349639892578,0.12151995301246643
1761395795900938500,2.5089384765625,0.03403472900390625,-0.012920856475830078,-0.026852011680603027
1761395795920316400,2.52831640625,0.20450401306152344,-0.03451824188232422,0.07929098606109619
1761395795939694300,2.5476943359375,0.07242202758789062,0.00875234603881836,0.15920639038085938
1761395795959072300,2.567072265625,-0.10201168060302734,0.0080718994140625,0.07362234592437744
1761395795978450000,2.586449951171875,-0.10858440399169922,0.012572765350341797,-0.07622063159942627
1761395795997827800,2.605827880859375,-0.11883926391601562,0.04587745666503906,0.08232513070106506
1761395796017205800,2.625205810546875,0.02106952667236328,0.05075693130493164,0.21042495965957642
1761395796036583700,2.644583740234375,0.17500591278076172,-0.007800579071044922,0.06990376114845276
1761395796055961600,2.663961669921875,0.08757305145263672,-0.0337061882019043,-0.02073150873184204
1761395796075339500,2.683339599609375,-0.0049076080322265625,0.021175384521484375,0.08629307150840759
1761395796094717200,2.70271728515625,0.03874397277832031,0.04872560501098633,0.23692888021469116
1761395796114095000,2.72209521484375,-0.016542434692382812,0.0006375312805175781,0.11165106296539307
1761395796133473000,2.74147314453125,-0.15465545654296875,-0.06500387191772461,0.017178118228912354
1761395796152851000,2.760850830078125,-0.07262229919433594,-0.1543879508972168,-0.08099696040153503
1761395796172228900,2.780228759765625,0.12440776824951172,-0.17966699600219727,-0.11467838287353516
1761395796191606800,2.799606689453125,0.07839107513427734,-0.1116476058959961,0.23866379261016846
1761395796210984700,2.818984619140625,-0.056189537048339844,-0.045839786529541016,0.26400601863861084
1761395796230362600,2.838362548828125,-0.17550373077392578,-0.005752086639404297,0.04455628991127014
1761395796249740500,2.857740478515625,-0.03785133361816406,0.06376791000366211,0.13812991976737976
1761395796269118200,2.8771181640625,0.19099807739257812,0.08449602127075195,0.23560133576393127
1761395796288496000,2.89649609375,0.14887237548828125,0.07449960708618164,-0.060229092836380005
1761395796307874000,2.9158740234375,-0.019692420959472656,0.0845956802368164,-0.09822908043861389
1761395796327252000,2.935251953125,-0.11287784576416016,0.054827213287353516,0.05948689579963684
1761395796346630000,2.9546298828125,-0.06657218933105469,-0.008132457733154297,-0.12624788284301758
1761395796366007800,2.9740078125,0.060799598693847656,0.012324333190917969,-0.017663151025772095
1761395796385385500,2.993385498046875,0.11316585540771484,-0.0004706382751464844,0.20401322841644287
1761395796404763400,3.012763427734375,-0.03156089782714844,-0.0538020133972168,0.0916585624217987
1761395796424141300,3.032141357421875,-0.14270401000976562,-0.03720378875732422,-0.008077085018157959
1761395796443519200,3.051519287109375,0.009291648864746094,0.0029273033142089844,0.056882619857788086
1761395796462897200,3.070897216796875,0.25717926025390625,0.0098114013671875,-0.023103058338165283
1761395796482275000,3.090275146484375,0.22582149505615234,0.008350372314453125,0.009228646755218506
1761395796501653000,3.109653076171875,-0.07870292663574219,0.03709888458251953,0.17511150240898132
1761395796521031000,3.129031005859375,-0.3112039566040039,0.026785850524902344,0.22541728615760803
1761395796540408800,3.148408935546875,-0.1890430450439453,-0.008916378021240234,0.04126819968223572
1761395796559786500,3.167786376953125,0.13845252990722656,-0.03226947784423828,-0.005602896213531494
1761395796579164400,3.187164306640625,0.1917591094970703,-0.0037817955017089844,0.06606781482696533
1761395796598542300,3.206542236328125,0.16852951049804688,-0.010152816772460938,-0.03853467106819153
1761395796617920300,3.225920166015625,-0.03778362274169922,0.024806976318359375,0.06849983334541321
1761395796637298200,3.245298095703125,-0.11917877197265625,0.002788066864013672,0.1835693120956421
1761395796656676000,3.264676025390625,-0.04467487335205078,-0.047718048095703125,0.006643831729888916
1761395796676054000,3.284053955078125,-0.020348548889160156,-0.021806716918945312,-0.006095856428146362
1761395796695431700,3.303431640625,0.06290245056152344,-0.017949581146240234,0.1694270372390747
1761395796714809600,3.3228095703125,0.0068912506103515625,-0.02826976776123047,0.0921182930469513
1761395796734187500,3.3421875,-0.047051429748535156,-0.03131914138793945,0.0303647518157959
1761395796753565400,3.3615654296875,-0.03521919250488281,0.0139312744140625,0.10640108585357666
1761395796772943400,3.380943359375,0.060886383056640625,0.0027756690979003906,0.04688754677772522
1761395796792321300,3.4003212890625,0.1150970458984375,-0.014820575714111328,-0.07985833287239075
1761395796811699200,3.41969921875,0.0805368423461914,0.015290260314941406,0.05983191728591919
1761395796831076900,3.439076904296875,0.046631813049316406,-0.007628440856933594,0.10629492998123169
1761395796850454800,3.458454833984375,0.015531539916992188,-0.015516281127929688,-0.09054425358772278
1761395796869832700,3.477832763671875,0.03401660919189453,-0.004349708557128906,0.05297207832336426
1761395796889210600,3.497210693359375,-0.0986642837524414,0.029766559600830078,0.21748340129852295
1761395796908588500,3.516588623046875,-0.16295242309570312,0.004199028015136719,0.14651665091514587
1761395796927966500,3.535966552734375,0.017492294311523438,-0.03720855712890625,-0.03683540225028992
1761395796947344400,3.555344482421875,0.22701549530029297,-0.017429351806640625,0.0401170551776886
1761395796966722300,3.574722412109375,0.041884422302246094,0.028377056121826172,0.06640025973320007
1761395796986100200,3.594100341796875,-0.1532611846923828,0.036507606506347656,0.05569493770599365
1761395797005478000,3.613477783203125,0.003387451171875,-0.007300376892089844,-0.018677324056625366
1761395797024855800,3.632855712890625,0.19624996185302734,-0.04531669616699219,0.11073732376098633
1761395797044233700,3.652233642578125,0.1318979263305664,-0.023418426513671875,0.06790059804916382
1761395797063611600,3.671611572265625,-0.12880229949951172,0.023291587829589844,0.007635027170181274
1761395797082989600,3.690989501953125,-0.23540687561035156,0.0781717300415039,0.12181457877159119
1761395797102367500,3.710367431640625,-0.015776634216308594,0.02821969985961914,-0.003177553415298462
1761395797121745200,3.7297451171875,0.13189220428466797,0.008280277252197266,-0.06032675504684448
1761395797141123000,3.749123046875,0.15459537506103516,-0.007003307342529297,-0.027910202741622925
1761395797160501000,3.7685009765625,0.17489337921142578,-0.040816307067871094,-0.03367304801940918
1761395797179879000,3.78787890625,0.06736183166503906,-0.062713623046875,0.04861631989479065
1761395797199256800,3.8072568359375,-0.03596210479736328,-0.08106756210327148,0.15267989039421082
1761395797218634800,3.826634765625,-0.22074508666992188,-0.03896617889404297,0.23717474937438965
1761395797238012700,3.8460126953125,-0.24361324310302734,-0.008606433868408203,0.14242610335350037
1761395797257390600,3.865390625,0.09897613525390625,-0.0047588348388671875,-0.016269654035568237
1761395797276768500,3.8847685546875,0.175048828125,0.021418094635009766,0.07757952809333801
1761395797296146200,3.904146240234375,0.03316020965576172,0.025571823120117188,0.0018000304698944092
1761395797315524000,3.923524169921875,0.06309127807617188,-0.004126071929931641,-0.04726928472518921
1761395797334902000,3.942902099609375,0.04417705535888672,0.00882577896118164,0.07840579748153687
1761395797354280000,3.962280029296875,-0.08014583587646484,0.022916793823242188,0.18028679490089417
1761395797373657900,3.981657958984375,-0.05299091339111328,0.004136085510253906,0.017681539058685303
1761395797393035800,4.001035888671875,0.029974937438964844,0.010310173034667969,-0.06554356217384338
1761395797412413700,4.02041357421875,0.0782785415649414,0.03802347183227539,0.108120858669281
1761395797431791400,4.039791259765625,0.08195209503173828,0.010734081268310547,0.11782735586166382
1761395797451169300,4.059169189453125,-0.10941028594970703,-0.0038361549377441406,0.005552053451538086
1761395797470547200,4.078547119140625,-0.08899784088134766,-0.01531839370727539,0.06819748878479004
1761395797489925000,4.097925048828125,0.11063289642333984,-0.018747806549072266,0.09871244430541992
1761395797509303000,4.117302978515625,0.06045055389404297,-0.014351844787597656,0.1594829261302948
1761395797528681000,4.136680908203125,0.00177764892578125,-0.05823040008544922,0.1168181300163269
1761395797548059000,4.156058837890625,0.0106048583984375,-0.02471303939819336,0.08169159293174744
1761395797567436800,4.175436767578125,-0.11188220977783203,0.014699459075927734,0.1673610806465149
1761395797586814500,4.194814453125,-0.10313796997070312,0.010349273681640625,0.08650344610214233
1761395797606192400,4.2141923828125,0.07631969451904297,-0.002579212188720703,-0.014054596424102783
1761395797625570300,4.2335703125,0.057392120361328125,0.0070037841796875,0.03925856947898865
1761395797644948200,4.2529482421875,0.06442928314208984,-0.04325246810913086,0.03057008981704712
1761395797664326100,4.272326171875,0.1029214859008789,-0.03363609313964844,-0.050453752279281616
1761395797683704000,4.2917041015625,-0.01652050018310547,-0.003681659698486328,-0.0315147340297699
1761395797703082000,4.31108203125,-0.014108657836914062,0.03120899200439453,-0.12391349673271179
1761395797722460000,4.3304599609375,0.15480422973632812,0.02306079864501953,-0.06834191083908081
1761395797741837800,4.349837890625,0.1753253936767578,0.022068023681640625,0.07265910506248474
1761395797761215500,4.369215576171875,-0.009855270385742188,-0.003287792205810547,0.025241345167160034
1761395797780593400,4.388593505859375,-0.0974416732788086,-0.01777029037475586,-0.023329317569732666
1761395797799971300,4.407971435546875,-0.17934894561767578,0.03035116195678711,0.17034834623336792
1761395797819349200,4.427349365234375,-0.08827972412109375,0.02138233184814453,0.1406017541885376
1761395797838727200,4.44672705078125,0.1674642562866211,-0.02547597885131836,0.08815008401870728
1761395797858105000,4.46610498046875,0.16916561126708984,-0.0603795051574707,0.07671567797660828
1761395797877483000,4.48548291015625,0.03758430480957031,-0.05038595199584961,0.10465991497039795
1761395797896860700,4.504860595703125,-0.08834171295166016,-0.0131683349609375,0.10225701332092285
1761395797916238600,4.524238525390625,-0.07163619995117188,0.012515068054199219,0.1049833595752716
1761395797935616500,4.543616455078125,-0.0011548995971679688,-0.004642009735107422,-0.017109274864196777
1761395797954994400,4.562994384765625,0.06863212585449219,0.009070396423339844,-0.010964006185531616
1761395797974372400,4.582372314453125,0.07205772399902344,0.02913665771484375,0.0972786545753479
1761395797993750300,4.601750244140625,-0.02427196502685547,0.008958816528320312,0.07055634260177612
1761395798013128200,4.621128173828125,-0.013098716735839844,-0.06479406356811523,-0.05112069845199585
1761395798032506000,4.640506103515625,0.08864307403564453,-0.022665977478027344,0.010187804698944092
1761395798051884000,4.659884033203125,0.016002655029296875,0.04826641082763672,0.19374293088912964
1761395798071261700,4.67926171875,-0.12223339080810547,0.0712594985961914,0.12862348556518555
1761395798090639600,4.6986396484375,-0.08083248138427734,-0.0016579627990722656,-0.04641556739807129
1761395798110017500,4.718017578125,0.0739755630493164,-0.03455924987792969,0.06718933582305908
1761395798129395500,4.7373955078125,0.2093372344970703,-0.0655817985534668,0.10162109136581421
1761395798148773400,4.7567734375,0.1457195281982422,-0.036731719970703125,0.025034785270690918
1761395798168151300,4.7761513671875,-0.07952308654785156,0.014164924621582031,0.13184648752212524
1761395798187529200,4.795529296875,-0.163482666015625,-0.009806632995605469,-0.01968306303024292
1761395798206907100,4.8149072265625,-0.041049957275390625,0.025385379791259766,-0.034823477268218994
1761395798226284800,4.834284912109375,0.026328086853027344,0.03939247131347656,0.09213125705718994
1761395798245662700,4.853662841796875,0.018591880798339844,0.021618366241455078,0.06100946664810181
1761395798265040600,4.87304052734375,0.05311870574951172,-0.02548074722290039,-0.0070192813873291016
1761395798284418600,4.89241845703125,0.1782827377319336,-0.07618856430053711,0.08734244108200073
1761395798303796500,4.91179638671875,0.09438037872314453,-0.07491779327392578,0.09131026268005371
1761395798323174400,4.93117431640625,-0.17342853546142578,-0.008771419525146484,0.12908750772476196
1761395798342552300,4.95055224609375,-0.2412548065185547,0.026520252227783203,0.0675322413444519
1761395798361930000,4.969929931640625,-0.015606880187988281,0.022785663604736328,0.08390676975250244
1761395798381308000,4.989307861328125,0.1771526336669922,-0.027526378631591797,-0.02886277437210083
1761395798400685800,5.008685791015625,0.07358360290527344,-0.03717470169067383,-0.04328030347824097
1761395798420063700,5.028063720703125,0.04871177673339844,0.004393100738525391,0.16665780544281006
1761395798439441700,5.047441650390625,0.0295867919921875,-0.025647640228271484,0.13916486501693726
1761395798458819600,5.066819580078125,-0.06569290161132812,0.0030493736267089844,0.006796121597290039
1761395798478197500,5.086197509765625,-0.020752906799316406,0.02104043960571289,0.09852105379104614
1761395798497575400,5.105575439453125,0.009493827819824219,0.019673824310302734,0.0190122127532959
1761395798516953300,5.124953369140625,-0.04767322540283203,0.014397621154785156,-0.020831942558288574
1761395798536331300,5.144331298828125,0.055034637451171875,-0.016953468322753906,0.041118085384368896
1761395798555709000,5.163708984375,0.08502006530761719,-0.03148984909057617,-0.08233582973480225
1761395798575086800,5.1830869140625,0.09963035583496094,-0.014323711395263672,-0.03095090389251709
1761395798594464800,5.20246484375,0.07671451568603516,-0.007666587829589844,0.11498528718948364
1761395798613842700,5.2218427734375,-0.03382396697998047,0.0004925727844238281,0.05414241552352905
1761395798633220600,5.241220703125,-0.1497669219970703,-0.008976936340332031,0.013695359230041504
1761395798652598500,5.2605986328125,0.007281303405761719,0.014745712280273438,0.04828667640686035
1761395798671976400,5.2799765625,0.08694267272949219,0.018097400665283203,0.12073701620101929
1761395798691354400,5.299354248046875,-0.022185325622558594,0.007007598876953125,0.11522328853607178
1761395798710732000,5.31873193359375,-0.05509471893310547,-0.02492523193359375,0.029516160488128662
1761395798730110000,5.33810986328125,0.02624988555908203,-0.02228403091430664,0.03494220972061157
1761395798749487900,5.35748779296875,0.0731515884399414,-0.025774002075195312,0.13628387451171875
1761395798768865800,5.37686572265625,0.07428646087646484,-0.036950111389160156,0.06305450201034546
1761395798788243700,5.39624365234375,0.05127239227294922,-0.031229496002197266,0.004680752754211426
1761395798807621600,5.41562158203125,-0.06864070892333984,0.014693737030029297,0.05584996938705444
1761395798826999600,5.43499951171875,-0.04137897491455078,0.024459362030029297,0.07778334617614746
1761395798846377500,5.45437744140625,0.02413177490234375,-0.005646228790283203,0.00515669584274292
1761395798865755400,5.47375537109375,0.05035114288330078,-0.0016632080078125,0.001649320125579834
1761395798885133000,5.493133056640625,0.05885791778564453,0.007531166076660156,0.03343898057937622
1761395798904511000,5.512510986328125,0.0154876708984375,0.009370803833007812,0.04884594678878784
1761395798923889000,5.531888916015625,-0.07192707061767578,-0.02770090103149414,0.0472182035446167
1761395798943266800,5.551266845703125,0.027993202209472656,-0.03701972961425781,0.0034200549125671387
1761395798962644700,5.570644775390625,0.06019783020019531,-0.013942718505859375,0.07459038496017456
1761395798982022700,5.590022705078125,-0.05353736877441406,0.04991722106933594,0.05774575471878052
1761395799001400600,5.609400634765625,-0.04357337951660156,0.023437023162841797,0.0006840229034423828
1761395799020778500,5.628778564453125,0.18481063842773438,-0.03178977966308594,-0.06822150945663452
1761395799040156200,5.64815625,0.16961002349853516,-0.0398564338684082,0.10917258262634277
1761395799059534000,5.6675341796875,0.0031785964965820312,0.00034236907958984375,0.09397238492965698
1761395799078912000,5.686912109375,-0.1495523452758789,0.020045757293701172,0.08976370096206665
1761395799098290000,5.7062900390625,-0.14737701416015625,0.010017871856689453,0.08484750986099243
1761395799117667800,5.725667724609375,0.020247459411621094,-0.013918876647949219,0.03600883483886719
1761395799137045800,5.745045654296875,0.15191268920898438,-0.006302833557128906,0.035568177700042725
1761395799156423700,5.764423583984375,0.038333892822265625,0.00015783309936523438,0.10282117128372192
1761395799175801600,5.783801513671875,-0.07562637329101562,-0.005240917205810547,0.01536703109741211
1761395799195179300,5.80317919921875,0.008846282958984375,-0.042405128479003906,-0.05142071843147278
1761395799214557200,5.82255712890625,0.016640663146972656,-0.030424118041992188,0.19308900833129883
1761395799233935000,5.84193505859375,-0.04375267028808594,-0.03324747085571289,0.15113180875778198
1761395799253313000,5.86131298828125,0.0244598388671875,-0.04515504837036133,-0.03686675429344177
1761395799272691000,5.88069091796875,0.04679584503173828,0.005260944366455078,0.014295399188995361
1761395799292068900,5.90006884765625,-0.043595314025878906,0.03929615020751953,0.11254209280014038
1761395799311446800,5.91944677734375,-0.0062103271484375,0.02036905288696289,0.052103012800216675
1761395799330824700,5.93882470703125,0.12605857849121094,-0.02337026596069336,0.05213820934295654
1761395799350202600,5.95820263671875,0.14258956909179688,-0.05291604995727539,-0.01825690269470215
1761395799369580500,5.97758056640625,-0.038102149963378906,0.0013613700866699219,-0.00751417875289917
1761395799388958200,5.996958251953125,-0.1321554183959961,0.058236122131347656,0.1676347851753235
1761395799408336100,6.016336181640625,-0.06806182861328125,0.02167510986328125,0.047862082719802856
1761395799427714000,6.035714111328125,0.07474708557128906,-0.022426128387451172,-0.15620112419128418
1761395799447092000,6.055092041015625,0.1232156753540039,-0.004434108734130859,0.02564951777458191
1761395799466470000,6.074469970703125,0.068634033203125,-0.002429962158203125,0.07971450686454773
1761395799485847800,6.093847900390625,-0.014551162719726562,-0.015440940856933594,0.01536974310874939
1761395799505225700,6.113225830078125,-0.002452850341796875,-0.030376911163330078,-0.01639699935913086
1761395799524603600,6.132603759765625,0.03792762756347656,-0.033648014068603516,0.06305193901062012
1761395799543981300,6.151981201171875,0.016925811767578125,-0.004035472869873047,0.10146328806877136
1761395799563359200,6.171359130859375,-0.04548835754394531,0.01750469207763672,0.10913720726966858
1761395799582737200,6.190737060546875,-0.06613826751708984,0.006828784942626953,0.034383416175842285
1761395799602115000,6.210114990234375,0.07315731048583984,-0.02040576934814453,-0.026291251182556152
1761395799621493000,6.229492919921875,0.09567642211914062,-0.007594585418701172,0.024312973022460938
1761395799640871000,6.248870849609375,-0.023344993591308594,-0.002261638641357422,0.05949923396110535
1761395799660248800,6.268248779296875,-0.1021280288696289,0.0008893013000488281,0.09094247221946716
1761395799679626800,6.287626708984375,0.06557178497314453,-0.016776561737060547,-0.010194063186645508
1761395799699004400,6.30700439453125,0.1833333969116211,-0.037746429443359375,-0.020550668239593506
1761395799718382300,6.32638232421875,0.03502368927001953,-0.014027595520019531,0.04049861431121826
1761395799737760300,6.34576025390625,-0.11028003692626953,0.014218330383300781,0.011820942163467407
1761395799757138200,6.36513818359375,0.08687877655029297,-0.009310245513916016,-0.13441574573516846
1761395799776516000,6.38451611328125,0.2240438461303711,0.010752201080322266,0.0023175477981567383
1761395799795894000,6.40389404296875,-0.11901473999023438,0.0905313491821289,0.24140650033950806
1761395799815272000,6.42327197265625,-0.27802085876464844,0.050965309143066406,0.19771671295166016
1761395799834649900,6.44264990234375,-0.0039806365966796875,-0.025240421295166016,0.05183058977127075
1761395799854027800,6.46202783203125,0.14648914337158203,-0.07347965240478516,0.012150883674621582
1761395799873405700,6.48140576171875,0.14081287384033203,-0.08166646957397461,0.0926516056060791
1761395799892783400,6.500783447265625,-0.03677177429199219,-0.07710123062133789,0.18145763874053955
1761395799912161300,6.520161376953125,-0.11411094665527344,-0.09559774398803711,0.016770660877227783
1761395799931539200,6.539539306640625,0.00527191162109375,-0.04725456237792969,-0.15070503950119019
1761395799950917000,6.558917236328125,0.06530189514160156,0.044855594635009766,-0.06571078300476074
1761395799970295000,6.578294921875,0.12500286102294922,0.040743350982666016,-0.17597618699073792
1761395799989673000,6.5976728515625,0.20022869110107422,0.038021087646484375,-0.3136709928512573
1761395800009051000,6.61705078125,0.1704540252685547,0.059844970703125,-0.16269856691360474
1761395800028428800,6.6364287109375,0.1443023681640625,0.03483867645263672,-0.1918048858642578
1761395800047806500,6.655806396484375,-0.02957630157470703,0.062200069427490234,-0.21446537971496582
1761395800067184400,6.675184326171875,-0.2559051513671875,0.08669900894165039,0.0602952241897583
1761395800086562300,6.694562255859375,-0.1621847152709961,0.03754425048828125,0.05735498666763306
1761395800105940200,6.713940185546875,0.21469497680664062,-0.022761821746826172,-0.1267719268798828
1761395800125318100,6.733318115234375,0.30806732177734375,-0.039014339447021484,0.24126970767974854
1761395800144696000,6.752696044921875,-0.04282379150390625,-0.05648183822631836,0.4040312170982361
1761395800164074000,6.772073974609375,-0.31099510192871094,-0.10994434356689453,0.316738486289978
1761395800183452000,6.791451904296875,-0.31844520568847656,-0.1703481674194336,0.21897447109222412
1761395800202829600,6.81082958984375,-0.2447805404663086,-0.20665645599365234,0.24274712800979614
1761395800222207500,6.83020751953125,0.012843132019042969,-0.24004745483398438,0.20217132568359375
1761395800241585400,6.84958544921875,0.16372966766357422,-0.2702507972717285,-0.14845901727676392
1761395800260963300,6.86896337890625,0.03187847137451172,-0.18968582153320312,-0.24816256761550903
1761395800280341200,6.88834130859375,-0.10590744018554688,-0.1380300521850586,-0.28730905055999756
1761395800299719200,6.90771923828125,0.02441120147705078,-0.21430730819702148,-0.4454861879348755
1761395800319097000,6.92709716796875,0.6290493011474609,-0.23729276657104492,-0.6705654263496399
1761395800338475000,6.94647509765625,0.512364387512207,-0.12865161895751953,-0.6008676886558533
1761395800357853000,6.96585302734375,0.23299312591552734,0.00012445449829101562,-0.7388909459114075
1761395800377230800,6.98523095703125,0.26358604431152344,0.13318824768066406,-0.31251588463783264
1761395800396608800,7.00460888671875,-0.0637521743774414,0.2507510185241699,0.01635688543319702
1761395800415986400,7.023986328125,-0.027075767517089844,0.24966144561767578,0.3653479814529419
1761395800435364400,7.0433642578125,0.47141456604003906,0.14970922470092773,0.141615092754364
1761395800454742300,7.0627421875,0.4507255554199219,0.10127019882202148,-0.6686986684799194
1761395800474120200,7.0821201171875,0.3604001998901367,0.33965110778808594,-0.37783801555633545
1761395800493498000,7.101498046875,-0.2909679412841797,0.5494093894958496,-0.09039306640625
1761395800512876000,7.1208759765625,-0.007941246032714844,0.5210762023925781,0.26114779710769653
1761395800532254000,7.14025390625,-0.006356239318847656,0.4344205856323242,0.9377425909042358
1761395800551632000,7.1596318359375,-0.5471878051757812,0.19998407363891602,1.2315638065338135
1761395800571009500,7.179009521484375,-0.7964143753051758,0.18590354919433594,1.3075356483459473
1761395800590387500,7.198387451171875,-0.6875815391540527,0.021697998046875,1.3319034576416016
1761395800609770800,7.217770751953125,-0.5394067764282227,-0.07366466522216797,0.9587618112564087
1761395800629148700,7.237148681640625,-0.33617496490478516,-0.12470722198486328,0.896316409111023
1761395800648526300,7.2565263671875,-0.44240283966064453,-0.14672517776489258,0.6125667095184326
1761395800667904300,7.275904296875,-0.27074241638183594,-0.24096012115478516,0.5015438795089722
1761395800687282200,7.2952822265625,-0.016129493713378906,-0.24014854431152344,0.3188292384147644
1761395800706660000,7.31466015625,0.1816701889038086,-0.3120436668395996,0.043595850467681885
1761395800726038000,7.3340380859375,0.6694850921630859,-0.45017385482788086,-0.25440704822540283
1761395800745416000,7.353416015625,0.3989076614379883,-0.36229562759399414,-0.24675524234771729
1761395800764793900,7.3727939453125,-0.2240161895751953,-0.1776123046875,0.017245948314666748
1761395800784171800,7.392171875,-0.2750539779663086,-0.07933998107910156,0.07373511791229248
1761395800803549700,7.4115498046875,-0.10179328918457031,0.004353523254394531,-0.07128363847732544
1761395800822927400,7.43092724609375,0.14777755737304688,0.040708065032958984,-0.08857107162475586
1761395800842305300,7.45030517578125,0.2711906433105469,0.06950807571411133,-0.20274055004119873
1761395800861683200,7.46968310546875,0.4755668640136719,0.06756925582885742,-0.42135024070739746
1761395800881061000,7.48906103515625,0.19545459747314453,0.11197471618652344,-0.017878234386444092
1761395800900439000,7.50843896484375,-0.2436676025390625,0.08398294448852539,-0.046415627002716064
1761395800919817000,7.52781689453125,-0.3128366470336914,-0.0036973953247070312,-0.17141515016555786
1761395800939195000,7.54719482421875,0.01846599578857422,-0.11362123489379883,-0.24906283617019653
1761395800958572800,7.56657275390625,0.32977294921875,-0.1397857666015625,-0.31378060579299927
1761395800977950700,7.58595068359375,0.36383056640625,-0.08736324310302734,0.010468602180480957
1761395800997328600,7.60532861328125,0.18603038787841797,-0.048276424407958984,0.0655217170715332
1761395801016706300,7.624706298828125,-0.0756368637084961,-0.009036540985107422,-0.052801311016082764
1761395801036084200,7.644084228515625,-0.19746112823486328,0.039960384368896484,-0.05039989948272705
1761395801055462100,7.663462158203125,-0.03050708770751953,0.10266733169555664,-0.03302311897277832
1761395801074840000,7.682840087890625,0.05837059020996094,0.08182382583618164,-0.17347681522369385
1761395801094218000,7.702218017578125,0.17688941955566406,0.11313533782958984,-0.43771660327911377
1761395801113596000,7.721595947265625,0.11095142364501953,0.06375598907470703,-0.06352406740188599
1761395801132973800,7.740973876953125,0.3240680694580078,-0.10612964630126953,-0.20507562160491943
1761395801152351700,7.760351806640625,0.059876441955566406,-0.06510686874389648,0.05051010847091675
1761395801171729400,7.7797294921875,-0.19266605377197266,0.025681495666503906,0.6152992844581604
1761395801191107300,7.799107421875,-0.31436729431152344,-0.016846179962158203,0.4299546480178833
1761395801210485200,7.8184853515625,-0.2678365707397461,-0.03915548324584961,0.23888933658599854
1761395801229863200,7.83786328125,-0.11189651489257812,-0.04052543640136719,0.4235973358154297
1761395801249241000,7.857240966796875,0.3128929138183594,-0.1162257194519043,0.0556374192237854
1761395801268619000,7.876618896484375,0.42034244537353516,-0.11609315872192383,-0.2671116292476654
1761395801287997000,7.895996826171875,0.06740856170654297,-0.012044906616210938,-0.027311861515045166
1761395801307374800,7.915374755859375,-0.17146015167236328,0.05626344680786133,0.014171361923217773
1761395801326752800,7.934752685546875,-0.2170429229736328,0.058979034423828125,-0.03900200128555298
1761395801346130400,7.95413037109375,-0.31409549713134766,0.0822134017944336,0.12001371383666992
1761395801365508400,7.97350830078125,-0.10109233856201172,0.039933204650878906,0.07793086767196655
1761395801384886300,7.99288623046875,0.2499847412109375,-0.0535888671875,-0.2779983580112457
1761395801404264200,8.01226416015625,0.33806610107421875,-0.028515338897705078,-0.18105250597000122
1761395801423642000,8.03164208984375,0.2139720916748047,0.023985862731933594,0.032056450843811035
1761395801443020000,8.05102001953125,-0.07513904571533203,0.015843868255615234,-0.019785046577453613
1761395801462398000,8.07039794921875,-0.2077493667602539,0.02818584442138672,-0.03251224756240845
1761395801481775900,8.08977587890625,-0.0972127914428711,0.012811660766601562,0.09857940673828125
1761395801501153800,8.10915380859375,0.10422897338867188,-0.048859596252441406,0.017708778381347656
1761395801520531700,8.12853173828125,0.1548776626586914,-0.06751632690429688,-0.21270495653152466
1761395801539909600,8.14790966796875,0.14231586456298828,-0.06180381774902344,-0.10586756467819214
1761395801559287300,8.167287353515626,0.12217426300048828,-0.02703237533569336,-0.02642965316772461
1761395801578665200,8.186665283203125,0.00836944580078125,0.010913372039794922,0.051124751567840576
1761395801598043100,8.206043212890625,-0.09675121307373047,0.03794670104980469,0.12109702825546265
1761395801617421000,8.225421142578124,-0.048282623291015625,0.038646697998046875,0.0458720326423645
1761395801636799000,8.244799072265625,-0.018049240112304688,0.03540992736816406,0.07134842872619629
1761395801656177000,8.264177001953126,-0.03290271759033203,0.023172855377197266,0.11042946577072144
1761395801675554800,8.283554931640625,0.02987957000732422,-0.01944112777709961,0.015342772006988525
1761395801694932700,8.3029326171875,0.0809316635131836,-0.022705554962158203,-0.06683868169784546
1761395801714310700,8.322310546875,0.04229927062988281,-0.019812583923339844,-0.12800878286361694
1761395801733688300,8.341688232421875,0.06728649139404297,-0.012545108795166016,-0.1423807144165039
1761395801753066200,8.361066162109376,0.0026369094848632812,0.015111923217773438,0.044203341007232666
1761395801772444200,8.380444091796875,0.11423873901367188,-0.028403282165527344,-0.10554337501525879
1761395801791822000,8.399822021484376,0.14176368713378906,-0.0029039382934570312,-0.046021223068237305
1761395801811200000,8.419199951171874,0.022703170776367188,0.040218353271484375,0.15257936716079712
1761395801830578000,8.438577880859375,-0.14788818359375,0.042539119720458984,0.20668190717697144
1761395801849955800,8.457955810546874,-0.1381235122680664,0.013994693756103516,0.09569275379180908
1761395801869333800,8.477333740234375,-0.012181282043457031,-0.024574756622314453,0.25303947925567627
1761395801888711700,8.496711669921876,-0.06635856628417969,-0.062355995178222656,0.1932634711265564
1761395801908089300,8.51608935546875,-0.12308025360107422,-0.080657958984375,0.12351816892623901
1761395801927467300,8.53546728515625,-0.01883697509765625,-0.10217714309692383,0.03694945573806763
1761395801946845200,8.55484521484375,0.11663150787353516,-0.08174610137939453,-0.10836803913116455
1761395801966223000,8.57422314453125,0.18676376342773438,-0.002635955810546875,-0.13119041919708252
1761395801985601000,8.59360107421875,0.20121192932128906,0.021720409393310547,-0.06677478551864624
1761395802004979000,8.61297900390625,-0.014913558959960938,0.06170988082885742,-0.06746357679367065
1761395802024356900,8.63235693359375,-0.05218982696533203,0.04746723175048828,-0.08523315191268921
1761395802043734800,8.65173486328125,0.18586063385009766,0.019825458526611328,-0.13084328174591064
1761395802063112700,8.67111279296875,0.060150146484375,0.03736400604248047,-0.05309194326400757
1761395802082490600,8.69049072265625,-0.16333961486816406,0.0701761245727539,0.08031284809112549
1761395802101868500,8.70986865234375,-0.15155315399169922,0.03531980514526367,0.1482749581336975
1761395802121246200,8.72924609375,0.01847362518310547,-0.009290695190429688,0.09216731786727905
1761395802140624100,8.7486240234375,0.14009952545166016,-0.07181739807128906,0.03296685218811035
1761395802160002000,8.768001953125,0.12695026397705078,-0.0957937240600586,0.030096828937530518
1761395802179380000,8.7873798828125,0.02759838104248047,-0.05498933792114258,0.03692072629928589
1761395802198758000,8.8067578125,-0.027338027954101562,-0.043657779693603516,0.19436383247375488
1761395802218135800,8.8261357421875,-0.07239723205566406,-0.028677940368652344,0.1784246563911438
1761395802237513700,8.845513671875,-0.08257770538330078,-0.03561258316040039,0.060595154762268066
1761395802256891600,8.8648916015625,0.024166107177734375,-0.023231029510498047,-0.029331564903259277
1761395802276269600,8.88426953125,0.062347412109375,0.011180877685546875,-0.0011309385299682617
1761395802295647200,8.903647216796875,0.0008106231689453125,0.02041006088256836,-0.02563166618347168
1761395802315025200,8.923025146484376,0.02883148193359375,0.021879196166992188,-0.022203445434570312
1761395802334403000,8.942403076171875,0.1239938735961914,-0.01952219009399414,-0.010635137557983398
1761395802353781000,8.961781005859375,0.07993125915527344,-0.02409982681274414,-0.04139214754104614
1761395802373159000,8.981158935546874,-0.00345611572265625,0.0067138671875,0.027890503406524658
1761395802392536800,9.000536865234375,-0.19370269775390625,0.07537174224853516,0.15112370252609253
1761395802411914800,9.019914794921876,-0.24259090423583984,0.046360015869140625,0.10327470302581787
1761395802431292700,9.039292724609375,0.11674213409423828,-0.04931926727294922,-0.18805158138275146
1761395802450670300,9.05867041015625,0.4245271682739258,-0.08126449584960938,-0.10896492004394531
1761395802470048300,9.07804833984375,0.2557201385498047,-0.03793811798095703,0.11563068628311157
1761395802489426200,9.09742626953125,-0.05988025665283203,-0.011162281036376953,0.035861432552337646
1761395802508804000,9.11680419921875,-0.30664539337158203,0.02033519744873047,0.018060684204101562
1761395802528182000,9.13618212890625,-0.12044048309326172,0.02667856216430664,0.06414800882339478
1761395802547560000,9.155559814453126,0.06723499298095703,0.008559226989746094,0.0350421667098999
1761395802566937900,9.174937744140625,0.20829296112060547,-0.025764942169189453,-0.10286945104598999
1761395802586315800,9.194315673828125,0.1098775863647461,-0.028329849243164062,0.0001571178436279297
1761395802605693700,9.213693603515624,-0.014711380004882812,-0.03241443634033203,0.12816017866134644
1761395802625071600,9.233071533203125,-0.10367298126220703,-0.0628499984741211,0.0881885290145874
1761395802644449500,9.252449462890626,-0.063507080078125,-0.07831430435180664,-0.005033135414123535
1761395802663827200,9.2718271484375,0.0018138885498046875,-0.04672431945800781,0.05814003944396973
1761395802683205000,9.291205078125,-0.0031223297119140625,-0.017696380615234375,0.11097711324691772
1761395802702583000,9.3105830078125,0.08375072479248047,-0.004486083984375,-0.14036989212036133
1761395802721961000,9.3299609375,0.13781356811523438,0.018939495086669922,-0.05625540018081665
1761395802741339000,9.3493388671875,0.09085845947265625,0.014574527740478516,-0.04624730348587036
1761395802760716800,9.368716796875,0.06980705261230469,0.012711048126220703,-0.25190722942352295
1761395802799472600,9.40747265625,-0.20062732696533203,0.09159183502197266,0.14409321546554565
1761395802818850600,9.4268505859375,-0.10284614562988281,0.0417475700378418,-0.013439774513244629
1761395802838228200,9.446228271484374,0.19390296936035156,-0.05646562576293945,-0.04514646530151367
1761395802857606100,9.465606201171875,0.2249612808227539,-0.06109619140625,0.07249593734741211
1761395802876984000,9.484984130859376,-0.05858421325683594,-0.024440288543701172,0.1505618691444397
1761395802896362000,9.504362060546875,-0.08082962036132812,-0.030315876007080078,0.15893107652664185
1761395802915740000,9.523739990234375,-0.045889854431152344,-0.020987510681152344,0.2408827543258667
1761395802935117800,9.543117919921874,-0.032855987548828125,-0.0313115119934082,0.21185892820358276
1761395802954495700,9.562495849609375,0.03798198699951172,-0.07389116287231445,0.10012412071228027
1761395802973873700,9.581873779296876,0.017156600952148438,-0.04050922393798828,0.14935731887817383
1761395802993251600,9.60125146484375,-0.10353851318359375,-0.025165081024169922,0.2155326008796692
1761395803012629200,9.620629150390625,-0.058478355407714844,-0.015932559967041016,0.07712966203689575
1761395803032007200,9.640007080078124,-0.01169586181640625,-0.009444713592529297,0.07082545757293701
1761395803051385000,9.659385009765625,0.08848762512207031,-0.028378009796142578,-0.008054137229919434
1761395803070763000,9.678762939453126,0.08817768096923828,-0.025160789489746094,-0.03340005874633789
1761395803090141000,9.698140869140625,0.009444236755371094,0.007298946380615234,0.018568456172943115
1761395803109518800,9.717518798828126,-0.044708251953125,0.02942371368408203,-0.05229520797729492
1761395803128896800,9.736896728515624,0.076141357421875,-0.010364532470703125,-0.12002384662628174
1761395803148274700,9.756274658203125,0.04718303680419922,0.0016703605651855469,-0.13456398248672485
1761395803167652600,9.775652587890624,0.0035228729248046875,0.029094219207763672,-0.05260998010635376
1761395803187030500,9.795030517578125,0.11075115203857422,0.0069732666015625,-0.01530909538269043
1761395803206408200,9.814408203125,0.1445484161376953,-0.00724029541015625,-0.09005898237228394
1761395803225786000,9.8337861328125,-0.05251312255859375,-0.027786731719970703,-0.05116069316864014
1761395803245164000,9.8531640625,-0.1249542236328125,0.011211872100830078,-0.008566498756408691
1761395803264542000,9.8725419921875,0.15107440948486328,-0.02171802520751953,0.0013270974159240723
1761395803283920000,9.891919921875,0.2554912567138672,-0.029565811157226562,0.04369837045669556
1761395803303297800,9.9112978515625,-0.1473245620727539,0.019220829010009766,0.09417784214019775
1761395803322675700,9.93067578125,-0.17373180389404297,0.016589641571044922,0.06286460161209106
1761395803342053600,9.9500537109375,0.00165557861328125,0.014892101287841797,-0.01217663288116455
1761395803361431600,9.969431640625,0.029855728149414062,0.028073787689208984,0.02983224391937256
1761395803380809500,9.9888095703125,0.06837844848632812,0.035841941833496094,0.09136092662811279
1761395803400187400,10.0081875,-0.004559516906738281,0.0435490608215332,0.1064043641090393
1761395803419565000,10.02756494140625,-0.13598251342773438,-0.0016222000122070312,0.22451865673065186
1761395803438943000,10.04694287109375,-0.0778656005859375,-0.045780181884765625,0.35487449169158936
1761395803458321000,10.06632080078125,0.061020851135253906,-0.10109281539916992,0.2714599370956421
1761395803477698800,10.08569873046875,-0.09810638427734375,-0.04996442794799805,0.43300485610961914
1761395803497076700,10.10507666015625,-0.3170356750488281,-0.004080772399902344,0.507814884185791
1761395803516454700,10.12445458984375,-0.23019981384277344,-0.05333995819091797,0.20529288053512573
1761395803535832600,10.14383251953125,0.123779296875,-0.07959365844726562,0.19305825233459473
1761395803555210500,10.16321044921875,0.3927316665649414,-0.11775684356689453,-0.0014927983283996582
1761395803574588400,10.18258837890625,0.2516202926635742,-0.0608973503112793,0.005717098712921143
1761395803593966000,10.201966064453124,-0.10686206817626953,0.01214599609375,0.20419132709503174
1761395803613344000,10.221343994140625,-0.22602272033691406,0.042334556579589844,0.1790980100631714
1761395803632722000,10.240721923828126,-0.14274978637695312,0.000209808349609375,-0.09276765584945679
1761395803652099800,10.260099853515625,-0.21415138244628906,0.05102968215942383,0.09435319900512695
1761395803671477800,10.279477783203125,-0.09343242645263672,0.04334402084350586,0.11019039154052734
1761395803690855700,10.298855712890624,0.18164539337158203,-0.030507564544677734,-0.09095048904418945
1761395803710233600,10.318233642578125,0.25296688079833984,-0.11673641204833984,-0.11426109075546265
1761395803729611500,10.337611572265626,0.2166271209716797,-0.09998846054077148,0.035793304443359375
1761395803748989400,10.356989501953125,0.04014873504638672,-0.08487653732299805,-0.02994292974472046
1761395803768367000,10.3763671875,-0.1226491928100586,0.0019249916076660156,0.0006268024444580078
1761395803787745000,10.3957451171875,-0.051552772521972656,0.005658149719238281,0.12863117456436157
1761395803807123000,10.415123046875,-0.06444168090820312,0.009239673614501953,0.1865330934524536
1761395803826500900,10.4345009765625,-0.08239555358886719,0.006626129150390625,0.08778709173202515
1761395803845878800,10.453878662109375,0.001007080078125,-0.04090070724487305,0.022055506706237793
1761395803865256700,10.473256591796876,0.19540023803710938,-0.057974815368652344,-0.20658698678016663
1761395803884634600,10.492634521484375,0.08643722534179688,-0.01319742202758789,-0.035125672817230225
1761395803904012500,10.512012451171875,-0.07194328308105469,0.05207490921020508,0.11681461334228516
1761395803923390500,10.531390380859374,-0.056122779846191406,0.07607746124267578,0.012337028980255127
1761395803942768400,10.550768310546875,-0.0013895034790039062,0.05116128921508789,-0.1503092646598816
1761395803962146300,10.570146240234376,0.043407440185546875,-0.02294921875,-0.14250484108924866
1761395803981524200,10.589524169921875,0.06516551971435547,-0.028717517852783203,-0.17708221077919006
1761395804000902000,10.60890185546875,0.1042327880859375,-0.044605255126953125,-0.07992830872535706
1761395804020279800,10.62827978515625,0.3186368942260742,-0.06012296676635742,-0.26522648334503174
1761395804039657700,10.64765771484375,0.07064247131347656,-0.012211799621582031,-0.027156591415405273
1761395804059035600,10.66703564453125,-0.00470733642578125,-0.014824390411376953,-0.28609877824783325
1761395804078413600,10.68641357421875,0.1294422149658203,-0.023192405700683594,-0.35614094138145447
1761395804097791500,10.70579150390625,0.07147026062011719,0.040778160095214844,-0.17958885431289673
1761395804117169400,10.72516943359375,0.0929403305053711,0.012377738952636719,-0.22984707355499268
1761395804136547300,10.74454736328125,0.124359130859375,0.030374526977539062,-0.38111981749534607
1761395804155925200,10.76392529296875,-0.05719280242919922,0.06894493103027344,-0.09759432077407837
1761395804175303000,10.783302978515625,0.006282806396484375,0.030240535736083984,-0.19356650114059448
1761395804194680800,10.802680908203126,0.21880531311035156,0.06390047073364258,-0.2794797420501709
1761395804214058800,10.822058837890625,0.239990234375,-0.17572927474975586,-0.07285481691360474
1761395804233436700,10.841436767578125,0.34651756286621094,-0.09182024002075195,-0.22974202036857605
1761395804252814600,10.860814697265624,0.017188072204589844,0.024417400360107422,0.07014542818069458
1761395804272192500,10.880192626953125,-0.3227987289428711,0.36379337310791016,-0.16460314393043518
1761395804291570400,10.8995703125,-0.22979736328125,-0.4294004440307617,0.4906004071235657
1761395804310948400,10.9189482421875,0.031757354736328125,0.10146427154541016,0.18322396278381348
1761395804330326300,10.938326171875,-0.02298259735107422,0.025580883026123047,0.34720760583877563
1761395804349704200,10.9577041015625,0.03477954864501953,0.051018714904785156,0.11015337705612183
1761395804369081900,10.977081787109375,-0.01882648468017578,0.03747701644897461,0.4193574786186218
1761395804388459800,10.996459716796876,0.015393257141113281,-0.07841014862060547,0.2158489227294922
1761395804407837700,11.015837646484375,-0.12598323822021484,-0.052672386169433594,0.21913117170333862
1761395804427215600,11.035215576171876,0.03884124755859375,0.29691362380981445,-0.1753852665424347
1761395804446593500,11.054593505859375,0.2246685028076172,-0.5286917686462402,0.29595762491226196
1761395804465971500,11.073971435546875,0.11740684509277344,-0.05572938919067383,0.30469805002212524
1761395804485349400,11.093349365234374,-0.08871078491210938,-0.041788578033447266,0.35835039615631104
1761395804504727300,11.112727294921875,-0.11655998229980469,-0.07966279983520508,-0.3032739758491516
1761395804524105200,11.132105224609376,-0.41396617889404297,0.016799449920654297,0.1641673445701599
1761395804543483000,11.15148291015625,-0.531062126159668,0.11754274368286133,0.479922890663147
1761395804562860800,11.17086083984375,-0.06943893432617188,-0.07188987731933594,-0.3988242745399475
