time,seconds_elapsed,z,y,x
1761395793541367800,0.149367919921875,0.072843536734581,0.010231691412627697,-0.00030542362947016954
1761395793561133000,0.169133056640625,0.03665083646774292,0.013744063675403595,-0.020463382825255394
1761395793580898600,0.188898681640625,0.05772506445646286,-0.015271181240677834,-0.041384901851415634
1761395793600664000,0.2086640625,0.08322793990373611,-0.012675080448389053,-0.0068720318377017975
1761395793620429300,0.22842919921875,0.053143709897994995,-0.012369656935334206,0.030389651656150818
1761395793640194800,0.24819482421875,0.036039989441633224,-0.034665580838918686,0.02076880633831024
1761395793659960000,0.2679599609375,0.04734066128730774,-0.04688252881169319,0.008704573847353458
1761395793679725600,0.2877255859375,0.024586603045463562,-0.03558185324072838,0.024128466844558716
1761395793699490800,0.30749072265625,0.0022906772792339325,-0.042606595903635025,0.025961007922887802
1761395793719256300,0.32725634765625,0.012064233422279358,-0.046729814261198044,0.02076880633831024
1761395793758562300,0.366562255859375,-0.03894151374697685,-0.026571854948997498,0.02901524491608143
1761395793777940200,0.385940185546875,-0.022754060104489326,-0.025961007922887802,0.038636088371276855
1761395793797318100,0.405318115234375,0.004428642801940441,-0.037108972668647766,0.031916771084070206
1761395793816696000,0.424696044921875,0.0016798300202935934,-0.033596597611904144,0.03405473381280899
1761395793836074000,0.444073974609375,-0.019394399598240852,-0.03008422814309597,0.01435491070151329
1761395793855452000,0.463451904296875,-0.007482878863811493,-0.02092151902616024,-0.02489202655851841
1761395793874829600,0.48282958984375,0.0030542362947016954,-0.011606098152697086,-0.040010496973991394
1761395793894207500,0.50220751953125,-0.0006108472589403391,-0.005650337319821119,-0.029473381116986275
1761395793913585400,0.52158544921875,0.005650337319821119,-0.0010689827613532543,-0.01710372418165207
1761395793932963300,0.54096337890625,0.009009997360408306,0.004886778071522713,-0.00259610079228878
1761395793952341200,0.56034130859375,0.006261184345930815,0.006413896102458239,-0.0050394898280501366
1761395793971719200,0.57971923828125,0.011300674639642239,0.02351761981844902,-0.012064233422279358
1761395793991097000,0.59909716796875,0.005650337319821119,0.02367033064365387,-0.04550812020897865
1761395794010474800,0.618474853515625,0.006261184345930815,-0.01954711228609085,-0.08628217875957489
1761395794029852700,0.637852783203125,0.02367033064365387,-0.045355409383773804,-0.04550812020897865
1761395794049230600,0.657230712890625,0.0328330397605896,-0.0462716780602932,0.031916771084070206
1761395794068608500,0.6766083984375,0.01725643500685692,-0.04459185153245926,0.034665580838918686
1761395794087986400,0.695986328125,0.023823043331503868,-0.02351761981844902,0.015576604753732681
1761395794107364400,0.7153642578125,0.031000498682260513,0.01725643500685692,0.004275931045413017
1761395794126742000,0.734741943359375,0.006719320081174374,0.016492875292897224,-0.023212196305394173
1761395794146120000,0.754119873046875,-0.021532366052269936,0.02092151902616024,-0.045202698558568954
1761395794165497900,0.773497802734375,-0.017409147694706917,0.028098974376916885,-0.022906772792339325
1761395794184875800,0.792875732421875,0.007788302376866341,0.01832541823387146,-0.005344913341104984
1761395794204253700,0.812253662109375,0.014202198944985867,0.00259610079228878,-0.0038177953101694584
1761395794223631600,0.831631591796875,0.002748812548816204,-0.008551862090826035,0.01252236869186163
1761395794243009500,0.851009521484375,0.005497625097632408,0.004734066314995289,0.028557108715176582
1761395794262387200,0.87038720703125,0.009773556143045425,0.006413896102458239,0.009773556143045425
1761395794281765000,0.88976513671875,-0.0030542362947016954,0.008246437646448612,-0.027946261689066887
1761395794301143000,0.90914306640625,-0.015423892997205257,0.01847812905907631,-0.04611896723508835
1761395794320521000,0.92852099609375,0.003359660040587187,0.01435491070151329,-0.03497100621461868
1761395794339899000,0.94789892578125,0.013285927474498749,0.0016798300202935934,-0.021685076877474785
1761395794359276800,0.96727685546875,0.004886778071522713,-0.00519220158457756,0.024281177669763565
1761395794378654700,0.98665478515625,-0.00015271181473508477,-0.0050394898280501366,0.05344913527369499
1761395794398032400,1.006032470703125,-0.012827792204916477,-0.013591351918876171,0.018936265259981155
1761395794417410300,1.025410400390625,-0.001985253533348441,-0.019394399598240852,-0.024586603045463562
1761395794436788200,1.044788330078125,0.0068720318377017975,-0.007788302376866341,-0.0065666078589856625
1761395794456166100,1.064166259765625,-0.009009997360408306,-0.0010689827613532543,-0.0016798300202935934
1761395794475544000,1.0835439453125,-0.001374406274408102,-0.006413896102458239,-0.01588202826678753
1761395794494922000,1.102921875,0.013285927474498749,0.0036650835536420345,0.001985253533348441
1761395794514300000,1.1222998046875,0.0004581354442052543,-0.0012216945178806782,0.005650337319821119
1761395794533677600,1.141677490234375,-0.012980503961443901,0.0007635590736754239,0.005650337319821119
1761395794553055500,1.161055419921875,-0.020463382825255394,-0.003359660040587187,0.014965757727622986
1761395794572433400,1.180433349609375,-0.008857285603880882,-0.0035123717971146107,0.02733541466295719
1761395794591811300,1.199811279296875,0.012216945178806782,-0.01511846948415041,0.029778804630041122
1761395794611189200,1.219189208984375,0.0009162708884105086,-0.020463382825255394,0.013744063675403595
1761395794630567200,1.238567138671875,-0.011911521665751934,-0.01725643500685692,0.006261184345930815
1761395794649944800,1.25794482421875,-0.0030542362947016954,-0.01038440316915512,0.0065666078589856625
1761395794669322800,1.27732275390625,-0.004734066314995289,-0.008857285603880882,-0.020157959312200546
1761395794688700700,1.29670068359375,0.0004581354442052543,-0.008399149402976036,-0.0198525357991457
1761395794708078600,1.31607861328125,0.00015271181473508477,-0.003970507066696882,0.0032069480512291193
1761395794727456500,1.33545654296875,-0.0007635590736754239,0.0038177953101694584,-0.001374406274408102
1761395794746834400,1.35483447265625,-0.005803049076348543,0.00916270911693573,-0.02351761981844902
1761395794766212400,1.37421240234375,0.0024433890357613564,0.004428642801940441,-0.0325276181101799
1761395794785590300,1.39359033203125,0.001985253533348441,0.0015271181473508477,-0.014660334214568138
1761395794804968000,1.412968017578125,-0.010995250195264816,-0.009315420873463154,0.011606098152697086
1761395794824345900,1.432345947265625,0.0050394898280501366,-0.011147962883114815,0.04306473210453987
1761395794843723800,1.451723876953125,0.021837789565324783,-0.01969982497394085,0.03680354729294777
1761395794863101700,1.471101806640625,-0.0036650835536420345,-0.02641914412379265,0.008399149402976036
1761395794882479600,1.490479736328125,-0.004581354558467865,-0.02107422985136509,0.010231691412627697
1761395794901857500,1.509857421875,0.006719320081174374,-0.009468132629990578,0.030389651656150818
1761395794921235200,1.529235107421875,-0.007024743594229221,0.0018325417768210173,0.025502873584628105
1761395794940613000,1.548613037109375,0.001374406274408102,0.0036650835536420345,-0.0038177953101694584
1761395794959991000,1.567990966796875,0.013285927474498749,0.0010689827613532543,-0.0016798300202935934
1761395794979369000,1.587368896484375,-0.005497625097632408,-0.001374406274408102,0.025808297097682953
1761395794998747000,1.606746826171875,-0.02229592576622963,-0.015271181240677834,0.02870982140302658
1761395795018124800,1.626124755859375,0.0015271181473508477,-0.021990500390529633,0.022601349279284477
1761395795037502700,1.645502685546875,0.003359660040587187,-0.013133215717971325,0.028557108715176582
1761395795056880600,1.664880615234375,-0.003359660040587187,-0.004428642801940441,0.022906772792339325
1761395795076258300,1.68425830078125,-0.010537114925682545,-0.0022906772792339325,-0.011911521665751934
1761395795095636200,1.70363623046875,-0.004734066314995289,0.012369656935334206,0.004734066314995289
1761395795115014100,1.72301416015625,0.005497625097632408,0.01832541823387146,0.0325276181101799
1761395795134392000,1.74239208984375,-0.002748812548816204,-0.0006108472589403391,0.013133215717971325
1761395795153770000,1.76177001953125,0.00030542362947016954,-0.015576604753732681,0.0010689827613532543
1761395795173148000,1.78114794921875,-0.006719320081174374,-0.009620844386518002,0.014049487188458443
1761395795192525600,1.800525634765625,-0.021379653364419937,-0.004123218823224306,-0.0004581354442052543
1761395795211903500,1.819903564453125,-0.006108472589403391,-0.00030542362947016954,-0.027029991149902344
1761395795231281400,1.839281494140625,0.001985253533348441,0.0036650835536420345,-0.01710372418165207
1761395795250659300,1.858659423828125,-0.00916270911693573,0.005650337319821119,0.008399149402976036
1761395795270037200,1.878037353515625,-0.008857285603880882,-0.0050394898280501366,0.019241688773036003
1761395795289415200,1.897415283203125,-0.005497625097632408,-0.016798298805952072,0.008704573847353458
1761395795308793000,1.91679296875,-0.021226942539215088,-0.010231691412627697,-0.00015271181473508477
1761395795328171000,1.9361708984375,-0.014813045971095562,0.00015271181473508477,0.0035123717971146107
1761395795347548700,1.955548583984375,0.0016798300202935934,-0.0021379655227065086,0.001985253533348441
1761395795366926600,1.974926513671875,-0.012064233422279358,0.0016798300202935934,-0.015576604753732681
1761395795386304500,1.994304443359375,-0.009468132629990578,-0.005803049076348543,-0.0261137206107378
1761395795405682400,2.013682373046875,0.011453386396169662,-0.004734066314995289,-0.0035123717971146107
1761395795425060400,2.033060302734375,0.018019994720816612,-0.0030542362947016954,0.027946261689066887
1761395795444438300,2.052438232421875,0.016492875292897224,-0.013285927474498749,0.020463382825255394
1761395795463816000,2.07181591796875,0.009620844386518002,-0.009009997360408306,-0.005955760832875967
1761395795483193900,2.09119384765625,0.0032069480512291193,-0.007024743594229221,-0.01435491070151329
1761395795502571800,2.11057177734375,0.008246437646448612,-0.0024433890357613564,0.0050394898280501366
1761395795521949700,2.12994970703125,0.008857285603880882,0.0036650835536420345,0.024586603045463562
1761395795541327600,2.14932763671875,-0.011453386396169662,0.010537114925682545,-0.0010689827613532543
1761395795560705500,2.16870556640625,-0.021990500390529633,0.008704573847353458,-0.03680354729294777
1761395795580083500,2.18808349609375,-0.003359660040587187,0.005803049076348543,-0.043981000781059265
1761395795599461400,2.20746142578125,-0.010078979656100273,0.0024433890357613564,-0.0328330397605896
1761395795618839000,2.226839111328125,-0.025502873584628105,0,-0.005650337319821119
1761395795638217000,2.246217041015625,-0.01817270554602146,0.0022906772792339325,0.0010689827613532543
1761395795657595000,2.265594970703125,-0.0038177953101694584,0.003359660040587187,-0.011911521665751934
1761395795676972800,2.284972900390625,-0.004275931045413017,0.008857285603880882,-0.029778804630041122
1761395795696350700,2.304350830078125,-0.00030542362947016954,0.013438640162348747,-0.03405473381280899
1761395795715728600,2.323728759765625,0.008551862090826035,0.01435491070151329,-0.01954711228609085
1761395795735106600,2.3431064453125,0.004734066314995289,0.009773556143045425,-0.009468132629990578
1761395795754484200,2.362484130859375,-0.005344913341104984,-0.0004581354442052543,-0.00259610079228878
1761395795773862100,2.381862060546875,0.007330167107284069,-0.01038440316915512,0.011300674639642239
1761395795793240000,2.401239990234375,0.013133215717971325,-0.012369656935334206,0.017409147694706917
1761395795812618000,2.420617919921875,-0.004275931045413017,-0.0016798300202935934,0.010078979656100273
1761395795831996000,2.439995849609375,-0.014202198944985867,0.004123218823224306,-0.0035123717971146107
1761395795851373800,2.459373779296875,-0.004428642801940441,0.010231691412627697,-0.001374406274408102
1761395795870751700,2.478751708984375,0.0016798300202935934,0.01511846948415041,0.004123218823224306
1761395795890129700,2.498129638671875,-0.010231691412627697,0.005344913341104984,-0.001985253533348441
1761395795909507300,2.51750732421875,0.0004581354442052543,-0.009468132629990578,-0.007941014133393764
1761395795928885200,2.53688525390625,0,-0.015271181240677834,0.018019994720816612
1761395795948263200,2.55626318359375,-0.012216945178806782,-0.012064233422279358,0.0331384651362896
1761395795967641000,2.57564111328125,-0.013133215717971325,-0.007482878863811493,0.02351761981844902
1761395795987019000,2.59501904296875,0.01252236869186163,0.008246437646448612,0.008857285603880882
1761395796006397000,2.61439697265625,0.01817270554602146,0.013591351918876171,-0.011147962883114815
1761395796025774600,2.633774658203125,-0.0050394898280501366,-0.004886778071522713,-0.01038440316915512
1761395796045152500,2.653152587890625,-0.013133215717971325,-0.024586603045463562,0.010231691412627697
1761395796064530400,2.672530517578125,-0.007024743594229221,-0.029626091942191124,0.020157959312200546
1761395796083908400,2.691908447265625,-0.013285927474498749,-0.04825693368911743,0.014507622458040714
1761395796103286300,2.711286376953125,-0.031000498682260513,-0.04230117425322533,0.02504473738372326
1761395796122664200,2.730664306640625,-0.028251685202121735,-0.021379653364419937,0.025961007922887802
1761395796142042000,2.7500419921875,-0.01710372418165207,-0.006261184345930815,-0.0029015245381742716
1761395796161419800,2.769419677734375,0.0009162708884105086,0.0009162708884105086,-0.023975754156708717
1761395796180797700,2.788797607421875,0.031916771084070206,0.005497625097632408,-0.013285927474498749
1761395796200175600,2.808175537109375,0.012369656935334206,0.012216945178806782,0.0010689827613532543
1761395796219553500,2.827553466796875,-0.013591351918876171,0.025350160896778107,0.0038177953101694584
1761395796238931500,2.846931396484375,0.0018325417768210173,0.0325276181101799,-0.020157959312200546
1761395796258309400,2.866309326171875,-0.0024433890357613564,0.020157959312200546,-0.0331384651362896
1761395796277687300,2.885687255859375,-0.03405473381280899,0.0036650835536420345,-0.008551862090826035
1761395796297065200,2.905065185546875,-0.025350160896778107,-0.020310672000050545,0.012980503961443901
1761395796316443000,2.92444287109375,-0.007330167107284069,-0.018630841746926308,0.010231691412627697
1761395796335820800,2.94382080078125,-0.013285927474498749,0.0010689827613532543,-0.0050394898280501366
1761395796355198700,2.96319873046875,0.011453386396169662,0.004734066314995289,-0.019241688773036003
1761395796374576600,2.98257666015625,0.0261137206107378,0.0009162708884105086,-0.01435491070151329
1761395796393954600,3.00195458984375,0.008704573847353458,-0.0012216945178806782,0.007941014133393764
1761395796413332500,3.02133251953125,0.0022906772792339325,0.02367033064365387,0.008551862090826035
1761395796432710400,3.04071044921875,0.006413896102458239,0.0198525357991457,-0.025350160896778107
1761395796452088000,3.060088134765625,-0.006108472589403391,-0.004428642801940441,-0.04153761267662048
1761395796471466000,3.079466064453125,0.0024433890357613564,-0.020310672000050545,-0.0038177953101694584
1761395796490844000,3.098843994140625,0.016340164467692375,-0.02244863659143448,0.03924693539738655
1761395796510221800,3.118221923828125,0.005344913341104984,-0.004581354558467865,0.0325276181101799
1761395796529599700,3.137599853515625,-0.015423892997205257,0.023212196305394173,-0.010078979656100273
1761395796548977700,3.156977783203125,-0.014202198944985867,0.021532366052269936,-0.04306473210453987
1761395796568355600,3.17635546875,-0.009468132629990578,0.007177455350756645,-0.029167955741286278
1761395796587733500,3.1957333984375,-0.009620844386518002,-0.004581354558467865,-0.0035123717971146107
1761395796607111400,3.215111328125,0.011606098152697086,-0.01969982497394085,0.01252236869186163
1761395796626489000,3.234489013671875,0.01832541823387146,-0.01710372418165207,0.008551862090826035
1761395796645867000,3.253866943359375,-0.0016798300202935934,-0.0036650835536420345,-0.0038177953101694584
1761395796665245000,3.273244873046875,0.006261184345930815,0.005650337319821119,-0.01252236869186163
1761395796684622800,3.292622802734375,0.020157959312200546,0.011147962883114815,-0.018936265259981155
1761395796704000800,3.312000732421875,0.007635590620338917,0.013133215717971325,-0.012216945178806782
1761395796723378700,3.331378662109375,0.0009162708884105086,0.01588202826678753,-0.010689826682209969
1761395796742756600,3.350756591796875,0.0006108472589403391,0.009773556143045425,-0.021379653364419937
1761395796762134300,3.37013427734375,-0.008246437646448612,0.012675080448389053,-0.02489202655851841
1761395796781512200,3.38951220703125,-0.01252236869186163,0.012980503961443901,-0.019241688773036003
1761395796800890000,3.40889013671875,0.00015271181473508477,0.008857285603880882,-0.007941014133393764
1761395796820268000,3.42826806640625,-0.0029015245381742716,0.003970507066696882,0.0016798300202935934
1761395796839646000,3.44764599609375,-0.012216945178806782,-0.0032069480512291193,0.00992626789957285
1761395796859024000,3.46702392578125,0.013896775431931019,-0.010537114925682545,0.0065666078589856625
1761395796878401800,3.48640185546875,0.019394399598240852,0.0016798300202935934,0.012827792204916477
1761395796897779700,3.50577978515625,-0.00259610079228878,0.014813045971095562,0.0032069480512291193
1761395796917157400,3.525157470703125,-0.014965757727622986,0.00992626789957285,-0.028251685202121735
1761395796936535300,3.544535400390625,-0.0021379655227065086,0.00030542362947016954,-0.0331384651362896
1761395796955913200,3.563913330078125,0.004734066314995289,0.008551862090826035,0.0035123717971146107
1761395796975291100,3.583291015625,0.004734066314995289,0.01695101149380207,0.015271181240677834
1761395796994669000,3.6026689453125,0.00259610079228878,0.004886778071522713,-0.01252236869186163
1761395797014047000,3.622046875,0.007177455350756645,-0.0065666078589856625,-0.025197450071573257
1761395797033425000,3.6414248046875,-0.0021379655227065086,-0.0018325417768210173,0.0032069480512291193
1761395797052802800,3.660802734375,-0.0021379655227065086,0.0022906772792339325,0.02641914412379265
1761395797072180500,3.680180419921875,0.00916270911693573,0.019088976085186005,0.01252236869186163
1761395797091558400,3.699558349609375,-0.0006108472589403391,0.018019994720816612,-0.021990500390529633
1761395797110936300,3.718936279296875,0.002748812548816204,0.010078979656100273,-0.030695075169205666
1761395797130314200,3.738314208984375,0.01969982497394085,-0.002748812548816204,-0.02076880633831024
1761395797149692200,3.757692138671875,0.025350160896778107,-0.018936265259981155,-0.006108472589403391
1761395797169070000,3.777070068359375,0.021990500390529633,-0.03771981969475746,0.013133215717971325
1761395797188447700,3.79644775390625,0.01954711228609085,-0.03237490355968475,0.01954711228609085
1761395797207825700,3.81582568359375,0.011300674639642239,-0.01175880990922451,0.021990500390529633
1761395797227203600,3.83520361328125,-0.005344913341104984,0.012980503961443901,-0.0029015245381742716
1761395797246581500,3.85458154296875,-0.013744063675403595,0.02092151902616024,-0.042453885078430176
1761395797265959400,3.87395947265625,-0.003359660040587187,0.020616095513105392,-0.03008422814309597
1761395797285337300,3.89333740234375,-0.012369656935334206,0.010537114925682545,-0.006108472589403391
1761395797304715300,3.91271533203125,-0.011453386396169662,-0.004734066314995289,-0.006719320081174374
1761395797324093200,3.93209326171875,0.005650337319821119,-0.008857285603880882,-0.0004581354442052543
1761395797343471000,3.95147119140625,0.0032069480512291193,-0.003970507066696882,0.007788302376866341
1761395797362848800,3.970848876953125,-0.013285927474498749,-0.0007635590736754239,-0.001985253533348441
1761395797382226700,3.990226806640625,-0.0065666078589856625,0.0018325417768210173,-0.011606098152697086
1761395797401604600,4.0096044921875,0.013896775431931019,0.001374406274408102,-0.009009997360408306
1761395797420982500,4.028982421875,0.008704573847353458,0.0009162708884105086,0.004428642801940441
1761395797440360400,4.0483603515625,0.0024433890357613564,0.004734066314995289,0.020463382825255394
1761395797459738400,4.06773828125,0.013896775431931019,0.004123218823224306,-0.00015271181473508477
1761395797479116300,4.0871162109375,0.016187451779842377,-0.004581354558467865,-0.023212196305394173
1761395797498494200,4.106494140625,0.013896775431931019,-0.0050394898280501366,-0.007788302376866341
1761395797517871900,4.125871826171875,-0.0004581354442052543,-0.008246437646448612,0.0016798300202935934
1761395797537249800,4.145249755859375,-0.007482878863811493,-0.0038177953101694584,0.001985253533348441
1761395797556627700,4.164627685546875,0.0010689827613532543,0.010842538438737392,0.0068720318377017975
1761395797576005600,4.184005615234375,-0.010842538438737392,0.015576604753732681,-0.008704573847353458
1761395797595479300,4.203479248046875,-0.016798298805952072,0.012369656935334206,-0.0328330397605896
1761395797634139400,4.242139404296875,-0.014507622458040714,0.001985253533348441,-0.02214321307837963
1761395797653517300,4.261517333984375,-0.017867282032966614,-0.005955760832875967,-0.017714571207761765
1761395797672895200,4.280895263671875,-0.008399149402976036,0.0038177953101694584,-0.005650337319821119
1761395797692273000,4.30027294921875,-0.0010689827613532543,0.0009162708884105086,-0.007177455350756645
1761395797711650800,4.31965087890625,0.014813045971095562,-0.016187451779842377,-0.018019994720816612
1761395797731028700,4.33902880859375,0.027182703837752342,-0.027946261689066887,-0.0022906772792339325
1761395797750406700,4.35840673828125,0.018936265259981155,-0.023212196305394173,0.025197450071573257
1761395797769784600,4.37778466796875,0.018936265259981155,-0.019088976085186005,0.02733541466295719
1761395797789162500,4.39716259765625,0.03176405653357506,-0.006108472589403391,0.01435491070151329
1761395797808540400,4.41654052734375,0.016645587980747223,-0.004581354558467865,-0.014660334214568138
1761395797827918000,4.43591796875,0.00519220158457756,-0.0032069480512291193,-0.03649812191724777
1761395797847296000,4.4552958984375,0.0029015245381742716,-0.004428642801940441,-0.010078979656100273
1761395797866674000,4.474673828125,0.0015271181473508477,-0.010995250195264816,0.010689826682209969
1761395797886051800,4.4940517578125,-0.006413896102458239,-0.007177455350756645,0.02076880633831024
1761395797905429800,4.5134296875,-0.011300674639642239,-0.007482878863811493,0.008093725889921188
1761395797924807700,4.5328076171875,-0.021532366052269936,-0.004275931045413017,-0.003970507066696882
1761395797944185600,4.552185546875,-0.009009997360408306,-0.0021379655227065086,-0.010689826682209969
1761395797963563500,4.5715634765625,0.005650337319821119,-0.011453386396169662,-0.006108472589403391
1761395797982941200,4.590941162109375,-0.0015271181473508477,-0.010995250195264816,0.005344913341104984
1761395798002319000,4.610319091796875,-0.005955760832875967,-0.012216945178806782,0.00015271181473508477
1761395798021697000,4.629697021484375,0.010842538438737392,-0.020463382825255394,-0.005497625097632408
1761395798041075000,4.649074951171875,0.02351761981844902,-0.021379653364419937,0.007482878863811493
1761395798060452900,4.668452880859375,0.007024743594229221,-0.006108472589403391,0.015576604753732681
1761395798079830800,4.687830810546875,-0.001374406274408102,-0.002748812548816204,-0.004428642801940441
1761395798099208700,4.707208740234375,0.011147962883114815,-0.01038440316915512,-0.024281177669763565
1761395798118586600,4.726586669921875,0.015423892997205257,-0.011911521665751934,-0.020157959312200546
1761395798137964500,4.745964599609375,0.004886778071522713,-0.013744063675403595,0.013744063675403595
1761395798157342200,4.76534228515625,0.008093725889921188,-0.020463382825255394,0.03405473381280899
1761395798176720100,4.78472021484375,-0.007941014133393764,-0.010231691412627697,0.021990500390529633
1761395798196098000,4.80409814453125,-0.0050394898280501366,-0.004275931045413017,-0.003970507066696882
1761395798215476000,4.82347607421875,0.009009997360408306,0.008857285603880882,-0.008857285603880882
1761395798234854000,4.84285400390625,0.0029015245381742716,0.01511846948415041,-0.005344913341104984
1761395798254231800,4.862231689453125,-0.006261184345930815,0.011453386396169662,-0.008551862090826035
1761395798273609700,4.881609619140625,-0.0038177953101694584,0.0018325417768210173,-0.004428642801940441
1761395798292987400,4.9009873046875,-0.007635590620338917,-0.011453386396169662,0.016187451779842377
1761395798312365300,4.920365234375,-0.008246437646448612,-0.0012216945178806782,0.0325276181101799
1761395798331743200,4.9397431640625,-0.012827792204916477,0.013744063675403595,0.012216945178806782
1761395798351121200,4.95912109375,-0.009773556143045425,0.01969982497394085,-0.02351761981844902
1761395798370499000,4.9784990234375,-0.008551862090826035,0.01847812905907631,-0.03130592033267021
1761395798389877000,4.997876953125,0.006261184345930815,0.010078979656100273,-0.010537114925682545
1761395798409255000,5.0172548828125,0.02244863659143448,-0.007024743594229221,-0.004734066314995289
1761395798428632800,5.0366328125,0.00259610079228878,-0.012369656935334206,0.0022906772792339325
1761395798448010800,5.0560107421875,-0.009773556143045425,-0.00015271181473508477,0.011300674639642239
1761395798467388400,5.075388427734375,0.0029015245381742716,0,0.0010689827613532543
1761395798486766300,5.094766357421875,-0.007177455350756645,0.005344913341104984,-0.00015271181473508477
1761395798506144300,5.114144287109375,-0.009009997360408306,0.006261184345930815,-0.0029015245381742716
1761395798525522200,5.133522216796875,0.0004581354442052543,0.004275931045413017,-0.018630841746926308
1761395798544900000,5.152900146484375,-0.004123218823224306,0.006413896102458239,-0.010078979656100273
1761395798564278000,5.172278076171875,0.009009997360408306,0.003359660040587187,0.0016798300202935934
1761395798583656000,5.191656005859375,0.016187451779842377,-0.008093725889921188,0.00916270911693573
1761395798603033900,5.211033935546875,0.00030542362947016954,-0.0036650835536420345,0.01954711228609085
1761395798622411500,5.23041162109375,-0.0030542362947016954,0.007788302376866341,0.017714571207761765
1761395798641789400,5.24978955078125,0.007482878863811493,0.008857285603880882,-0.005650337319821119
1761395798661167400,5.26916748046875,0.007482878863811493,0.00259610079228878,-0.011606098152697086
1761395798680545300,5.288545166015625,-0.005650337319821119,0.0065666078589856625,-0.00015271181473508477
1761395798699923200,5.307923095703125,-0.014507622458040714,0.012827792204916477,-0.0038177953101694584
1761395798719301000,5.327301025390625,-0.009620844386518002,0.010842538438737392,-0.011911521665751934
1761395798738679000,5.346678955078125,-0.005344913341104984,0.005344913341104984,-0.012827792204916477
1761395798758057000,5.366056884765625,-0.013591351918876171,0.0032069480512291193,-0.006719320081174374
1761395798777434600,5.3854345703125,-0.01511846948415041,0.0012216945178806782,0.0022906772792339325
1761395798796812500,5.4048125,-0.006413896102458239,0.0004581354442052543,0.011911521665751934
1761395798816190500,5.4241904296875,-0.0016798300202935934,0.0032069480512291193,0.00259610079228878
1761395798835568400,5.443568359375,-0.001985253533348441,-0.0009162708884105086,-0.007330167107284069
1761395798854946300,5.4629462890625,0.009315420873463154,0.006719320081174374,-0.0065666078589856625
1761395798874324200,5.48232421875,0.011147962883114815,-0.0022906772792339325,0.0007635590736754239
1761395798893702100,5.5017021484375,0.010842538438737392,0,0.006261184345930815
1761395798913080000,5.521080078125,0.004581354558467865,-0.004581354558467865,0.007177455350756645
1761395798932458000,5.5404580078125,0.001374406274408102,-0.008246437646448612,-0.010078979656100273
1761395798951836000,5.5598359375,0.007482878863811493,0.0012216945178806782,-0.005344913341104984
1761395798971213600,5.579213623046875,0.004734066314995289,0.014507622458040714,0.010078979656100273
1761395798990591500,5.598591552734375,-0.0016798300202935934,0.012980503961443901,-0.0007635590736754239
1761395799009969400,5.617969482421875,-0.00015271181473508477,-0.0015271181473508477,-0.01832541823387146
1761395799029347300,5.637347412109375,0.011300674639642239,-0.009620844386518002,0.0029015245381742716
1761395799048725200,5.656725341796875,0.0006108472589403391,-0.008857285603880882,0.029473381116986275
1761395799068103200,5.676103271484375,0,-0.007482878863811493,0.030695075169205666
1761395799087481000,5.695481201171875,-0.0018325417768210173,-0.0016798300202935934,0.008551862090826035
1761395799106859000,5.71485888671875,-0.0029015245381742716,0.007024743594229221,-0.01435491070151329
1761395799126236700,5.734236572265625,0.0016798300202935934,0.0030542362947016954,-0.010995250195264816
1761395799145614600,5.753614501953125,0.004581354558467865,0.0012216945178806782,0.010078979656100273
1761395799164992500,5.772992431640625,-0.0036650835536420345,0.00015271181473508477,0.016492875292897224
1761395799184370400,5.792370361328125,-0.0024433890357613564,-0.007635590620338917,-0.0029015245381742716
1761395799203748400,5.811748291015625,0.01572931744158268,-0.004123218823224306,-0.0065666078589856625
1761395799223126300,5.831126220703125,-0.0032069480512291193,0.0009162708884105086,-0.0038177953101694584
1761395799242504200,5.850504150390625,-0.01817270554602146,0.011300674639642239,-0.005344913341104984
1761395799261882000,5.869882080078125,-0.0007635590736754239,0.016340164467692375,0.0007635590736754239
1761395799281259800,5.889259765625,0.007482878863811493,0.015423892997205257,0.0032069480512291193
1761395799300637700,5.9086376953125,-0.004123218823224306,0.012980503961443901,-0.006261184345930815
1761395799320015600,5.928015625,-0.012369656935334206,-0.005955760832875967,-0.017714571207761765
1761395799339393500,5.9473935546875,-0.016492875292897224,-0.010842538438737392,-0.0038177953101694584
1761395799358771500,5.966771484375,-0.004886778071522713,-0.004734066314995289,0.017409147694706917
1761395799378149400,5.9861494140625,0.01038440316915512,0.0036650835536420345,0.014965757727622986
1761395799397527300,6.00552734375,-0.007788302376866341,0.011453386396169662,-0.007177455350756645
1761395799416905200,6.0249052734375,-0.018019994720816612,0.013896775431931019,-0.016798298805952072
1761395799436283100,6.044283203125,0.008399149402976036,0.006261184345930815,-0.01038440316915512
1761395799455660800,6.063660888671875,0.010537114925682545,0.007024743594229221,0.0038177953101694584
1761395799475038700,6.083038818359375,-0.001374406274408102,0.0038177953101694584,0.009773556143045425
1761395799494416600,6.102416748046875,-0.005955760832875967,-0.005497625097632408,0.00259610079228878
1761395799513794600,6.121794677734375,-0.00015271181473508477,-0.009468132629990578,-0.0035123717971146107
1761395799533172500,6.14117236328125,-0.001985253533348441,-0.003359660040587187,0.0029015245381742716
1761395799552550400,6.16055029296875,-0.005650337319821119,0.005955760832875967,0.0068720318377017975
1761395799571928300,6.17992822265625,-0.011453386396169662,0.009468132629990578,0.00015271181473508477
1761395799591306200,6.19930615234375,-0.009315420873463154,0.009620844386518002,-0.013438640162348747
1761395799610684200,6.21868408203125,0.001374406274408102,0.006413896102458239,-0.005955760832875967
1761395799630061800,6.238061767578125,0.004123218823224306,0.007635590620338917,0.007177455350756645
1761395799649439700,6.257439697265625,0.004428642801940441,0.008246437646448612,0.004734066314995289
1761395799668817700,6.276817626953125,-0.0010689827613532543,0.006108472589403391,-0.016187451779842377
1761395799688195600,6.296195556640625,0.0022906772792339325,-0.0006108472589403391,-0.011911521665751934
1761395799707573500,6.315573486328125,0.008551862090826035,-0.010689826682209969,0.013744063675403595
1761395799726951400,6.334951416015625,0.002748812548816204,-0.007635590620338917,0.012216945178806782
1761395799746329300,6.354329345703125,-0.0007635590736754239,-0.011453386396169662,-0.012827792204916477
1761395799765707300,6.373707275390625,0.020463382825255394,-0.027946261689066887,-0.007330167107284069
1761395799785085200,6.393085205078125,0.03161134570837021,-0.02504473738372326,0.028557108715176582
1761395799804463000,6.412463134765625,0.007024743594229221,-0.007024743594229221,0.0198525357991457
1761395799823840800,6.4318408203125,-0.016645587980747223,-0.00519220158457756,-0.021532366052269936
1761395799843218700,6.45121875,-0.010078979656100273,0.008399149402976036,-0.02764083817601204
1761395799862596600,6.4705966796875,-0.001374406274408102,0.00519220158457756,-0.007788302376866341
1761395799881974500,6.489974609375,-0.008551862090826035,-0.0035123717971146107,0.012216945178806782
1761395799901352400,6.5093525390625,-0.03023693896830082,0.0024433890357613564,0.0032069480512291193
1761395799920730400,6.52873046875,-0.029473381116986275,0.005497625097632408,-0.022754060104489326
1761395799940108300,6.5481083984375,-0.005803049076348543,0.01038440316915512,-0.031000498682260513
1761395799959486200,6.567486328125,-0.0018325417768210173,0.00916270911693573,-0.030695075169205666
1761395799978863900,6.58686376953125,0.004428642801940441,-0.012064233422279358,-0.026724567636847496
1761395799998241800,6.60624169921875,0.025502873584628105,-0.037108972668647766,-0.016492875292897224
1761395800017619700,6.62561962890625,0.021379653364419937,-0.03833066672086716,-0.00259610079228878
1761395800036997600,6.64499755859375,0.026571854948997498,-0.031153209507465363,0.021685076877474785
1761395800056375600,6.66437548828125,0.043981000781059265,-0.02092151902616024,0.020616095513105392
1761395800075753500,6.68375341796875,0.029778804630041122,-0.011147962883114815,-0.021990500390529633
1761395800095131400,6.70313134765625,0.02107422985136509,-0.009620844386518002,-0.05344913527369499
1761395800114509300,6.72250927734375,0.06001574173569679,-0.021685076877474785,-0.016645587980747223
1761395800153265000,6.761264892578125,0.04199574887752533,-0.011300674639642239,0.05238015204668045
1761395800172642800,6.780642822265625,0.04306473210453987,-0.019394399598240852,0.013744063675403595
1761395800192020700,6.800020751953125,0.06139015033841133,0.004734066314995289,-0.03649812191724777
1761395800211398700,6.819398681640625,0.08399149775505066,0.0390942245721817,-0.08292251825332642
1761395800230776600,6.838776611328125,0.08719844371080399,0.04321744292974472,-0.09345962852239609
1761395800250154500,6.858154541015625,0.13148486614227295,0.08368607610464096,-0.07605048269033432
1761395800269532400,6.877532470703125,0.17286977171897888,0.12064233422279358,-0.09239064902067184
1761395800288910300,6.896910400390625,0.17317520081996918,0.11942064017057419,-0.1563768982887268
1761395800308288300,6.916288330078125,0.1960819661617279,0.11377029865980148,-0.20661908388137817
1761395800327666000,6.935666015625,0.22509720921516418,0.03542914241552353,-0.13545538485050201
1761395800347043800,6.9550439453125,0.2495311051607132,0.07574506103992462,-0.05894676223397255
1761395800366421800,6.974421875,0.27289602160453796,0.08842013776302338,-0.055587101727724075
1761395800385799700,6.993799560546875,0.2298312783241272,0.03634541109204292,-0.04306473210453987
1761395800405177600,7.013177490234375,0.150421142578125,0.06841489672660828,-0.08780929446220398
1761395800424555500,7.032555419921875,0.02489202655851841,-0.022754060104489326,-0.08842013776302338
1761395800443933400,7.051933349609375,-0.07406523078680038,-0.11529742181301117,0.024281177669763565
1761395800463311400,7.071311279296875,0.017409147694706917,-0.09269607067108154,0.13484452664852142
1761395800482689000,7.09068896484375,0.1047603040933609,-0.16553960740566254,0.2295258641242981
1761395800502067000,7.11006689453125,0.13514995574951172,-0.22937314212322235,0.16844113171100616
1761395800521444900,7.12944482421875,0.18111620843410492,-0.2486148327589035,0.17928366363048553
1761395800540822800,7.14882275390625,0.11377029865980148,-0.23884128034114838,0.22723518311977386
1761395800560200700,7.16820068359375,0.03558185324072838,-0.18615570664405823,0.18401773273944855
1761395800579578600,7.18757861328125,-0.008246437646448612,-0.14965757727622986,0.11377029865980148
1761395800598961700,7.206961669921875,-0.05619794875383377,-0.12904147803783417,0.06368082761764526
1761395800618339600,7.226339599609375,-0.05467082932591438,-0.03955236077308655,0.032069481909275055
1761395800637717500,7.245717529296875,-0.06337540596723557,-0.04474456235766411,0.02214321307837963
1761395800657095400,7.265095458984375,-0.05528167635202408,0.02076880633831024,-0.04459185153245926
1761395800676473300,7.284473388671875,-0.0590994730591774,0.09834641218185425,-0.10216420143842697
1761395800695851300,7.303851318359375,-0.08124268800020218,0.04886778071522713,-0.13117945194244385
1761395800715229200,7.323229248046875,-0.09544488787651062,0.005803049076348543,-0.13316470384597778
1761395800734606800,7.34260693359375,-0.06520794332027435,-0.020005248486995697,-0.04214845970273018
1761395800753984800,7.36198486328125,-0.04214845970273018,-0.024586603045463562,0.010537114925682545
1761395800773362700,7.38136279296875,-0.058335911482572556,0.0198525357991457,-0.03497100621461868
1761395800792740600,7.40074072265625,-0.08674030750989914,0.04214845970273018,-0.0787992998957634
1761395800812118500,7.420118408203125,-0.09055810421705246,0.05100574716925621,-0.09834641218185425
1761395800831496400,7.439496337890625,-0.0922379344701767,0.08399149775505066,-0.07605048269033432
1761395800850874400,7.458874267578125,-0.09025268256664276,0.05008947476744652,-0.033443886786699295
1761395800870252300,7.478252197265625,-0.051922015845775604,0.018019994720816612,0.03588727489113808
1761395800889630200,7.497630126953125,-0.0584886260330677,0.042759306728839874,0.06856760382652283
1761395800909008100,7.517008056640625,-0.06368082761764526,0.04046862944960594,0.02076880633831024
1761395800928385800,7.5363857421875,-0.04871506989002228,0.05390727147459984,-0.04581354558467865
1761395800947763700,7.555763671875,-0.029320668429136276,0.05131116881966591,-0.06704048812389374
1761395800967141600,7.5751416015625,0.003359660040587187,0.017867282032966614,-0.04016320779919624
1761395800986519600,7.59451953125,-0.00916270911693573,-0.01832541823387146,-0.0035123717971146107
1761395801005897500,7.6138974609375,-0.036039989441633224,-0.013591351918876171,0.021379653364419937
1761395801025275400,7.633275390625,-0.04489727318286896,-0.01725643500685692,0.010842538438737392
1761395801044653300,7.6526533203125,-0.04993676394224167,-0.0007635590736754239,-0.023975754156708717
1761395801064031200,7.67203125,-0.0525328628718853,0.02107422985136509,-0.027029991149902344
1761395801083409200,7.6914091796875,-0.04825693368911743,0.03145863488316536,-0.025197450071573257
1761395801102786800,7.710786865234375,-0.009620844386518002,0.0032069480512291193,-0.0038177953101694584
1761395801122164700,7.730164794921875,-0.011300674639642239,-0.023212196305394173,0.001374406274408102
1761395801141542700,7.749542724609375,0.022906772792339325,-0.05650337040424347,0.04703523963689804
1761395801160920600,7.768920654296875,0.0390942245721817,-0.05238015204668045,0.062153708189725876
1761395801180298500,7.788298583984375,-0.02351761981844902,-0.036039989441633224,0.05070032179355621
1761395801199676400,7.807676513671875,-0.037261683493852615,0.0007635590736754239,0.01588202826678753
1761395801219054300,7.827054443359375,-0.021685076877474785,0.0038177953101694584,-0.03161134570837021
1761395801238432300,7.846432373046875,-0.06123743951320648,0.020463382825255394,-0.058183200657367706
1761395801257810000,7.865809814453125,-0.06795676052570343,0.0007635590736754239,-0.014660334214568138
1761395801277187800,7.885187744140625,-0.025502873584628105,-0.021990500390529633,0.0462716780602932
1761395801296565800,7.904565673828125,-0.02504473738372326,-0.0393996499478817,0.051922015845775604
1761395801315943700,7.923943603515625,-0.02641914412379265,-0.02901524491608143,0.021685076877474785
1761395801335321600,7.943321533203125,-0.013438640162348747,-0.0022906772792339325,-0.004428642801940441
1761395801354699500,7.962699462890625,-0.029626091942191124,0.016798298805952072,-0.04611896723508835
1761395801374077400,7.982077392578125,-0.051463883370161057,0.03451287001371384,-0.06306997686624527
1761395801393455400,8.001455322265626,-0.016798298805952072,0.023059483617544174,-0.0325276181101799
1761395801412833300,8.020833251953125,0.0015271181473508477,0.004123218823224306,0.009773556143045425
1761395801432211200,8.040211181640625,-0.014202198944985867,-0.00030542362947016954,0.039857782423496246
1761395801451589000,8.059589111328124,-0.011606098152697086,0.0012216945178806782,0.02351761981844902
1761395801470966800,8.078966796875,-0.0029015245381742716,0.019088976085186005,-0.009315420873463154
1761395801490344700,8.0983447265625,-0.020157959312200546,0.028098974376916885,-0.029473381116986275
1761395801509722600,8.11772265625,-0.031153209507465363,0.02733541466295719,-0.018936265259981155
1761395801529100500,8.1371005859375,-0.007788302376866341,0.0030542362947016954,-0.008551862090826035
1761395801548478500,8.156478515625,0.004581354558467865,-0.017867282032966614,-0.0010689827613532543
1761395801567856400,8.1758564453125,0.006108472589403391,-0.01817270554602146,0.013744063675403595
1761395801587234300,8.195234375,0.0036650835536420345,-0.007330167107284069,0.021685076877474785
1761395801606612200,8.2146123046875,-0.003970507066696882,-0.005955760832875967,0.011606098152697086
1761395801625990100,8.233990234375,-0.001374406274408102,0.0022906772792339325,0.0035123717971146107
1761395801645367800,8.253367919921875,0.001985253533348441,0.015423892997205257,0.0004581354442052543
1761395801664745700,8.272745849609375,-0.0068720318377017975,0.0065666078589856625,-0.010995250195264816
1761395801684123600,8.29212353515625,-0.012675080448389053,0.00259610079228878,-0.01252236869186163
1761395801703501600,8.31150146484375,-0.008399149402976036,0.0065666078589856625,-0.00259610079228878
1761395801722879500,8.33087939453125,0.0035123717971146107,-0.003359660040587187,-0.0032069480512291193
1761395801742257400,8.35025732421875,0.020310672000050545,-0.0029015245381742716,0.004123218823224306
1761395801761635300,8.36963525390625,0.007330167107284069,-0.012064233422279358,0.0035123717971146107
1761395801781013200,8.38901318359375,0.01954711228609085,-0.024433890357613564,0.017409147694706917
1761395801800391200,8.40839111328125,0.0331384651362896,-0.03176405653357506,0.03436015918850899
1761395801819768800,8.427768798828126,0.023364907130599022,-0.030847785994410515,0.03955236077308655
1761395801839146800,8.447146728515625,0.008704573847353458,-0.028251685202121735,0.020463382825255394
1761395801858524700,8.466524658203125,0.01832541823387146,-0.011453386396169662,-0.0004581354442052543
1761395801877902600,8.485902587890624,0.007788302376866341,0.011606098152697086,-0.00015271181473508477
1761395801897280500,8.505280517578125,-0.005650337319821119,0.021532366052269936,-0.009620844386518002
1761395801916658400,8.524658447265624,-0.015576604753732681,0.03420744836330414,-0.029473381116986275
1761395801936036400,8.544036376953125,-0.019088976085186005,0.025961007922887802,-0.04306473210453987
1761395801955414300,8.563414306640626,-0.009773556143045425,0.021532366052269936,-0.031916771084070206
1761395801974792200,8.582792236328125,-0.0007635590736754239,0.007941014133393764,-0.010689826682209969
1761395801994169900,8.602169921875,0,0.001374406274408102,0.014049487188458443
1761395802013547800,8.6215478515625,0.003970507066696882,-0.01572931744158268,0.0038177953101694584
1761395802032925700,8.64092578125,0.0050394898280501366,-0.029626091942191124,-0.011606098152697086
1761395802052303600,8.6603037109375,0.017714571207761765,-0.016034740954637527,0.02107422985136509
1761395802071681500,8.679681640625,0.033291175961494446,-0.011911521665751934,0.0328330397605896
1761395802091059500,8.6990595703125,0.033291175961494446,-0.003970507066696882,0.007024743594229221
1761395802110437400,8.718437255859374,0.01969982497394085,0,-0.014965757727622986
1761395802129815300,8.737815185546875,0.010842538438737392,-0.0029015245381742716,-0.018019994720816612
1761395802149193200,8.757193115234376,0.013285927474498749,0.0015271181473508477,-0.0010689827613532543
1761395802168571100,8.776571044921875,0.019241688773036003,-0.007482878863811493,0.018019994720816612
1761395802187949000,8.795948974609376,0.028098974376916885,-0.018936265259981155,0.01954711228609085
1761395802207326700,8.81532666015625,0.010689826682209969,-0.015423892997205257,0.009315420873463154
1761395802226704600,8.83470458984375,-0.012064233422279358,-0.0038177953101694584,-0.0010689827613532543
1761395802246082600,8.85408251953125,-0.012369656935334206,-0.004886778071522713,-0.014660334214568138
1761395802265460500,8.87346044921875,-0.001374406274408102,-0.003970507066696882,-0.014049487188458443
1761395802284838400,8.89283837890625,-0.001374406274408102,0,-0.007635590620338917
1761395802304216300,8.91221630859375,-0.0004581354442052543,-0.0012216945178806782,-0.007941014133393764
1761395802323594200,8.93159423828125,0.00015271181473508477,-0.012827792204916477,-0.007024743594229221
1761395802342972200,8.95097216796875,0.0009162708884105086,-0.021685076877474785,0.008399149402976036
1761395802362349800,8.970349853515625,0.004275931045413017,-0.02886253222823143,0.01832541823387146
1761395802381727700,8.989727783203126,0.006413896102458239,-0.009773556143045425,0.018019994720816612
1761395802401105700,9.009105712890625,0.0004581354442052543,0.019088976085186005,-0.005650337319821119
1761395802420483600,9.028483642578125,-0.011606098152697086,0.007024743594229221,-0.04978405311703682
1761395802439861500,9.047861572265624,0.011606098152697086,-0.012827792204916477,-0.046424392610788345
1761395802459239400,9.067239501953125,0.02901524491608143,-0.021226942539215088,0.01038440316915512
1761395802478617300,9.086617431640626,0.011147962883114815,-0.02367033064365387,0.04978405311703682
1761395802497995300,9.105995361328125,0.008704573847353458,-0.024281177669763565,0.03802524134516716
1761395802517373200,9.125373291015626,0.01817270554602146,-0.0029015245381742716,-0.008399149402976036
1761395802536750800,9.144750732421874,0.013438640162348747,0.009315420873463154,-0.023212196305394173
1761395802556128800,9.164128662109375,0.01511846948415041,0.0004581354442052543,-0.018936265259981155
1761395802575506700,9.183506591796874,0.027182703837752342,-0.015576604753732681,0.0029015245381742716
1761395802594884600,9.202884521484375,0.024433890357613564,-0.026877280324697495,0.01252236869186163
1761395802614262500,9.222262451171876,0.005803049076348543,-0.021532366052269936,0.011911521665751934
1761395802633640400,9.241640380859375,0.0035123717971146107,-0.008399149402976036,-0.004123218823224306
1761395802653018400,9.261018310546875,0.01817270554602146,0.00030542362947016954,-0.016187451779842377
1761395802672396300,9.280396240234374,0.01695101149380207,0.00992626789957285,-0.011300674639642239
1761395802691774200,9.299774169921875,-0.0035123717971146107,0.012369656935334206,-0.01038440316915512
1761395802711152000,9.319152099609376,0.012980503961443901,0.005650337319821119,-0.00259610079228878
1761395802730530000,9.338530029296875,0.01038440316915512,-0.013896775431931019,0.008399149402976036
1761395802749907700,9.35790771484375,0.004275931045413017,-0.030389651656150818,0.010231691412627697
1761395802769285600,9.37728564453125,0.04062134400010109,-0.03268032893538475,0.010995250195264816
1761395802788663600,9.39666357421875,0.046729814261198044,-0.00992626789957285,0.009468132629990578
1761395802808041500,9.41604150390625,0.029167955741286278,0.0024433890357613564,-0.015271181240677834
1761395802827419400,9.43541943359375,0.031153209507465363,-0.007482878863811493,-0.036192700266838074
1761395802846797300,9.45479736328125,0.03802524134516716,-0.02076880633831024,-0.011911521665751934
1761395802866175200,9.47417529296875,0.032069481909275055,-0.025502873584628105,0.023212196305394173
1761395802885553200,9.49355322265625,0.022906772792339325,-0.022906772792339325,0.010078979656100273
1761395802904931000,9.51293115234375,0.020005248486995697,-0.019241688773036003,-0.00015271181473508477
1761395802924308700,9.532308837890625,0.005497625097632408,-0.020616095513105392,-0.0038177953101694584
1761395802943686700,9.551686767578126,-0.001374406274408102,-0.02092151902616024,-0.007635590620338917
1761395802963064600,9.571064697265625,0.007330167107284069,-0.01695101149380207,0.0016798300202935934
1761395802982442500,9.5904423828125,0.007635590620338917,-0.01511846948415041,0.008704573847353458
1761395803001820400,9.6098203125,-0.001374406274408102,-0.008551862090826035,-0.0038177953101694584
1761395803021198300,9.6291982421875,0.0035123717971146107,-0.012369656935334206,-0.01252236869186163
1761395803040576300,9.648576171875,-0.0032069480512291193,-0.01847812905907631,-0.015576604753732681
1761395803059954200,9.6679541015625,0.001985253533348441,-0.015423892997205257,-0.008246437646448612
1761395803079332000,9.68733203125,0.009315420873463154,-0.012369656935334206,0.001374406274408102
1761395803098709800,9.706709716796874,0.004734066314995289,-0.010078979656100273,0.0022906772792339325
1761395803118087700,9.726087646484375,0.0032069480512291193,-0.003359660040587187,-0.008246437646448612
1761395803137465600,9.745465576171876,0.012675080448389053,-0.004123218823224306,-0.0029015245381742716
1761395803156843500,9.764843505859375,0.02244863659143448,-0.010689826682209969,-0.0022906772792339325
1761395803176221400,9.784221435546876,0.017867282032966614,-0.008551862090826035,-0.009468132629990578
1761395803195599400,9.803599365234374,0.010231691412627697,0.007330167107284069,0.0032069480512291193
1761395803214977300,9.822977294921875,0.014660334214568138,0.003970507066696882,0.02489202655851841
1761395803234355200,9.842355224609374,0.014660334214568138,-0.004734066314995289,0.01038440316915512
1761395803253733000,9.861733154296875,0.01572931744158268,-0.007941014133393764,-0.016798298805952072
1761395803273111000,9.881111083984376,0.013744063675403595,-0.006261184345930815,0.006261184345930815
1761395803292489000,9.900489013671875,0.010842538438737392,-0.008857285603880882,0.04734066128730774
1761395803311867000,9.919866943359375,-0.00519220158457756,0.0022906772792339325,0.020157959312200546
1761395803331244500,9.93924462890625,-0.013896775431931019,0.00992626789957285,-0.010689826682209969
1761395803350622500,9.95862255859375,-0.006261184345930815,0.007788302376866341,-0.005650337319821119
1761395803370000400,9.97800048828125,-0.001985253533348441,0.005497625097632408,0.0010689827613532543
1761395803389378300,9.99737841796875,-0.0006108472589403391,-0.004581354558467865,0.009773556143045425
1761395803408756200,10.016756103515625,0.0021379655227065086,0.0065666078589856625,0.018936265259981155
1761395803428134100,10.036134033203124,-0.004734066314995289,0.0029015245381742716,0.01038440316915512
1761395803447512000,10.055511962890625,-0.026877280324697495,-0.0006108472589403391,0.008399149402976036
1761395803466890000,10.074889892578126,-0.027182703837752342,0.004428642801940441,0.02733541466295719
1761395803486268000,10.094267822265625,-0.036039989441633224,0.028557108715176582,0.02504473738372326
1761395803505645600,10.1136455078125,-0.05925218388438225,0.042759306728839874,-0.010842538438737392
1761395803525023500,10.1330234375,-0.04963133856654167,0.032222192734479904,-0.058183200657367706
1761395803544401400,10.1524013671875,-0.05100574716925621,0.02870982140302658,-0.047951508313417435
1761395803563779300,10.171779296875,-0.03817795217037201,0.00015271181473508477,0.009009997360408306
1761395803583157200,10.1911572265625,-0.023364907130599022,-0.014813045971095562,0.049173206090927124
1761395803602535200,10.21053515625,-0.039857782423496246,-0.005497625097632408,0.03833066672086716
1761395803621913000,10.2299130859375,-0.060779303312301636,0.017714571207761765,0.011147962883114815
1761395803641291000,10.249291015625,-0.03298575058579445,0.04947862774133682,-0.005344913341104984
1761395803660669000,10.2686689453125,-0.037108972668647766,0.06688777357339859,-0.03680354729294777
1761395803680046600,10.288046630859375,-0.053143709897994995,0.06688777357339859,-0.053143709897994995
1761395803699424500,10.307424560546876,-0.04993676394224167,0.060932014137506485,-0.032222192734479904
1761395803718802400,10.326802490234375,-0.0397050715982914,0.05115845799446106,-0.004734066314995289
1761395803738180400,10.346180419921875,-0.04749337583780289,0.047951508313417435,0.02489202655851841
1761395803757558300,10.365558349609374,-0.045202698558568954,0.029167955741286278,0.02886253222823143
1761395803776936200,10.384936279296875,-0.047798797488212585,0.021532366052269936,0.0022906772792339325
1761395803796314000,10.404314208984376,-0.06444438546895981,0.034818295389413834,-0.012216945178806782
1761395803815692000,10.423692138671875,-0.0781884491443634,0.0659715011715889,-0.01588202826678753
1761395803835070000,10.443070068359376,-0.08750387281179428,0.06261184066534042,-0.025502873584628105
1761395803854447600,10.462447509765624,-0.0844496339559555,0.07269082218408585,-0.027946261689066887
1761395803873825500,10.481825439453125,-0.0393996499478817,0.06765133142471313,-0.0032069480512291193
1761395803893203500,10.501203369140624,-0.029320668429136276,0.06368082761764526,0.0050394898280501366
1761395803912581400,10.520581298828125,-0.04886778071522713,0.06933116167783737,-0.008399149402976036
1761395803931959300,10.539959228515626,-0.05787777900695801,0.06322269141674042,-0.02489202655851841
1761395803951337200,10.559337158203125,-0.03497100621461868,0.06704048812389374,-0.031916771084070206
1761395803970715100,10.578715087890625,-0.019394399598240852,0.06062658876180649,-0.03680354729294777
1761395803990093000,10.598093017578124,-0.010231691412627697,0.04459185153245926,-0.036192700266838074
1761395804009471000,10.617470947265625,-0.02351761981844902,0.02870982140302658,-0.034665580838918686
1761395804028849000,10.636848876953126,-0.007788302376866341,0.031153209507465363,0.006413896102458239
1761395804048226800,10.656226806640625,-0.025502873584628105,0.027946261689066887,0.007788302376866341
1761395804067604700,10.675604736328125,-0.01695101149380207,0.014965757727622986,-0.001985253533348441
1761395804086982400,10.694982421875,0.005955760832875967,0.0015271181473508477,0.0038177953101694584
1761395804106360300,10.7143603515625,-0.0029015245381742716,-0.008246437646448612,-0.0029015245381742716
1761395804125738200,10.73373828125,-0.0029015245381742716,-0.013133215717971325,-0.00259610079228878
1761395804145116200,10.7531162109375,0.036192700266838074,-0.01175880990922451,0.004428642801940441
1761395804164494000,10.772494140625,0.02641914412379265,-0.008704573847353458,-0.013438640162348747
1761395804183872000,10.7918720703125,0.029167955741286278,-0.006261184345930815,-0.0198525357991457
1761395804203250000,10.81125,0.05008947476744652,-0.022906772792339325,0.0007635590736754239
1761395804222627800,10.8306279296875,0.05207473039627075,-0.04016320779919624,0.018936265259981155
1761395804242005800,10.850005859375,0.08032641559839249,-0.0528382882475853,0.06826218217611313
1761395804261383400,10.869383544921876,0.06948387622833252,-0.04321744292974472,0.07482878863811493
1761395804280761300,10.88876123046875,0.0984991192817688,-0.026877280324697495,0.022754060104489326
1761395804300139300,10.90813916015625,0.04291202127933502,-0.03771981969475746,-0.013744063675403595
1761395804319517200,10.92751708984375,0.03298575058579445,-0.028098974376916885,-0.0004581354442052543
1761395804338895000,10.94689501953125,0.002748812548816204,-0.02367033064365387,0.016798298805952072
1761395804358273000,10.96627294921875,0.008399149402976036,-0.039857782423496246,0.029778804630041122
1761395804377651000,10.98565087890625,-0.009620844386518002,-0.025808297097682953,0.029320668429136276
1761395804397028900,11.00502880859375,0.0007635590736754239,-0.009315420873463154,0.04306473210453987
1761395804416406800,11.02440673828125,0.005955760832875967,0.0010689827613532543,0.049173206090927124
1761395804435784700,11.04378466796875,0.05894676223397255,0.038788799196481705,0.10140064358711243
1761395804455162400,11.063162353515626,0.08811471611261368,-0.005803049076348543,0.09651386737823486
1761395804474540300,11.082540283203125,0.047798797488212585,-0.022906772792339325,0.09727742522954941
1761395804493918200,11.101918212890626,-0.0018325417768210173,-0.00030542362947016954,0.07070557028055191
1761395804513296100,11.121296142578124,0.04428642615675926,0.02489202655851841,0.025502873584628105
1761395804532674000,11.140674072265625,0.0065666078589856625,0.047951508313417435,-0.061084724962711334
1761395804552052000,11.160052001953124,-0.1298050433397293,0.033291175961494446,-0.15500248968601227
