time,seconds_elapsed,z,y,x
1761299839043319300,0.0753193359375,-1.1051180362701416,-1.4139455556869507,-0.38340890407562256
1761299839063441200,0.095441162109375,-1.3227516412734985,-1.2636306285858154,-0.9441587924957275
1761299839083563300,0.115563232421875,-1.5521419048309326,-1.6389615535736084,-1.032557725906372
1761299839103685000,0.13568505859375,-1.885283350944519,-1.801490306854248,-1.1562761068344116
1761299839123806200,0.15580615234375,-2.1324193477630615,-1.6730961799621582,-1.3751442432403564
1761299839143928300,0.17592822265625,-2.045046329498291,-1.1729130744934082,-1.1835601329803467
1761299839164050400,0.196050537109375,-1.821938395500183,-0.7216348052024841,-0.6337573528289795
1761299839184172000,0.216172119140625,-1.6490817070007324,-0.565704345703125,-0.173936665058136
1761299839204294100,0.236294189453125,-1.5295017957687378,-0.8756399750709534,-0.08503632247447968
1761299839224416300,0.256416259765625,-1.4266026020050049,-1.3957901000976562,-0.3018420338630676
1761299839244537300,0.276537353515625,-1.3914766311645508,-1.6821681261062622,-0.5001915097236633
1761299839264659200,0.2966591796875,-1.4816679954528809,-1.4112244844436646,-0.5026101469993591
1761299839284781300,0.31678125,-1.6563016176223755,-0.905612587928772,-0.4962471127510071
1761299839304903200,0.336903076171875,-1.8156838417053223,-0.45157232880592346,-0.4310043156147003
1761299839325024000,0.35702392578125,-1.8905620574951172,-0.3228468596935272,-0.3590828776359558
1761299839345146000,0.37714599609375,-1.8786083459854126,-0.4997081756591797,-0.335557222366333
1761299839365268200,0.397268310546875,-1.7457109689712524,-0.6205986738204956,-0.3018343150615692
1761299839385390300,0.417390380859375,-1.6544296741485596,-0.5183311700820923,-0.2669122517108917
1761299839405512400,0.437512451171875,-1.7239948511123657,-0.49792900681495667,-0.18612729012966156
1761299839425634000,0.457634033203125,-1.8886319398880005,-0.6913835406303406,-0.06370196491479874
1761299839445755100,0.477755126953125,-1.8838127851486206,-1.0687847137451172,-0.028844915330410004
1761299839465877200,0.497877197265625,-1.7477203607559204,-1.3670974969863892,-0.06473234295845032
1761299839485999400,0.517999267578125,-1.6834825277328491,-1.0209978818893433,-0.1841908097267151
1761299839506121200,0.538121337890625,-1.7140183448791504,-0.45799368619918823,-0.14253206551074982
1761299839526243300,0.558243408203125,-1.8609555959701538,0.02472556009888649,-0.08158855140209198
1761299839546364400,0.578364501953125,-1.9051868915557861,-0.045397985726594925,-0.17029288411140442
1761299839566486000,0.598486083984375,-1.7649365663528442,-0.3498132824897766,-0.3708460330963135
1761299839586608000,0.618608154296875,-1.6022785902023315,-0.4604797065258026,-0.35901424288749695
1761299839606730200,0.638730224609375,-1.4920923709869385,-0.3703923523426056,-0.11683938652276993
1761299839626852400,0.658852294921875,-1.3828035593032837,-0.3319021463394165,-0.07588013261556625
1761299839646973200,0.67897314453125,-1.351902723312378,-0.5341484546661377,-0.5295442342758179
1761299839667095300,0.69909521484375,-1.3620918989181519,-0.909369945526123,-0.9039812684059143
1761299839687217200,0.719217041015625,-1.1499515771865845,-0.9555256962776184,-0.6927980184555054
1761299839707339300,0.73933935546875,-0.7542273998260498,-0.31495019793510437,0.033313579857349396
1761299839727462100,0.759462158203125,-0.48023977875709534,0.2469155490398407,0.7786061763763428
1761299839747583000,0.7795830078125,-0.3601415455341339,0.2581108808517456,1.085711121559143
1761299839767705000,0.799705078125,-0.23783133924007416,-0.1264008730649948,0.8887999653816223
1761299839787827000,0.819826904296875,-0.1315632164478302,-0.6357535719871521,0.4900529384613037
1761299839807949000,0.839948974609375,-0.08529756218194962,-0.9142771363258362,-0.0005693856510333717
1761299839828071000,0.86007080078125,-0.1212717816233635,-0.8182312250137329,-0.29855895042419434
1761299839848192000,0.88019189453125,-0.17092299461364746,-0.46435415744781494,-0.18176306784152985
1761299839868314000,0.900314208984375,-0.14950570464134216,-0.07562971115112305,0.25373852252960205
1761299839888436000,0.92043603515625,0.0070799835957586765,0.14801421761512756,0.6665382981300354
1761299839908557800,0.940557861328125,0.1704043298959732,0.10153530538082123,0.7722610831260681
1761299839928680000,0.960679931640625,0.3070564270019531,-0.08016663789749146,0.5802958607673645
1761299839948801000,0.980801025390625,0.30548128485679626,-0.2790836691856384,0.26544058322906494
1761299839968923100,1.000923095703125,0.207936629652977,-0.4758020043373108,-0.015652669593691826
1761299839989045000,1.021044921875,0.14121820032596588,-0.5338121056556702,-0.10798589140176773
1761299840009166800,1.041166748046875,0.14325211942195892,-0.3859553933143616,-0.10170752555131912
1761299840029289000,1.0612890625,0.1610373556613922,-0.11794303357601166,-0.009586448781192303
1761299840049410000,1.08141015625,0.18671980500221252,0.0946563333272934,0.09442932903766632
1761299840069532000,1.101531982421875,0.20150786638259888,0.08303360641002655,0.24478450417518616
1761299840089654000,1.121654052734375,0.21310657262802124,-0.0480804517865181,0.3533349931240082
1761299840109776100,1.141776123046875,0.1924462467432022,-0.25450482964515686,0.2458353489637375
1761299840129898000,1.16189794921875,0.12951111793518066,-0.33740246295928955,-0.07769843935966492
1761299840150019800,1.182019775390625,-0.10302653163671494,-0.4494331181049347,-0.18149009346961975
1761299840170141000,1.202140869140625,-0.32995283603668213,-0.42318782210350037,-0.00980983767658472
1761299840190263000,1.222262939453125,-0.5245050191879272,-0.23665352165699005,0.03524826839566231
1761299840210385200,1.24238525390625,-0.7659822106361389,-0.011429714038968086,-0.34357184171676636
1761299840230507000,1.262507080078125,-0.9518142938613892,0.22859123349189758,-1.253759503364563
1761299840250628900,1.28262890625,-0.7666856050491333,0.6139448881149292,-1.8557565212249756
1761299840270750000,1.30275,-0.39298349618911743,0.8995347023010254,-1.3718831539154053
1761299840290872000,1.3228720703125,0.07542642205953598,0.7453949451446533,-0.01819390244781971
1761299840310994000,1.342993896484375,0.5737943053245544,0.21404163539409637,1.0857102870941162
1761299840331116000,1.363115966796875,0.7292360067367554,-0.11630462855100632,1.3520467281341553
1761299840351238000,1.38323779296875,0.388899028301239,-0.05601921305060387,0.7165742516517639
1761299840371359000,1.40335888671875,-0.19536526501178741,-0.23907089233398438,-0.4109480082988739
1761299840391480800,1.423480712890625,-0.879510760307312,-0.49297887086868286,-1.2087657451629639
1761299840411603000,1.44360302734375,-1.3699157238006592,-0.5455682277679443,-1.144026756286621
1761299840431725000,1.46372509765625,-1.3552439212799072,-0.29104432463645935,-0.4178796112537384
1761299840451847200,1.48384716796875,-0.946678876876831,0.2925375699996948,0.16133327782154083
1761299840471968000,1.503968017578125,-0.5927685499191284,0.784989058971405,0.3148849606513977
1761299840492090000,1.524090087890625,-0.4059637784957886,0.9588452577590942,0.4623495638370514
1761299840512212000,1.5442119140625,-0.36243733763694763,0.8772479891777039,0.6014537811279297
1761299840532334000,1.564333984375,-0.4558864235877991,0.5196857452392578,0.6625828146934509
1761299840552456000,1.5844560546875,-0.6062913537025452,-0.031945932656526566,0.6408483982086182
1761299840572577000,1.604576904296875,-0.7149462103843689,-0.4418635964393616,0.5044429898262024
1761299840592699100,1.62469921875,-0.6935595870018005,-0.4815143942832947,0.1872042417526245
1761299840612821000,1.644821044921875,-0.5991474986076355,-0.5292479991912842,-0.0173477865755558
1761299840632942800,1.66494287109375,-0.5278826355934143,-0.7089357376098633,0.008198105730116367
1761299840653065000,1.68506494140625,-0.5630590915679932,-0.7760429382324219,0.08635928481817245
1761299840673186000,1.70518603515625,-0.6680187582969666,-0.6219863891601562,0.0032434621825814247
1761299840693308000,1.725307861328125,-0.7973507046699524,-0.42595458030700684,-0.2027183175086975
1761299840713430000,1.745429931640625,-0.881925106048584,-0.32932838797569275,-0.4879518747329712
1761299840733551600,1.765551513671875,-0.8040704727172852,-0.1807916760444641,-0.7298250794410706
1761299840753673700,1.785673828125,-0.6394460797309875,0.1775520294904709,-0.7404062747955322
1761299840773795800,1.8057958984375,-0.5485742092132568,0.509039580821991,-0.5506627559661865
1761299840793916700,1.825916748046875,-0.4934561550617218,0.7208594083786011,-0.3761139512062073
1761299840814038800,1.846038818359375,-0.3226754665374756,0.6683919429779053,-0.048150040209293365
1761299840834161000,1.866160888671875,-0.04837356507778168,0.4800066649913788,0.3530975878238678
1761299840854282500,1.886282470703125,0.25816452503204346,0.3011261224746704,0.5544834136962891
1761299840874404600,1.906404541015625,0.4512162208557129,-0.019132494926452637,0.4929439127445221
1761299840894525700,1.926525634765625,0.3977372646331787,-0.3527970314025879,0.2677885591983795
1761299840914647800,1.946647705078125,0.16135475039482117,-0.49389100074768066,-0.02826414816081524
1761299840934769700,1.966769775390625,-0.1443353146314621,-0.44336339831352234,-0.23676380515098572
1761299840954891800,1.986891845703125,-0.4062287211418152,-0.23025090992450714,-0.3065791726112366
1761299840975013600,2.007013671875,-0.5810868144035339,0.058860789984464645,-0.22964860498905182
1761299840995134700,2.027134765625,-0.5828870534896851,0.3112272322177887,-0.007916200906038284
1761299841015256600,2.047256591796875,-0.32174599170684814,0.37997832894325256,0.37019240856170654
1761299841035378700,2.067378662109375,0.03557203337550163,0.24411188066005707,0.7717605233192444
1761299841055500800,2.087500732421875,0.34250932931900024,-0.008608046919107437,1.0516000986099243
1761299841075623000,2.107622802734375,0.4791696071624756,-0.2221888303756714,1.1520862579345703
1761299841095743700,2.12774365234375,0.46212998032569885,-0.3100088834762573,1.084915041923523
1761299841115865600,2.147865478515625,0.34220820665359497,-0.4767899215221405,0.9346106648445129
1761299841135987700,2.16798779296875,0.27215173840522766,-0.9956282377243042,0.7292279005050659
1761299841156109800,2.18810986328125,0.2660524845123291,-1.5020495653152466,0.38965630531311035
1761299841176231700,2.208231689453125,0.23480606079101562,-1.6979857683181763,0.1273472011089325
1761299841196352800,2.228352783203125,0.0446874238550663,-1.271009922027588,0.03757855296134949
1761299841216475000,2.248474853515625,-0.3075982630252838,-0.5887797474861145,0.10311386734247208
1761299841236596700,2.2685966796875,-0.6826637983322144,-0.28504884243011475,0.04665999114513397
1761299841256718600,2.288718505859375,-0.8410765528678894,-0.4311642050743103,-0.2534809708595276
1761299841276840700,2.3088408203125,-0.6287321448326111,-0.706462562084198,-0.5654917359352112
1761299841296962800,2.328962890625,-0.45882490277290344,-0.7990850210189819,-0.9110787510871887
1761299841317084000,2.349083984375,-0.8247978091239929,-0.2877263128757477,-1.5951499938964844
1761299841337205800,2.369205810546875,-1.738091230392456,0.06302846968173981,-2.1783671379089355
1761299841357327600,2.38932763671875,-2.1642985343933105,0.019494004547595978,-2.115516424179077
1761299841377449700,2.40944970703125,-1.6939561367034912,-0.06976175308227539,-1.254624843597412
1761299841397571800,2.42957177734375,-0.8002095222473145,-0.30277201533317566,0.12113642692565918
1761299841417692700,2.449692626953125,-0.30530068278312683,-0.9614065885543823,1.1492432355880737
1761299841437814800,2.469814697265625,-0.5690972208976746,-1.6943016052246094,1.262109637260437
1761299841457936600,2.4899365234375,-1.45232093334198,-1.8643361330032349,0.41151055693626404
1761299841478058800,2.510058837890625,-2.3042519092559814,-1.3650842905044556,-0.8253068327903748
1761299841498180600,2.5301806640625,-2.813291311264038,-0.38456788659095764,-1.642555594444275
1761299841518301700,2.5503017578125,-2.9725000858306885,0.36204859614372253,-1.6172947883605957
1761299841538423800,2.570423828125,-2.551997184753418,0.3542909622192383,-0.9257754683494568
1761299841558546000,2.5905458984375,-1.8592637777328491,0.16249269247055054,-0.19027167558670044
1761299841578667500,2.61066748046875,-1.4072622060775757,0.051630616188049316,0.3733985126018524
1761299841598789600,2.63078955078125,-1.306872010231018,0.06461009383201599,0.6111254096031189
1761299841618910700,2.65091064453125,-1.450290560722351,0.07339988648891449,0.4813469648361206
1761299841639032800,2.67103271484375,-1.5805621147155762,-0.02244005724787712,0.2129005789756775
1761299841659154700,2.69115478515625,-1.4589513540267944,-0.1090645045042038,0.02821236103773117
1761299841679276800,2.71127685546875,-1.353394865989685,-0.22361645102500916,0.08374569565057755
1761299841699398700,2.731398681640625,-1.2598074674606323,-0.22809913754463196,0.409738689661026
1761299841719520800,2.751520751953125,-1.2254446744918823,-0.13974541425704956,0.5505008697509766
1761299841739641900,2.771641845703125,-1.181741714477539,-0.06433191895484924,0.5232689380645752
1761299841759764000,2.791763916015625,-1.1140165328979492,-0.058688096702098846,0.47094109654426575
1761299841779886000,2.811885986328125,-1.0969500541687012,-0.22691120207309723,0.5448077321052551
1761299841800008000,2.832008056640625,-1.131090760231018,-0.43928539752960205,0.4783116281032562
1761299841820129800,2.8521298828125,-1.1942936182022095,-0.40907078981399536,-0.06019934266805649
1761299841840251000,2.8722509765625,-1.3693183660507202,-0.24988172948360443,-0.7930023074150085
1761299841860373000,2.892373046875,-1.372499942779541,-0.1316533386707306,-1.0786086320877075
1761299841880494800,2.912494873046875,-0.9487833380699158,-0.21519580483436584,-0.6789658069610596
1761299841900617000,2.932616943359375,-0.28328630328178406,-0.19929300248622894,0.3788817226886749
1761299841920738800,2.95273876953125,0.08698512613773346,-0.3594944179058075,1.4114550352096558
1761299841940860000,2.97285986328125,0.18756240606307983,-0.40087735652923584,1.7043139934539795
1761299841960981800,2.992981689453125,0.023441970348358154,-0.34454014897346497,1.4328961372375488
1761299841981103900,3.013103759765625,-0.13529811799526215,-0.2059057056903839,1.172758936882019
1761299842001226000,3.03322607421875,-0.29100918769836426,-0.22059689462184906,1.1237068176269531
1761299842021348000,3.05334814453125,-0.4754667580127716,-0.556221067905426,1.0618032217025757
1761299842041469700,3.0734697265625,-0.5934008359909058,-0.9060878157615662,0.7802578210830688
1761299842061590800,3.0935908203125,-0.59321129322052,-1.0412677526474,0.45681411027908325
1761299842081713000,3.113712890625,-0.5587851405143738,-0.9435943365097046,0.20462189614772797
1761299842101835000,3.1338349609375,-0.49594858288764954,-0.861181914806366,-0.07037583738565445
1761299842121956900,3.153956787109375,-0.42025521397590637,-0.9755947589874268,-0.36589688062667847
1761299842142079000,3.174078857421875,-0.3582073748111725,-0.9531097412109375,-0.35432133078575134
1761299842162200000,3.194199951171875,-0.35069385170936584,-0.626537561416626,0.10959061980247498
1761299842182321700,3.21432177734375,-0.30644580721855164,-0.25757503509521484,0.5294622182846069
1761299842202443800,3.23444384765625,-0.22689418494701385,-0.09346050024032593,0.5390325784683228
1761299842222566000,3.25456591796875,-0.20223861932754517,-0.19905051589012146,0.26092857122421265
1761299842242688000,3.27468798828125,-0.16997256875038147,-0.2804441750049591,0.20069006085395813
1761299842262808800,3.294808837890625,-0.2396773248910904,-0.44182348251342773,0.6161611080169678
1761299842282931000,3.314930908203125,-0.35020387172698975,-0.6486139893531799,0.9127592444419861
1761299842303052800,3.335052734375,-0.3687189817428589,-0.7255087494850159,0.6313198804855347
1761299842323175000,3.3551748046875,-0.3867233097553253,-0.8882427215576172,0.14418458938598633
1761299842343297000,3.375297119140625,-0.5160935521125793,-0.8965162038803101,-0.2677610516548157
1761299842363419000,3.3954189453125,-0.5811547040939331,-0.8753462433815002,-0.37223321199417114
1761299842383540000,3.4155400390625,-0.5747355222702026,-0.7824445962905884,-0.11537472903728485
1761299842403662000,3.435662109375,-0.6291917562484741,-0.8580348491668701,0.09456223994493484
1761299842423784000,3.455783935546875,-0.7914414405822754,-1.4368783235549927,-0.22094130516052246
1761299842443905800,3.47590576171875,-1.0573973655700684,-1.8166782855987549,-0.8234659433364868
1761299842464028000,3.49602783203125,-1.377753734588623,-1.625386357307434,-1.2602626085281372
1761299842484149000,3.51614892578125,-1.454097867012024,-0.8887514472007751,-1.3217122554779053
1761299842504270800,3.536270751953125,-1.1852564811706543,-0.2470729947090149,-0.8795948624610901
1761299842524393000,3.55639306640625,-0.7282615303993225,-0.13001102209091187,-0.13641852140426636
1761299842544514800,3.576514892578125,-0.5444018244743347,-0.5315808057785034,0.24141858518123627
1761299842564637000,3.596636962890625,-0.7603549361228943,-0.9327210783958435,-0.03230869024991989
1761299842584757800,3.6167578125,-1.1776847839355469,-0.8359009623527527,-0.6360312104225159
1761299842604880000,3.6368798828125,-1.5295889377593994,-0.30940523743629456,-1.0175668001174927
1761299842625002000,3.657001953125,-1.6751809120178223,0.195275217294693,-0.9198607802391052
1761299842645123800,3.677123779296875,-1.665339469909668,0.17443853616714478,-0.5769959688186646
1761299842665246000,3.697245849609375,-1.5576153993606567,-0.17642240226268768,-0.24265390634536743
1761299842685367800,3.717367919921875,-1.3505817651748657,-0.47549355030059814,-0.05032894015312195
1761299842705489000,3.737489013671875,-1.100655436515808,-0.5175764560699463,0.03817041963338852
1761299842725611000,3.757611083984375,-0.9083691239356995,-0.4115195572376251,0.07824524492025375
1761299842745732900,3.77773291015625,-0.8407747745513916,-0.2938200533390045,0.1442110240459442
1761299842765854700,3.797854736328125,-0.8396133780479431,-0.4801896810531616,0.19046622514724731
1761299842785976800,3.817976806640625,-0.7876381278038025,-0.6818352341651917,0.12112615257501602
1761299842806098000,3.838097900390625,-0.6327885985374451,-0.559747040271759,-0.17300085723400116
1761299842826219800,3.8582197265625,-0.45407015085220337,-0.4386417865753174,-0.440093457698822
1761299842846342000,3.878341796875,-0.22316084802150726,-0.5782963037490845,-0.3991730511188507
1761299842866464000,3.898464111328125,0.11191678047180176,-0.8924877047538757,-0.26695510745048523
1761299842886585900,3.9185859375,0.37692883610725403,-1.1534215211868286,-0.2911135256290436
1761299842906708000,3.9387080078125,0.41686925292015076,-0.9734376072883606,-0.3131747245788574
1761299842926828800,3.958828857421875,0.40545395016670227,-0.5448170900344849,0.02811492048203945
1761299842946951000,3.978950927734375,0.44244158267974854,-0.31299012899398804,0.5170279741287231
1761299842967072000,3.999072021484375,0.5238253474235535,-0.37162724137306213,0.5852424502372742
1761299842987193900,4.01919384765625,0.5348076820373535,-0.22037243843078613,0.3608781397342682
1761299843007316000,4.03931591796875,0.3662653863430023,0.31095385551452637,0.26170700788497925
1761299843027437800,4.059437744140625,0.29752781987190247,1.0266141891479492,0.40053099393844604
1761299843047560000,4.079559814453125,0.44451257586479187,1.445640206336975,0.7805431485176086
1761299843067680800,4.0996806640625,0.7350814938545227,1.370283842086792,1.237426519393921
1761299843087803000,4.119802978515625,1.0815516710281372,1.047430396080017,1.5918471813201904
1761299843107925000,4.139925048828125,1.4186135530471802,0.7753127813339233,1.6804007291793823
1761299843128047000,4.160047119140625,1.6538175344467163,0.4733118712902069,1.419325828552246
1761299843148168700,4.180168701171875,1.5330764055252075,0.08234716951847076,0.8759461641311646
1761299843168290800,4.200290771484375,1.1236788034439087,-0.23663565516471863,0.2498725950717926
1761299843188412000,4.220411865234375,0.7864308953285217,-0.3344630002975464,-0.2763992249965668
1761299843208534000,4.240533935546875,0.5606198906898499,-0.2505037784576416,-0.4141456186771393
1761299843228655900,4.26065576171875,0.39759141206741333,0.05480930209159851,-0.20124012231826782
1761299843248778000,4.280778076171875,0.3290415406227112,0.5090543031692505,-0.01024028193205595
1761299843268899800,4.30089990234375,0.3783228397369385,0.8251155018806458,0.03825784847140312
1761299843289021000,4.32102099609375,0.5109254121780396,0.8888897895812988,0.026272527873516083
1761299843309142800,4.341142822265625,0.7307891249656677,0.5305859446525574,0.10918567329645157
1761299843329265000,4.361264892578125,0.8402725458145142,-0.2272162288427353,0.15044882893562317
1761299843349387000,4.381386962890625,0.7527697086334229,-0.7849137187004089,0.08166338503360748
1761299843369510000,4.401510009765625,0.6052827835083008,-0.8426023125648499,-0.10734124481678009
1761299843389632000,4.421632080078125,0.44095921516418457,-0.6769031286239624,-0.251748263835907
1761299843409753900,4.44175390625,0.322075217962265,-0.6064749956130981,-0.2913506031036377
1761299843429875000,4.461875,0.17025193572044373,-0.5883468985557556,-0.33082011342048645
1761299843449997000,4.4819970703125,-0.12000022083520889,-0.6721833944320679,-0.5198963284492493
1761299843470119000,4.502118896484375,-0.4335015118122101,-0.7176069021224976,-0.7798583507537842
1761299843490240800,4.52224072265625,-0.8351757526397705,-0.6180108189582825,-0.9488011598587036
1761299843510363000,4.54236279296875,-1.1127935647964478,-0.6621494293212891,-1.2665255069732666
1761299843530484000,4.56248388671875,-1.463319182395935,-0.47358858585357666,-1.5163854360580444
1761299843550606000,4.582606201171875,-1.5115505456924438,-0.11922772228717804,-1.2468522787094116
1761299843570728000,4.60272802734375,-1.1390055418014526,0.45107319951057434,-0.4330267012119293
1761299843590849800,4.622849853515625,-0.86866295337677,0.7406498193740845,0.22950972616672516
1761299843610972000,4.642971923828125,-0.6064952611923218,0.3975074887275696,0.43539053201675415
1761299843631094000,4.663093994140625,-0.4012177288532257,-0.2240547388792038,0.45792049169540405
1761299843651214800,4.68321484375,-0.5786544680595398,-0.811475396156311,0.22117170691490173
1761299843671337000,4.7033369140625,-0.8548853397369385,-0.7628185153007507,-0.2645914852619171
1761299843691458800,4.723458740234375,-1.174414873123169,-0.13147340714931488,-0.724963366985321
1761299843711581000,4.743580810546875,-1.5199322700500488,0.348354697227478,-0.7252207398414612
1761299843731702000,4.763701904296875,-1.3761056661605835,0.4637279212474823,-0.42511093616485596
1761299843751824100,4.78382421875,-0.8287344574928284,0.5269920825958252,0.045604314655065536
1761299843771945200,4.8039453125,-0.2638074457645416,0.5947363972663879,0.6287988424301147
1761299843792067000,4.824067138671875,0.1263706535100937,0.5293684601783752,1.1947526931762695
1761299843812189200,4.844189208984375,0.23739942908287048,0.2806163728237152,1.5267714262008667
1761299843832311000,4.86431103515625,0.08481881767511368,0.10866525024175644,1.4569904804229736
1761299843852433200,4.88443310546875,-0.07406923919916153,-0.1360369771718979,1.2187387943267822
1761299843872554000,4.904553955078125,0.1166873425245285,-0.26277515292167664,1.0214520692825317
1761299843892676000,4.924676025390625,0.34506961703300476,-0.3170727789402008,0.8925713896751404
1761299843912798200,4.944798095703125,0.32412397861480713,-0.44179192185401917,0.92132169008255
1761299843932920300,4.96492041015625,0.167306587100029,-0.628034770488739,0.5494062900543213
1761299843953042200,4.985042236328125,-0.04481620341539383,-0.7971194386482239,-0.13500180840492249
1761299843973164000,5.0051640625,-0.17419667541980743,-0.6912972331047058,-0.7686956524848938
1761299843993285000,5.02528515625,-0.20335470139980316,-0.027885494753718376,-0.8290829658508301
1761299844013407200,5.0454072265625,-0.1912572681903839,0.5341858863830566,-0.5475247502326965
1761299844033529000,5.065529052734375,-0.22597184777259827,0.4331287145614624,-0.3896183371543884
1761299844053651200,5.085651123046875,-0.3009321987628937,-0.16684409976005554,-0.4901815950870514
1761299844073773000,5.10577294921875,-0.3200739026069641,-0.05264636129140854,-0.5462650656700134
1761299844093894100,5.12589404296875,-0.21909698843955994,0.7055991888046265,-0.42069387435913086
1761299844114016000,5.14601611328125,0.0764814019203186,1.234584093093872,-0.24979521334171295
1761299844134138000,5.16613818359375,0.3839174807071686,1.1336029767990112,-0.007882896810770035
1761299844154260200,5.18626025390625,0.4284839630126953,0.7215409874916077,0.30153021216392517
1761299844174382300,5.20638232421875,0.4200592041015625,0.5536017417907715,0.3430415391921997
1761299844194504200,5.226504150390625,0.5721614360809326,0.818392813205719,-0.02688596211373806
1761299844214625000,5.246625,0.7161878943443298,1.0271118879318237,-0.44702234864234924
1761299844234747100,5.2667470703125,0.675502359867096,0.9498743414878845,-0.6267451047897339
1761299844254869200,5.286869140625,0.5644250512123108,0.6116563677787781,-0.5962864756584167
1761299844274991000,5.3069912109375,0.622964084148407,0.19408169388771057,-0.33302822709083557
1761299844295113000,5.327113037109375,0.9962934255599976,0.08141600340604782,0.10583219677209854
1761299844315234300,5.347234375,1.375827431678772,0.14723026752471924,0.3470481336116791
1761299844335356200,5.367356201171875,1.4740744829177856,0.059365011751651764,0.5002455711364746
1761299844355478000,5.38747802734375,1.4252417087554932,-0.020102418959140778,0.674487829208374
1761299844375600000,5.40760009765625,1.3729560375213623,0.18260665237903595,0.6052401661872864
1761299844395722200,5.42772216796875,1.3446810245513916,0.4156852662563324,0.1759009212255478
1761299844415844000,5.447843994140625,1.330553650856018,0.3159128725528717,-0.25860998034477234
1761299844435965200,5.467965087890625,1.2114174365997314,0.048281870782375336,-0.3761141896247864
1761299844456087000,5.488087158203125,1.0181171894073486,-0.3153606057167053,-0.3260616362094879
1761299844476209200,5.508209228515625,0.8432637453079224,-0.4782271981239319,-0.3674137592315674
1761299844496331300,5.528331298828125,0.557202160358429,-0.462345153093338,-0.6277750134468079
1761299844516453400,5.548453369140625,0.1645321547985077,-0.3381679654121399,-1.0254822969436646
1761299844536575000,5.568574951171875,-0.2559947669506073,-0.33027976751327515,-1.2872755527496338
1761299844556696000,5.588696044921875,-0.3092508912086487,-0.6192446947097778,-1.3281426429748535
1761299844576818200,5.608818115234375,-0.4125494062900543,-0.3671025335788727,-1.1514023542404175
1761299844596940000,5.62893994140625,-0.6661046147346497,0.34599578380584717,-0.9641885757446289
1761299844617062100,5.649062255859375,-0.7697719931602478,0.9871063828468323,-0.9044904112815857
1761299844637184300,5.669184326171875,-0.4959012269973755,1.3915046453475952,-0.5258563160896301
1761299844657306000,5.68930615234375,0.030128398910164833,1.0899375677108765,0.08896395564079285
1761299844677427000,5.709427001953125,0.32315686345100403,0.1320764571428299,0.5409637093544006
1761299844697549000,5.729549072265625,0.13033071160316467,-0.49405282735824585,0.4100094735622406
1761299844717671200,5.749671142578125,-0.41325798630714417,-0.6767544746398926,-0.12863120436668396
1761299844737793300,5.769793212890625,-1.116709589958191,-0.6185676455497742,-0.7662262320518494
1761299844757915100,5.7899150390625,-1.5826330184936523,-0.2848595678806305,-1.1659468412399292
1761299844778036200,5.8100361328125,-1.4979033470153809,0.10395705699920654,-0.9909874200820923
1761299844798158000,5.830157958984375,-1.052913784980774,0.5552920699119568,-0.28628095984458923
1761299844818280200,5.8502802734375,-0.7066067457199097,0.768572211265564,0.4638659358024597
1761299844838402000,5.870402099609375,-0.5079910755157471,0.6492605209350586,0.838356077671051
1761299844858524200,5.890524169921875,-0.3308321237564087,0.30842897295951843,0.7633867263793945
1761299844878646000,5.91064599609375,-0.2402961254119873,0.12291864305734634,0.5758576393127441
1761299844898767000,5.93076708984375,-0.23647113144397736,0.1531558781862259,0.4915359318256378
1761299844918889000,5.950888916015625,-0.2646666169166565,0.20825029909610748,0.46020108461380005
1761299844939011000,5.971010986328125,-0.27382898330688477,0.019092626869678497,0.406048983335495
1761299844959133200,5.99113330078125,-0.15302833914756775,-0.27882078289985657,0.2974720597267151
1761299844979255300,6.01125537109375,-0.09303342550992966,-0.28958603739738464,-0.03989144787192345
1761299844999377000,6.031376953125,-0.11432035267353058,-0.16938990354537964,-0.25502386689186096
1761299845019498000,6.051498046875,-0.018069427460432053,-0.16048824787139893,-0.15147292613983154
1761299845039620000,6.0716201171875,0.13167639076709747,-0.06393128633499146,-0.021160243079066277
1761299845059742200,6.0917421875,0.19011758267879486,0.2656979560852051,0.27490678429603577
1761299845079864000,6.111864013671875,0.045651569962501526,0.688759982585907,0.5231937766075134
1761299845099986200,6.131986083984375,-0.1908801794052124,0.8415635824203491,0.400150328874588
1761299845120108000,6.15210791015625,-0.3102867007255554,0.485406756401062,0.06768728792667389
1761299845140229000,6.17222900390625,-0.06813350319862366,0.39876118302345276,0.1979696899652481
1761299845160351000,6.19235107421875,0.3033190071582794,0.7516996264457703,0.8428521156311035
1761299845180473000,6.21247314453125,0.7154493927955627,0.7900309562683105,1.345335841178894
1761299845200595200,6.23259521484375,0.960780680179596,0.44854822754859924,1.2677253484725952
1761299845220717300,6.25271728515625,1.0011767148971558,0.10448653250932693,0.9398452639579773
1761299845240839000,6.2728388671875,1.0535105466842651,-0.23689861595630646,0.42767685651779175
1761299845260960000,6.2929599609375,1.005023717880249,-0.28622472286224365,0.08497386425733566
1761299845281082000,6.31308203125,0.8282127380371094,-0.10488574206829071,-0.16812901198863983
1761299845301204200,6.333204345703125,0.6464853286743164,-0.4472704529762268,-0.3195869028568268
1761299845321326000,6.353326171875,0.32474106550216675,-1.2755517959594727,-0.20814871788024902
1761299845341448200,6.3734482421875,0.08749838173389435,-1.1490280628204346,-0.07248207926750183
1761299845361569300,6.3935693359375,0.027468496933579445,-0.03705013543367386,0.25968608260154724
1761299845381691100,6.413691162109375,0.09412185847759247,0.7311072945594788,0.8749777674674988
1761299845401813000,6.43381298828125,0.19106528162956238,0.8067094683647156,1.3560537099838257
1761299845421935000,6.45393505859375,0.16402865946292877,0.08978267014026642,1.4798190593719482
1761299845442057200,6.47405712890625,0.21074186265468597,-0.27096641063690186,1.5198317766189575
1761299845462179000,6.494178955078125,0.33755770325660706,-0.06310024857521057,1.4170185327529907
1761299845482300200,6.514300048828125,0.39952418208122253,0.09453024715185165,0.7587597370147705
1761299845502422000,6.534422119140625,0.19591757655143738,-0.5452175736427307,0.08979590237140656
1761299845522544000,6.554544189453125,-0.11062943190336227,-0.8780110478401184,0.12489581853151321
1761299845542666200,6.574666259765625,-0.3139541745185852,-0.3511228859424591,0.33962562680244446
1761299845562788000,6.5947880859375,-0.4151850640773773,0.5049396753311157,0.1282164454460144
1761299845582910000,6.614909912109375,-0.4062846302986145,0.7869395613670349,0.07163995504379272
1761299845603031000,6.635031005859375,-0.39928072690963745,0.5412053465843201,0.0818827897310257
1761299845623153200,6.655153076171875,-0.21226416528224945,0.4033252000808716,0.32272517681121826
1761299845643275000,6.67527490234375,0.21797312796115875,0.08915390074253082,0.5727615356445312
1761299845663397000,6.695397216796875,0.1767493635416031,-0.4644019305706024,0.13311061263084412
1761299845683519200,6.715519287109375,-0.08666354417800903,-0.002490514889359474,-0.5385916829109192
