time,seconds_elapsed,z,y,x
1761299115308875500,0.05887548828125,-0.863555908203125,-0.5137176513671875,-0.126495361328125
1761299115328998700,0.07899853515625,-0.8102264404296875,-0.492401123046875,-0.0702056884765625
1761299115349121500,0.09912158203125,-0.80322265625,-0.4957275390625,-0.030303955078125
1761299115369244400,0.119244384765625,-0.8618927001953125,-0.5265655517578125,-0.0441436767578125
1761299115389368600,0.13936865234375,-0.885040283203125,-0.5453338623046875,-0.0670166015625
1761299115409491500,0.159491455078125,-0.836029052734375,-0.5469970703125,-0.0869598388671875
1761299115429614600,0.179614501953125,-0.8119354248046875,-0.5588531494140625,-0.058197021484375
1761299115449737500,0.199737548828125,-0.8523101806640625,-0.5399627685546875,-0.0427093505859375
1761299115469861600,0.219861572265625,-0.93572998046875,-0.50958251953125,-0.039825439453125
1761299115489984500,0.239984619140625,-0.970184326171875,-0.4846343994140625,-0.02655029296875
1761299115510107400,0.260107421875,-0.950225830078125,-0.468231201171875,-0.00048828125
1761299115530230500,0.28023046875,-0.9114227294921875,-0.475250244140625,-0.0018157958984375
1761299115550353400,0.300353515625,-0.861358642578125,-0.4778900146484375,0.0035858154296875
1761299115570477600,0.3204775390625,-0.82537841796875,-0.4891204833984375,0.0045013427734375
1761299115590600400,0.340600341796875,-0.81005859375,-0.494293212890625,0.0056610107421875
1761299115610723600,0.3607236328125,-0.8422393798828125,-0.5078887939453125,-0.003875732421875
1761299115630847000,0.380846923828125,-0.8951263427734375,-0.51312255859375,-0.0054931640625
1761299115650971100,0.40097119140625,-0.903656005859375,-0.5129241943359375,-0.0037384033203125
1761299115671094300,0.42109423828125,-0.8795013427734375,-0.50897216796875,-0.0042877197265625
1761299115691217200,0.441217041015625,-0.8657379150390625,-0.498626708984375,-0.00927734375
1761299115711340300,0.46134033203125,-0.8662872314453125,-0.4930877685546875,-0.001312255859375
1761299115731463200,0.481463134765625,-0.8503570556640625,-0.494140625,0.012542724609375
1761299115751587000,0.501587158203125,-0.831695556640625,-0.491851806640625,0.03326416015625
1761299115771710200,0.521710205078125,-0.8150482177734375,-0.493438720703125,0.0428009033203125
1761299115791833000,0.5418330078125,-0.80230712890625,-0.509918212890625,0.02392578125
1761299115811956200,0.561956298828125,-0.8096466064453125,-0.5186309814453125,0.005126953125
1761299115832079000,0.5820791015625,-0.8606414794921875,-0.51959228515625,0.0015106201171875
1761299115852203000,0.602203125,-0.8677520751953125,-0.5049896240234375,0.00616455078125
1761299115872326100,0.622326171875,-0.8553009033203125,-0.496673583984375,0.0531005859375
1761299115892449000,0.642448974609375,-0.8732757568359375,-0.49932861328125,0.054290771484375
1761299115912572200,0.662572265625,-0.8808441162109375,-0.5083160400390625,0.0325775146484375
1761299115932696000,0.682696044921875,-0.8849639892578125,-0.51898193359375,0.0298919677734375
1761299115952819200,0.702819091796875,-0.90643310546875,-0.5122222900390625,0.0364990234375
1761299115972942000,0.722942138671875,-0.937713623046875,-0.4932708740234375,0.051483154296875
1761299115993065200,0.743065185546875,-0.9379730224609375,-0.484466552734375,0.0516510009765625
1761299116013188000,0.76318798828125,-0.910064697265625,-0.500457763671875,0.0319976806640625
1761299116033312000,0.78331201171875,-0.88873291015625,-0.5084075927734375,0.015380859375
1761299116053435100,0.80343505859375,-0.8668975830078125,-0.4998779296875,0.0141143798828125
1761299116073558000,0.82355810546875,-0.8450927734375,-0.49420166015625,0.0189056396484375
1761299116093681200,0.84368115234375,-0.82818603515625,-0.489593505859375,0.0233612060546875
1761299116113805000,0.86380517578125,-0.8317108154296875,-0.4863128662109375,0.02362060546875
1761299116133928000,0.883927978515625,-0.861175537109375,-0.4988250732421875,-0.0025482177734375
1761299116154051000,0.904051025390625,-0.8885955810546875,-0.526824951171875,-0.03753662109375
1761299116174174000,0.924174072265625,-0.8818359375,-0.5311737060546875,-0.0685577392578125
1761299116194297000,0.944297119140625,-0.8845672607421875,-0.52642822265625,-0.05548095703125
1761299116214421000,0.9644208984375,-0.8881072998046875,-0.4996337890625,-0.017059326171875
1761299116234544000,0.984544189453125,-0.892608642578125,-0.477691650390625,0.0211639404296875
1761299116254667000,1.0046669921875,-0.8819122314453125,-0.466400146484375,0.036651611328125
1761299116274790100,1.0247900390625,-0.8853607177734375,-0.47088623046875,0.0394287109375
1761299116294913000,1.0449130859375,-0.8940887451171875,-0.4811859130859375,0.0185546875
1761299116315037000,1.065036865234375,-0.916412353515625,-0.4841156005859375,-0.01904296875
1761299116335160000,1.08516015625,-0.906982421875,-0.4819793701171875,-0.037628173828125
1761299116355283000,1.105282958984375,-0.8809967041015625,-0.4839019775390625,-0.0261993408203125
1761299116375406000,1.125406005859375,-0.8463592529296875,-0.483856201171875,-0.0314483642578125
1761299116395530000,1.145530029296875,-0.83343505859375,-0.496124267578125,-0.0368499755859375
1761299116415652900,1.16565283203125,-0.8360595703125,-0.4954833984375,-0.04327392578125
1761299116435776000,1.18577587890625,-0.83258056640625,-0.4869537353515625,-0.036773681640625
1761299116455899000,1.20589892578125,-0.8215179443359375,-0.4785003662109375,-0.0206298828125
1761299116476022000,1.22602197265625,-0.828094482421875,-0.4828338623046875,-0.005645751953125
1761299116496146000,1.24614599609375,-0.842926025390625,-0.482421875,-0.0010833740234375
1761299116516269000,1.26626904296875,-0.8362274169921875,-0.4929656982421875,0.0094146728515625
1761299116536392000,1.286391845703125,-0.8520355224609375,-0.50091552734375,0.00927734375
1761299116556515000,1.30651513671875,-0.8577117919921875,-0.5008087158203125,0.0145111083984375
1761299116576638000,1.326637939453125,-0.8771209716796875,-0.5059814453125,0.0185089111328125
1761299116596762000,1.34676220703125,-0.892730712890625,-0.4990997314453125,0.0196380615234375
1761299116616884500,1.366884521484375,-0.897247314453125,-0.5029296875,0.0247802734375
1761299116637007400,1.38700732421875,-0.9179840087890625,-0.50457763671875,0.008575439453125
1761299116657130500,1.407130615234375,-0.915985107421875,-0.501678466796875,0.001373291015625
1761299116677254400,1.42725439453125,-0.8737640380859375,-0.5106964111328125,-0.0073699951171875
1761299116697377500,1.44737744140625,-0.8425750732421875,-0.5154266357421875,-0.003448486328125
1761299116717500400,1.46750048828125,-0.8748931884765625,-0.49432373046875,0.018951416015625
1761299116737623600,1.48762353515625,-0.9120025634765625,-0.46624755859375,0.0256195068359375
1761299116757746400,1.507746337890625,-0.8932647705078125,-0.4515228271484375,0.039276123046875
1761299116777870300,1.527870361328125,-0.8565673828125,-0.456512451171875,0.0532379150390625
1761299116797993500,1.547993408203125,-0.834197998046875,-0.4650726318359375,0.0639190673828125
1761299116818116400,1.568116455078125,-0.8391265869140625,-0.4707794189453125,0.063629150390625
1761299116838239500,1.588239501953125,-0.849853515625,-0.4746246337890625,0.049224853515625
1761299116858363400,1.60836328125,-0.8670806884765625,-0.4820709228515625,0.0362396240234375
1761299116878486300,1.628486328125,-0.873687744140625,-0.4829864501953125,0.026580810546875
1761299116898609400,1.648609375,-0.8835296630859375,-0.48968505859375,0.0170440673828125
1761299116918732300,1.668732177734375,-0.9087371826171875,-0.4893951416015625,0.008331298828125
1761299116938855400,1.68885546875,-0.9243927001953125,-0.48248291015625,0.0124053955078125
1761299116958979300,1.708979248046875,-0.9321746826171875,-0.476348876953125,0.008819580078125
1761299116979102500,1.7291025390625,-0.9260406494140625,-0.4807586669921875,-0.003875732421875
1761299116999225300,1.749225341796875,-0.928802490234375,-0.478363037109375,0.002044677734375
1761299117019348500,1.769348388671875,-0.927337646484375,-0.4590606689453125,0.0073394775390625
1761299117039471400,1.789471435546875,-0.8893585205078125,-0.462188720703125,0.0071563720703125
1761299117059595300,1.80959521484375,-0.8521881103515625,-0.480712890625,0.0096893310546875
1761299117079718400,1.829718505859375,-0.84576416015625,-0.4822235107421875,0.0132293701171875
1761299117099841300,1.84984130859375,-0.8431243896484375,-0.478546142578125,0.023101806640625
1761299117119964400,1.86996435546875,-0.8601226806640625,-0.4687347412109375,0.02301025390625
1761299117140088600,1.890088623046875,-0.8670654296875,-0.46502685546875,0.01788330078125
1761299117160211500,1.91021142578125,-0.8750762939453125,-0.47027587890625,0.0095672607421875
1761299117180334600,1.93033447265625,-0.87017822265625,-0.4761505126953125,-0.00531005859375
1761299117200457200,1.950457275390625,-0.8778076171875,-0.4972686767578125,-0.020294189453125
1761299117220580400,1.970580322265625,-0.8930816650390625,-0.4920806884765625,-0.017730712890625
1761299117240704500,1.99070458984375,-0.90972900390625,-0.4958648681640625,-0.0124053955078125
1761299117260827600,2.01082763671875,-0.938232421875,-0.5171356201171875,-0.033538818359375
1761299117280950500,2.030950439453125,-0.955657958984375,-0.53509521484375,-0.0494384765625
1761299117301073700,2.05107373046875,-0.9496002197265625,-0.5194244384765625,-0.0438690185546875
1761299117321197600,2.071197509765625,-0.92950439453125,-0.4925079345703125,-0.025146484375
1761299117341320400,2.091320556640625,-0.9126434326171875,-0.47723388671875,0.0000457763671875
1761299117361443600,2.111443603515625,-0.9044952392578125,-0.459625244140625,0.015716552734375
1761299117381566500,2.13156640625,-0.879791259765625,-0.45501708984375,0.0076751708984375
1761299117401689600,2.151689697265625,-0.84033203125,-0.4678192138671875,0.0018463134765625
1761299117421813500,2.1718134765625,-0.8133544921875,-0.469390869140625,0.004669189453125
1761299117441936400,2.191936279296875,-0.8193359375,-0.455718994140625,0.014068603515625
1761299117462059500,2.2120595703125,-0.831451416015625,-0.4484710693359375,0.0157470703125
1761299117482182400,2.232182373046875,-0.83587646484375,-0.45849609375,0.008941650390625
1761299117502305500,2.252305419921875,-0.836761474609375,-0.468597412109375,0.0041046142578125
1761299117522429400,2.272429443359375,-0.839996337890625,-0.4813385009765625,-0.0025634765625
1761299117542552600,2.292552490234375,-0.8445281982421875,-0.49212646484375,0.0054168701171875
1761299117562675500,2.312675537109375,-0.870269775390625,-0.494232177734375,0.014801025390625
1761299117582798600,2.332798583984375,-0.91131591796875,-0.487518310546875,0.0114898681640625
1761299117602922500,2.352922607421875,-0.911895751953125,-0.491912841796875,0.0112152099609375
1761299117623046100,2.373046142578125,-0.8914947509765625,-0.4923553466796875,0.0127105712890625
1761299117643169300,2.393169189453125,-0.88934326171875,-0.4859161376953125,0.0185394287109375
1761299117663292200,2.413292236328125,-0.8891448974609375,-0.4721221923828125,0.02044677734375
1761299117683415300,2.433415283203125,-0.8616180419921875,-0.4709014892578125,0.0107879638671875
1761299117703539200,2.453539306640625,-0.8119964599609375,-0.4844207763671875,0.00445556640625
1761299117723662000,2.473662109375,-0.8053131103515625,-0.4957427978515625,0.0226593017578125
1761299117743785200,2.49378515625,-0.8110504150390625,-0.4964752197265625,0.02899169921875
1761299117763908000,2.513908203125,-0.84246826171875,-0.4989013671875,0.032440185546875
1761299117784031200,2.53403125,-0.8835601806640625,-0.4952545166015625,0.0244598388671875
1761299117804155100,2.554155029296875,-0.8956298828125,-0.493316650390625,0.010833740234375
1761299117824278000,2.574278076171875,-0.8915863037109375,-0.5069122314453125,-0.0040435791015625
1761299117844401200,2.594401123046875,-0.88458251953125,-0.5265350341796875,-0.018096923828125
1761299117864524000,2.61452392578125,-0.8851318359375,-0.525909423828125,-0.0067138671875
1761299117884648200,2.634648193359375,-0.8861541748046875,-0.50946044921875,0.0162200927734375
1761299117904771000,2.65477099609375,-0.887786865234375,-0.5014190673828125,0.0337677001953125
1761299117924894200,2.674894287109375,-0.8915557861328125,-0.495849609375,0.042510986328125
1761299117945017000,2.69501708984375,-0.8860931396484375,-0.4897918701171875,0.0383148193359375
1761299117965140200,2.71514013671875,-0.8717193603515625,-0.4946746826171875,0.033538818359375
1761299117985264400,2.735264404296875,-0.861724853515625,-0.492095947265625,0.0321807861328125
1761299118005387300,2.75538720703125,-0.871307373046875,-0.48687744140625,0.03631591796875
1761299118025510400,2.775510498046875,-0.872650146484375,-0.4825286865234375,0.031646728515625
1761299118045633300,2.79563330078125,-0.865264892578125,-0.48785400390625,0.026641845703125
1761299118065757200,2.815757080078125,-0.859161376953125,-0.484649658203125,0.04144287109375
1761299118085880300,2.83588037109375,-0.8483734130859375,-0.4705352783203125,0.0523529052734375
1761299118106003200,2.856003173828125,-0.844482421875,-0.47161865234375,0.050048828125
1761299118126126300,2.876126220703125,-0.84197998046875,-0.4866943359375,0.02490234375
1761299118146249200,2.896249267578125,-0.8434295654296875,-0.5032806396484375,-0.0081787109375
1761299118166373400,2.916373291015625,-0.8365631103515625,-0.5155181884765625,-0.0262908935546875
1761299118186496300,2.936496337890625,-0.8281402587890625,-0.5213775634765625,-0.0217742919921875
1761299118206619100,2.956619140625,-0.843658447265625,-0.51544189453125,-0.0140380859375
1761299118226742300,2.9767421875,-0.888916015625,-0.509490966796875,-0.0058746337890625
1761299118246865200,2.996865234375,-0.9320220947265625,-0.4900360107421875,0.012542724609375
1761299118266989300,3.0169892578125,-0.962677001953125,-0.472686767578125,0.0411376953125
1761299118287112200,3.0371123046875,-0.9808502197265625,-0.46331787109375,0.0444488525390625
1761299118307235300,3.0572353515625,-0.981414794921875,-0.4754180908203125,0.0237579345703125
1761299118327358200,3.077358154296875,-0.966217041015625,-0.486541748046875,-0.0052032470703125
1761299118347482000,3.097482177734375,-0.9298553466796875,-0.4770050048828125,-0.01544189453125
1761299118367605200,3.117605224609375,-0.8763427734375,-0.4662017822265625,-0.0087432861328125
1761299118387728100,3.13772802734375,-0.830657958984375,-0.4639739990234375,-0.0001983642578125
1761299118407851300,3.157851318359375,-0.8022308349609375,-0.463470458984375,0.0044708251953125
1761299118427974100,3.17797412109375,-0.7930145263671875,-0.4580230712890625,0.013580322265625
1761299118448098300,3.198098388671875,-0.792022705078125,-0.449920654296875,0.0256500244140625
1761299118468221200,3.21822119140625,-0.7824249267578125,-0.4491729736328125,0.0249481201171875
1761299118488344300,3.23834423828125,-0.781768798828125,-0.459320068359375,0.0282135009765625
1761299118508467200,3.25846728515625,-0.8067169189453125,-0.4708099365234375,0.0257110595703125
1761299118528590000,3.278590087890625,-0.85211181640625,-0.4813385009765625,0.0142364501953125
1761299118548714200,3.29871435546875,-0.90997314453125,-0.4899139404296875,0.006622314453125
1761299118568837000,3.318837158203125,-0.945648193359375,-0.4911651611328125,0.003753662109375
1761299118588960300,3.338960205078125,-0.9703826904296875,-0.4976806640625,0.0031585693359375
1761299118609083100,3.359083251953125,-0.9835052490234375,-0.4986419677734375,0.0084228515625
1761299118629206800,3.379206787109375,-0.9954376220703125,-0.49053955078125,0.017486572265625
1761299118649329700,3.39932958984375,-1.0036163330078125,-0.485137939453125,0.0205535888671875
1761299118669452500,3.41945263671875,-1.001556396484375,-0.490631103515625,0.009307861328125
1761299118689575700,3.43957568359375,-0.9592742919921875,-0.49114990234375,-0.0037384033203125
1761299118709698600,3.459698486328125,-0.897125244140625,-0.4954833984375,-0.0012969970703125
1761299118729822700,3.47982275390625,-0.8401947021484375,-0.480987548828125,0.0279083251953125
1761299118749945600,3.499945556640625,-0.805633544921875,-0.477813720703125,0.0573883056640625
1761299118770068700,3.52006884765625,-0.7867279052734375,-0.4833984375,0.06634521484375
1761299118790191600,3.540191650390625,-0.76611328125,-0.4941864013671875,0.047576904296875
1761299118810314800,3.560314697265625,-0.755523681640625,-0.52099609375,0.035614013671875
1761299118830438700,3.580438720703125,-0.762298583984375,-0.5233154296875,0.0198516845703125
1761299118850561500,3.6005615234375,-0.7783050537109375,-0.5218505859375,0.0178070068359375
1761299118870684700,3.6206845703125,-0.81024169921875,-0.5135040283203125,0.0373992919921875
1761299118890807600,3.6408076171875,-0.8510284423828125,-0.4982147216796875,0.049102783203125
1761299118910930700,3.6609306640625,-0.9016265869140625,-0.498687744140625,0.0400238037109375
1761299118931054600,3.6810546875,-0.9405364990234375,-0.49920654296875,0.0325164794921875
1761299118951177500,3.701177490234375,-0.9522857666015625,-0.4908294677734375,0.0351715087890625
1761299118971300600,3.721300537109375,-0.954132080078125,-0.4926605224609375,0.0380859375
1761299118991423500,3.741423583984375,-0.940643310546875,-0.502166748046875,0.0394439697265625
1761299119011547600,3.761547607421875,-0.909149169921875,-0.5035400390625,0.0498504638671875
1761299119031670500,3.78167041015625,-0.892578125,-0.4980316162109375,0.0645904541015625
1761299119051793700,3.801793701171875,-0.8872222900390625,-0.48785400390625,0.0596923828125
1761299119071916500,3.82191650390625,-0.8708953857421875,-0.4939422607421875,0.0476226806640625
1761299119092039700,3.842039794921875,-0.8450469970703125,-0.5027618408203125,0.025482177734375
1761299119112163600,3.86216357421875,-0.842559814453125,-0.5055999755859375,0.01593017578125
1761299119132286500,3.882286376953125,-0.849365234375,-0.5030670166015625,0.0086517333984375
1761299119152409600,3.90240966796875,-0.84478759765625,-0.5046234130859375,0.00054931640625
1761299119172532500,3.922532470703125,-0.8320770263671875,-0.503509521484375,-0.001922607421875
1761299119192656600,3.94265673828125,-0.835296630859375,-0.4952239990234375,0.0179595947265625
1761299119212779500,3.962779541015625,-0.852691650390625,-0.490936279296875,0.014923095703125
1761299119232902400,3.98290234375,-0.8646087646484375,-0.504852294921875,0.0122222900390625
1761299119253023700,4.003023681640625,-0.895843505859375,-0.50543212890625,0.0250396728515625
1761299119273146600,4.023146728515625,-0.92822265625,-0.489715576171875,0.0220489501953125
1761299119293270500,4.0432705078125,-0.927947998046875,-0.4996490478515625,0.0101470947265625
1761299119313393700,4.0633935546875,-0.875213623046875,-0.5161895751953125,-0.001434326171875
1761299119333516500,4.0835166015625,-0.833251953125,-0.527679443359375,0.0065155029296875
1761299119353639700,4.1036396484375,-0.8341217041015625,-0.515655517578125,0.0183258056640625
1761299119373762600,4.123762451171875,-0.853607177734375,-0.5161285400390625,0.012603759765625
1761299119393886500,4.143886474609375,-0.866546630859375,-0.510345458984375,-0.0018157958984375
1761299119414009600,4.164009521484375,-0.872802734375,-0.4981689453125,0.00848388671875
1761299119434132500,4.184132568359375,-0.8489227294921875,-0.4879302978515625,0.007293701171875
1761299119454255600,4.204255615234375,-0.8004302978515625,-0.50433349609375,-0.002105712890625
1761299119474378500,4.22437841796875,-0.7692718505859375,-0.5173187255859375,-0.0052642822265625
1761299119494502700,4.244502685546875,-0.79486083984375,-0.52197265625,-0.010162353515625
1761299119514625500,4.26462548828125,-0.8505401611328125,-0.533416748046875,-0.025054931640625
1761299119534748700,4.284748779296875,-0.8866424560546875,-0.527099609375,-0.02239990234375
1761299119554871600,4.30487158203125,-0.8900604248046875,-0.511474609375,0.009033203125
1761299119574994700,4.32499462890625,-0.9006805419921875,-0.50482177734375,0.02777099609375
1761299119595118600,4.34511865234375,-0.9244537353515625,-0.505462646484375,0.0214385986328125
1761299119615242800,4.36524267578125,-0.928924560546875,-0.50537109375,0.0110626220703125
1761299119635367000,4.385366943359375,-0.9019622802734375,-0.4994049072265625,0.0140838623046875
1761299119655490000,4.405489990234375,-0.86016845703125,-0.486541748046875,0.01690673828125
1761299119675613000,4.425613037109375,-0.8233489990234375,-0.4895477294921875,0.0169525146484375
1761299119695735800,4.44573583984375,-0.7930145263671875,-0.5066375732421875,-0.006805419921875
1761299119715859000,4.46585888671875,-0.7689971923828125,-0.5235748291015625,-0.0104522705078125
1761299119735982800,4.48598291015625,-0.7815093994140625,-0.5197601318359375,-0.00390625
1761299119756106000,4.50610595703125,-0.820159912109375,-0.4945831298828125,0.012176513671875
1761299119776228900,4.526228759765625,-0.8334808349609375,-0.4801483154296875,0.0242156982421875
1761299119796352000,4.54635205078125,-0.8136444091796875,-0.4967193603515625,0.0285797119140625
1761299119816475000,4.566474853515625,-0.836883544921875,-0.5235137939453125,0.0203399658203125
1761299119836598800,4.586598876953125,-0.895050048828125,-0.527862548828125,0.015777587890625
1761299119856722000,4.606721923828125,-0.921539306640625,-0.515869140625,0.023834228515625
1761299119876844800,4.6268447265625,-0.924591064453125,-0.4994049072265625,0.0247344970703125
1761299119896968000,4.646968017578125,-0.9258270263671875,-0.496551513671875,0.0233917236328125
1761299119917090800,4.6670908203125,-0.906646728515625,-0.504608154296875,0.0241241455078125
1761299119937215000,4.687215087890625,-0.867462158203125,-0.5042266845703125,0.03668212890625
1761299119957337900,4.707337890625,-0.830322265625,-0.49505615234375,0.055419921875
1761299119977460700,4.727460693359375,-0.8419952392578125,-0.4847412109375,0.0678253173828125
1761299119997584000,4.747583984375,-0.8821563720703125,-0.470123291015625,0.062744140625
1761299120017707800,4.767707763671875,-0.8645172119140625,-0.4698486328125,0.0559539794921875
1761299120037831000,4.787830810546875,-0.8270111083984375,-0.49212646484375,0.03509521484375
1761299120057953800,4.807953857421875,-0.8205413818359375,-0.516387939453125,0.0016632080078125
1761299120078077000,4.828076904296875,-0.8475494384765625,-0.5269775390625,-0.0199737548828125
1761299120098199800,4.84819970703125,-0.8943939208984375,-0.5271148681640625,-0.0236968994140625
1761299120118323700,4.86832373046875,-0.907989501953125,-0.5109405517578125,-0.0154876708984375
1761299120138446800,4.88844677734375,-0.91888427734375,-0.514007568359375,-0.00164794921875
1761299120158569700,4.90856982421875,-0.9261627197265625,-0.5140838623046875,-0.0032806396484375
1761299120178692900,4.92869287109375,-0.947784423828125,-0.512176513671875,-0.003143310546875
1761299120198816800,4.948816650390625,-0.9613800048828125,-0.4912872314453125,-0.01165771484375
1761299120218940000,4.96893994140625,-0.9411773681640625,-0.47686767578125,-0.0180816650390625
1761299120239062800,4.989062744140625,-0.9029541015625,-0.4706268310546875,-0.035125732421875
1761299120259185700,5.009185546875,-0.8588104248046875,-0.476593017578125,-0.0590057373046875
1761299120279308800,5.029308837890625,-0.816314697265625,-0.481292724609375,-0.0769195556640625
1761299120299432700,5.0494326171875,-0.78472900390625,-0.48052978515625,-0.083740234375
1761299120319555800,5.069555908203125,-0.7622833251953125,-0.4808807373046875,-0.0898895263671875
1761299120339678700,5.0896787109375,-0.764862060546875,-0.4850921630859375,-0.08221435546875
1761299120359801900,5.1098017578125,-0.7852783203125,-0.473419189453125,-0.0709381103515625
1761299120379924700,5.1299248046875,-0.8051605224609375,-0.4672698974609375,-0.0469818115234375
1761299120400049000,5.150048828125,-0.823760986328125,-0.4724884033203125,-0.0446929931640625
1761299120420172000,5.170172119140625,-0.8592987060546875,-0.4772186279296875,-0.0323638916015625
1761299120440295000,5.190294921875,-0.9143218994140625,-0.4734039306640625,-0.0181121826171875
1761299120460418000,5.21041796875,-0.945343017578125,-0.4873504638671875,-0.0463104248046875
1761299120480540700,5.230540771484375,-0.9800567626953125,-0.510711669921875,-0.0323486328125
1761299120500664800,5.250664794921875,-1.0147705078125,-0.5037689208984375,-0.0481414794921875
1761299120520788000,5.2707880859375,-1.008514404296875,-0.4964752197265625,-0.0544281005859375
1761299120540910800,5.290910888671875,-0.9651641845703125,-0.4971466064453125,-0.0396728515625
1761299120561034000,5.311033935546875,-0.9284820556640625,-0.501953125,-0.012939453125
1761299120581158000,5.331157958984375,-0.880462646484375,-0.5007781982421875,-0.012725830078125
1761299120601281000,5.351281005859375,-0.8251190185546875,-0.501708984375,0.0089569091796875
1761299120621403600,5.371403564453125,-0.80291748046875,-0.48577880859375,0.02716064453125
1761299120641526500,5.391526611328125,-0.8274383544921875,-0.4812774658203125,0.024200439453125
1761299120661649400,5.4116494140625,-0.81842041015625,-0.4818878173828125,0.02496337890625
1761299120681773600,5.431773681640625,-0.7852935791015625,-0.4836578369140625,0.037750244140625
1761299120701896700,5.451896728515625,-0.7703094482421875,-0.4808349609375,0.0335540771484375
1761299120722019600,5.47201953125,-0.8034210205078125,-0.4971923828125,0.0316314697265625
1761299120742142700,5.492142822265625,-0.8807373046875,-0.4947052001953125,0.0482635498046875
1761299120762265600,5.512265625,-0.946990966796875,-0.4874267578125,0.0407867431640625
1761299120782389800,5.5323896484375,-0.967193603515625,-0.4927520751953125,0.03643798828125
1761299120802512600,5.5525126953125,-0.9587554931640625,-0.4816436767578125,0.05255126953125
1761299120822635800,5.5726357421875,-0.9419708251953125,-0.4599761962890625,0.0609283447265625
1761299120842758700,5.592758544921875,-0.9024505615234375,-0.46514892578125,0.063690185546875
1761299120862882600,5.612882568359375,-0.85565185546875,-0.48291015625,0.0585479736328125
1761299120883005700,5.633005615234375,-0.824249267578125,-0.4874420166015625,0.0604705810546875
1761299120903128600,5.653128662109375,-0.806610107421875,-0.4852142333984375,0.06591796875
1761299120923251700,5.673251708984375,-0.8096923828125,-0.4873809814453125,0.0579071044921875
1761299120943374600,5.69337451171875,-0.821502685546875,-0.4901123046875,0.0501556396484375
1761299120963498500,5.71349853515625,-0.849853515625,-0.48822021484375,0.0455780029296875
1761299120983621600,5.73362158203125,-0.887298583984375,-0.48309326171875,0.0360260009765625
1761299121003744500,5.75374462890625,-0.9214324951171875,-0.4862823486328125,0.031646728515625
1761299121023867600,5.77386767578125,-0.9373016357421875,-0.4829864501953125,0.023284912109375
1761299121043991600,5.793991455078125,-0.9383087158203125,-0.4783782958984375,0.0209808349609375
1761299121064114700,5.81411474609375,-0.941131591796875,-0.4847869873046875,0.0123138427734375
1761299121084237600,5.834237548828125,-0.9293670654296875,-0.492279052734375,0.0093536376953125
1761299121104360700,5.854360595703125,-0.923370361328125,-0.4985504150390625,0.00457763671875
1761299121124483600,5.874483642578125,-0.9333038330078125,-0.4907989501953125,-0.004913330078125
1761299121144607500,5.894607421875,-0.9333953857421875,-0.4791412353515625,-0.010833740234375
1761299121164730600,5.914730712890625,-0.8968658447265625,-0.4811859130859375,-0.02191162109375
1761299121184853500,5.934853515625,-0.8464813232421875,-0.4883270263671875,-0.020965576171875
1761299121204976600,5.9549765625,-0.83331298828125,-0.4924774169921875,-0.0157928466796875
1761299121225099500,5.975099609375,-0.8624267578125,-0.477386474609375,-0.0039520263671875
1761299121245223400,5.995223388671875,-0.88690185546875,-0.4564971923828125,0.0144500732421875
1761299121265346600,6.0153466796875,-0.885406494140625,-0.45233154296875,0.0198974609375
1761299121285469400,6.035469482421875,-0.8753509521484375,-0.468231201171875,0.004180908203125
1761299121305592600,6.055592529296875,-0.85809326171875,-0.4772491455078125,-0.0005340576171875
1761299121325716500,6.075716552734375,-0.843780517578125,-0.48321533203125,-0.0018310546875
1761299121345839600,6.095839599609375,-0.8427276611328125,-0.4897918701171875,-0.016571044921875
1761299121365962500,6.11596240234375,-0.850738525390625,-0.491363525390625,-0.0252532958984375
1761299121386085600,6.136085693359375,-0.857391357421875,-0.489898681640625,-0.0189361572265625
1761299121406208500,6.15620849609375,-0.865997314453125,-0.49359130859375,-0.0168609619140625
1761299121426332400,6.17633251953125,-0.8794708251953125,-0.4893951416015625,-0.019744873046875
1761299121446455600,6.19645556640625,-0.88623046875,-0.4796905517578125,-0.009368896484375
1761299121466578400,6.216578369140625,-0.889892578125,-0.4727783203125,-0.001739501953125
1761299121486701600,6.23670166015625,-0.8763427734375,-0.470428466796875,-0.0061492919921875
1761299121506824400,6.256824462890625,-0.8451995849609375,-0.4741668701171875,-0.012054443359375
1761299121526948600,6.276948486328125,-0.8121337890625,-0.481170654296875,-0.01220703125
1761299121547071700,6.29707177734375,-0.7952423095703125,-0.4900360107421875,-0.0081329345703125
1761299121567194400,6.3171943359375,-0.799407958984375,-0.510345458984375,-0.0295867919921875
1761299121587317500,6.3373173828125,-0.8277587890625,-0.5186309814453125,-0.037261962890625
1761299121607441700,6.357441650390625,-0.8417816162109375,-0.5077972412109375,-0.0443267822265625
1761299121627564500,6.377564453125,-0.84844970703125,-0.51055908203125,-0.0412445068359375
1761299121647687700,6.397687744140625,-0.878814697265625,-0.516571044921875,-0.021087646484375
1761299121667810600,6.417810546875,-0.907562255859375,-0.504638671875,-0.0145111083984375
1761299121687933700,6.43793359375,-0.9238739013671875,-0.50030517578125,-0.0049591064453125
1761299121708057600,6.4580576171875,-0.929718017578125,-0.4952239990234375,0.0032958984375
1761299121728180700,6.4781806640625,-0.9290008544921875,-0.487335205078125,0.0055389404296875
1761299121748303600,6.4983037109375,-0.8953704833984375,-0.4823455810546875,0.004974365234375
1761299121768426800,6.5184267578125,-0.8483734130859375,-0.4888458251953125,0.008026123046875
1761299121788550700,6.538550537109375,-0.826995849609375,-0.4937286376953125,0.015380859375
1761299121808673500,6.558673583984375,-0.8329620361328125,-0.4841461181640625,0.0153961181640625
1761299121828796700,6.578796630859375,-0.82611083984375,-0.4790496826171875,0.0226593017578125
1761299121848919600,6.59891943359375,-0.83544921875,-0.4706268310546875,0.03765869140625
1761299121869042700,6.619042724609375,-0.84747314453125,-0.461395263671875,0.02764892578125
1761299121889166600,6.63916650390625,-0.8525390625,-0.4824676513671875,0.0074310302734375
1761299121909289500,6.65928955078125,-0.864349365234375,-0.499176025390625,-0.005462646484375
1761299121929412600,6.67941259765625,-0.8978729248046875,-0.495697021484375,-0.023590087890625
1761299121949535500,6.699535400390625,-0.92791748046875,-0.4822540283203125,-0.0076904296875
1761299121969658600,6.71965869140625,-0.9278106689453125,-0.4703216552734375,0.00128173828125
1761299121989782800,6.73978271484375,-0.9218597412109375,-0.4752044677734375,-0.0031280517578125
1761299122009906000,6.759906005859375,-0.9228515625,-0.470977783203125,-0.0139923095703125
1761299122030028800,6.78002880859375,-0.95208740234375,-0.4683074951171875,-0.0374298095703125
1761299122050151700,6.800151611328125,-0.9481201171875,-0.46337890625,-0.04437255859375
1761299122070275800,6.82027587890625,-0.9222259521484375,-0.46612548828125,-0.04681396484375
1761299122090398700,6.840398681640625,-0.9016571044921875,-0.474578857421875,-0.06036376953125
1761299122110521900,6.86052197265625,-0.8659515380859375,-0.4863128662109375,-0.0643768310546875
1761299122130644700,6.880644775390625,-0.838134765625,-0.483795166015625,-0.0384368896484375
1761299122150767900,6.900767822265625,-0.8148193359375,-0.4734649658203125,-0.019866943359375
1761299122170891800,6.920891845703125,-0.8374176025390625,-0.4687347412109375,-0.009979248046875
1761299122191014700,6.9410146484375,-0.878082275390625,-0.46453857421875,-0.02294921875
1761299122211137800,6.9611376953125,-0.9042205810546875,-0.4596099853515625,-0.0305633544921875
1761299122231260700,6.9812607421875,-0.909454345703125,-0.456817626953125,-0.034576416015625
1761299122251383800,7.0013837890625,-0.9079132080078125,-0.453765869140625,-0.0308380126953125
1761299122271507700,7.0215078125,-0.878326416015625,-0.4593963623046875,-0.0377197265625
1761299122291630800,7.041630859375,-0.8518524169921875,-0.4705963134765625,-0.0493621826171875
1761299122311753700,7.061753662109375,-0.875457763671875,-0.474822998046875,-0.0545196533203125
1761299122331876900,7.081876953125,-0.937042236328125,-0.467437744140625,-0.0489654541015625
1761299122352000800,7.102000732421875,-0.9274444580078125,-0.4420928955078125,-0.0491485595703125
1761299122372123600,7.12212353515625,-0.8901824951171875,-0.4402923583984375,-0.04217529296875
1761299122392246800,7.142246826171875,-0.87628173828125,-0.4472808837890625,-0.032684326171875
1761299122412369700,7.16236962890625,-0.896759033203125,-0.4475555419921875,-0.0310821533203125
1761299122432492800,7.182492919921875,-0.9131011962890625,-0.445281982421875,-0.0191650390625
1761299122452616700,7.20261669921875,-0.8912506103515625,-0.4458770751953125,-0.0100250244140625
1761299122472739600,7.222739501953125,-0.9061126708984375,-0.4529571533203125,-0.0043182373046875
1761299122492862700,7.24286279296875,-0.922515869140625,-0.448516845703125,-0.0092010498046875
1761299122512985600,7.262985595703125,-0.9112548828125,-0.448883056640625,-0.0081634521484375
1761299122533108700,7.283108642578125,-0.9021759033203125,-0.4550628662109375,-0.0159759521484375
1761299122553232600,7.303232666015625,-0.9134979248046875,-0.4552459716796875,-0.0228271484375
1761299122573355800,7.323355712890625,-0.9220123291015625,-0.45184326171875,-0.0121002197265625
1761299122593478700,7.343478759765625,-0.9123687744140625,-0.4380645751953125,-0.0075836181640625
1761299122613601800,7.363601806640625,-0.8967742919921875,-0.4395904541015625,-0.0030975341796875
1761299122633726000,7.383725830078125,-0.87579345703125,-0.4401702880859375,-0.0086669921875
1761299122653848800,7.403848876953125,-0.8635711669921875,-0.441680908203125,-0.005523681640625
1761299122673972000,7.423971923828125,-0.87066650390625,-0.4433135986328125,-0.0137939453125
1761299122694094800,7.4440947265625,-0.8937530517578125,-0.4412994384765625,-0.0172882080078125
1761299122714218000,7.464218017578125,-0.89617919921875,-0.43646240234375,0.0027618408203125
1761299122734342000,7.484341796875,-0.868255615234375,-0.432403564453125,0.0206146240234375
1761299122754464800,7.50446484375,-0.834320068359375,-0.446746826171875,0.0291290283203125
1761299122774588000,7.524587890625,-0.82379150390625,-0.463470458984375,0.0274810791015625
1761299122794710800,7.544710693359375,-0.8604278564453125,-0.4706573486328125,0.0316619873046875
1761299122814834000,7.564833984375,-0.9111175537109375,-0.45904541015625,0.05194091796875
1761299122834957800,7.584957763671875,-0.9263153076171875,-0.4444580078125,0.061248779296875
1761299122855081000,7.6050810546875,-0.9188995361328125,-0.44146728515625,0.0791473388671875
1761299122875203800,7.625203857421875,-0.900909423828125,-0.443450927734375,0.058990478515625
1761299122895327000,7.645326904296875,-0.89300537109375,-0.4406890869140625,0.057647705078125
1761299122915451000,7.665450927734375,-0.8724822998046875,-0.477081298828125,0.12921142578125
1761299122935573800,7.68557373046875,-0.920989990234375,-0.427703857421875,0.0554962158203125
1761299122955697000,7.70569677734375,-0.9516448974609375,-0.4112091064453125,0.0491180419921875
1761299122975819800,7.72581982421875,-1.0319671630859375,-0.3952484130859375,0.0794219970703125
