time,seconds_elapsed,z,y,x
1761299115326481400,0.0764814453125,0.05586669594049454,0.011436183005571365,0.12206096947193146
1761299115346604300,0.096604248046875,0.133580282330513,-0.09207860380411148,0.0544070303440094
1761299115366728400,0.116728515625,0.15981534123420715,-0.3103421926498413,0.1755017787218094
1761299115386851600,0.1368515625,0.08223719149827957,-0.35146403312683105,0.3445223867893219
1761299115406974500,0.156974365234375,-0.035661496222019196,-0.23337219655513763,0.26485180854797363
1761299115427097600,0.17709765625,-0.11690881848335266,-0.17094075679779053,-0.037582989782094955
1761299115447221500,0.197221435546875,-0.14998072385787964,-0.19223953783512115,-0.29859453439712524
1761299115467344600,0.2173447265625,-0.16322088241577148,-0.141830712556839,-0.3089616000652313
1761299115487467500,0.237467529296875,-0.1776958703994751,-0.04041504114866257,-0.15895606577396393
1761299115507590700,0.257590576171875,-0.13760316371917725,-0.0079540079459548,0.0006529229576699436
1761299115527713500,0.277713623046875,-0.10844030976295471,0.02133205346763134,0.10909581929445267
1761299115547837400,0.29783740234375,-0.11743521690368652,0.03073333576321602,0.11984236538410187
1761299115567960600,0.317960693359375,-0.09172558039426804,0.0512382909655571,0.02074957638978958
1761299115588083500,0.33808349609375,-0.05263262242078781,0.02336875908076763,-0.09562168270349503
1761299115608206600,0.35820654296875,-0.035375937819480896,-0.06634034961462021,-0.1042051762342453
1761299115628330000,0.378330078125,-0.06305649876594543,-0.15379536151885986,0.04143577441573143
1761299115648454100,0.3984541015625,-0.09624539315700531,-0.2268131971359253,0.14630034565925598
1761299115668577300,0.418577392578125,-0.10145062208175659,-0.10988067090511322,0.0896415039896965
1761299115688700000,0.438699951171875,-0.10548757761716843,0.06257421523332596,-0.0423177145421505
1761299115708823000,0.458822998046875,-0.07179798930883408,0.1570567637681961,-0.09121948480606079
1761299115728947200,0.478947265625,-0.04919518157839775,0.13442803919315338,-0.061339136213064194
1761299115749070000,0.499070068359375,-0.02865888737142086,0.011222777888178825,-0.01390915922820568
1761299115769193200,0.519193115234375,0.013872635550796986,-0.08562936633825302,-0.00756505923345685
1761299115789316000,0.539316162109375,0.04121275246143341,-0.11676587164402008,-0.1168464943766594
1761299115809439200,0.559439208984375,0.037542086094617844,0.013428488746285439,-0.25819462537765503
1761299115829563100,0.579563232421875,-0.006860845722258091,0.08673644065856934,-0.27048036456108093
1761299115849686300,0.599686279296875,-0.03720177337527275,0.17791268229484558,-0.1806182563304901
1761299115869809200,0.61980908203125,-0.00901426374912262,0.0682644322514534,-0.09803884476423264
1761299115889932000,0.63993212890625,-0.015401476062834263,-0.03568185865879059,-0.00563417561352253
1761299115910056200,0.66005615234375,-0.024783790111541748,0.00280959066003561,-0.0022957755718380213
1761299115930179000,0.680178955078125,-0.016460642218589783,0.08157669752836227,-0.07915254682302475
1761299115950302200,0.70030224609375,-0.025234341621398926,0.14162105321884155,-0.1355127990245819
1761299115970425000,0.720425048828125,0.024107975885272026,0.16123123466968536,-0.08005526661872864
1761299115990548200,0.74054833984375,0.09833279997110367,0.0941382423043251,0.03804382309317589
1761299116010672000,0.760672119140625,0.11861458420753479,0.08158804476261139,0.0681467056274414
1761299116030795000,0.780794921875,0.12552708387374878,0.12160895764827728,0.026746271178126335
1761299116050918100,0.800918212890625,0.1392262578010559,0.13655352592468262,0.0025579645298421383
1761299116071041000,0.821041015625,0.1803920716047287,0.07916028797626495,0.009581519290804863
1761299116091165200,0.841165283203125,0.2411358803510666,-0.06437493860721588,0.01969851925969124
1761299116111288000,0.8612880859375,0.28573042154312134,-0.20636285841464996,0.03529125452041626
1761299116131411200,0.8814111328125,0.2979580760002136,-0.2713683247566223,0.05013805255293846
1761299116151534000,0.9015341796875,0.19465166330337524,-0.146401047706604,0.0738239735364914
1761299116171657000,0.921656982421875,0.03561238572001457,0.08885842561721802,-0.00830761343240738
1761299116191781000,0.941781005859375,-0.04510573297739029,0.3269382119178772,-0.1027056947350502
1761299116211904000,0.961904052734375,-0.07276705652475357,0.3607822358608246,-0.11639579385519028
1761299116232027100,0.982027099609375,-0.03265144303441048,0.26364442706108093,-0.04402961954474449
1761299116252150000,1.00214990234375,0.047000765800476074,0.13629476726055145,0.016853857785463333
1761299116272273200,1.022273193359375,0.12093881517648697,-0.010883406735956669,0.058631572872400284
1761299116292397000,1.04239697265625,0.14569640159606934,-0.06618274748325348,0.06631965935230255
1761299116312520000,1.06252001953125,0.13766613602638245,0.023348579183220863,0.06198728457093239
1761299116332643000,1.08264306640625,0.11704917252063751,0.13952511548995972,0.0871582180261612
1761299116352766000,1.102765869140625,0.09901316463947296,0.11055821925401688,0.12358056753873825
1761299116372890000,1.12289013671875,0.09322533011436462,0.04565054923295975,0.1318465918302536
1761299116393013000,1.143012939453125,0.060155753046274185,-0.022865761071443558,0.08192651718854904
1761299116413136100,1.16313623046875,-0.002911107148975134,-0.009154954925179482,0.023222221061587334
1761299116433259000,1.183259033203125,-0.05061837285757065,0.052128903567790985,-0.0579550601541996
1761299116453382000,1.2033818359375,-0.04315587505698204,0.13039979338645935,-0.13296817243099213
1761299116473506000,1.223506103515625,-0.04418124631047249,0.09033994376659393,-0.14482231438159943
1761299116493629000,1.24362890625,-0.039991576224565506,0.06670550256967545,-0.09072549641132355
1761299116513752000,1.263751953125,-0.03682451695203781,-0.000004392117261886597,-0.08888131380081177
1761299116533875000,1.283875,-0.02221592888236046,0.014233589172363281,-0.10241979360580444
1761299116553999000,1.3039990234375,-0.018494777381420135,0.007405586540699005,-0.09628410637378693
1761299116574122200,1.324122314453125,-0.01067174319177866,-0.016223043203353882,-0.10514097660779953
1761299116594245000,1.3442451171875,0.012652089819312096,-0.008834372274577618,-0.08604558557271957
1761299116614368000,1.364367919921875,0.04054247960448265,-0.09795638918876648,-0.051892079412937164
1761299116634490400,1.384490478515625,0.04342884197831154,-0.13265910744667053,0.007061324082314968
1761299116654614500,1.404614501953125,0.012080787681043148,-0.09178949892520905,0.03405429795384407
1761299116674737400,1.4247373046875,-0.026743344962596893,-0.02660766988992691,-0.03437554091215134
1761299116694860500,1.444860595703125,-0.08989811688661575,-0.07451803982257843,-0.1141456589102745
1761299116714983400,1.4649833984375,-0.1317288726568222,-0.137571781873703,-0.09271583706140518
1761299116735106600,1.4851064453125,-0.11659257858991623,-0.043260253965854645,-0.0164374727755785
1761299116755230500,1.50523046875,-0.05826421454548836,0.14027222990989685,0.008556661196053028
1761299116775353300,1.525353271484375,-0.010131613351404667,0.1845349371433258,-0.0265762098133564
1761299116795476500,1.5454765625,0.03484863042831421,0.14644433557987213,-0.06758753210306168
1761299116815599400,1.565599365234375,0.0809880942106247,0.07369502633810043,-0.07474703341722488
1761299116835723500,1.5857236328125,0.1126900166273117,0.04011929780244827,-0.07525672763586044
1761299116855846400,1.605846435546875,0.13257242739200592,0.025446929037570953,-0.060680557042360306
1761299116875969500,1.625969482421875,0.12010753899812698,0.008671784773468971,-0.04606228321790695
1761299116896092400,1.646092529296875,0.11311320215463638,-0.0004723900929093361,-0.0668502226471901
1761299116916215300,1.66621533203125,0.08551761507987976,0.011559693142771721,-0.07978310436010361
1761299116936339500,1.68633935546875,0.07598556578159332,0.013258494436740875,-0.043572649359703064
1761299116956462300,1.70646240234375,0.08002175390720367,-0.006562482099980116,0.01458179671317339
1761299116976585500,1.72658544921875,0.06325316429138184,0.004494941793382168,0.03164799511432648
1761299116996708400,1.746708251953125,0.04207408055663109,0.012421969324350357,0.020269565284252167
1761299117016831500,1.76683154296875,0.060328200459480286,0.0925028994679451,0.05047750845551491
1761299117036955400,1.786955322265625,0.07427088916301727,0.15791824460029602,0.05681055784225464
1761299117057078300,1.807078369140625,0.07486014813184738,0.12701448798179626,0.014136259444057941
1761299117077201400,1.827201416015625,0.06029307842254639,0.06662510335445404,-0.012172750197350979
1761299117097324300,1.84732421875,0.05286422744393349,-0.01657940074801445,-0.032293014228343964
1761299117117448400,1.867448486328125,0.06957115232944489,-0.03829234093427658,-0.028168935328722
1761299117137571300,1.8875712890625,0.08419430255889893,-0.02780694141983986,-0.01764359138906002
1761299117157694500,1.907694580078125,0.10869061946868896,0.0006485627964138985,-0.0006963539053685963
1761299117177817300,1.9278173828125,0.10730574280023575,0.018017828464508057,-0.01323139388114214
1761299117197940200,1.947940185546875,0.036018263548612595,0.0038579897955060005,-0.03761279582977295
1761299117218064600,1.968064697265625,0.012377784587442875,-0.009128118865191936,-0.011595322750508785
1761299117238187500,1.9881875,0.028281740844249725,-0.08020665496587753,0.04645848274230957
1761299117258310700,2.008310546875,0.010526039637625217,-0.10717779397964478,0.10652809590101242
1761299117278433500,2.02843359375,-0.054925110191106796,-0.0630679652094841,0.1342715173959732
1761299117298556700,2.048556640625,-0.10780605673789978,0.01746983639895916,0.12895601987838745
1761299117318680600,2.0686806640625,-0.12399547547101974,0.08127065002918243,0.10846658051013947
1761299117338803500,2.088803466796875,-0.10308598726987839,0.04518476128578186,0.1142851710319519
1761299117358926600,2.108926513671875,-0.05963883921504021,-0.008305919356644154,0.15916182100772858
1761299117379049500,2.129049560546875,-0.025516068562865257,0.017452891916036606,0.19219854474067688
1761299117399173400,2.14917333984375,-0.027544857934117317,0.037784770131111145,0.1437419354915619
1761299117419296500,2.169296630859375,-0.05686623975634575,0.01330304890871048,0.05896241217851639
1761299117439419400,2.18941943359375,-0.04920802265405655,-0.03858744725584984,0.021034011617302895
1761299117459542500,2.20954248046875,-0.01854490488767624,-0.07190444320440292,0.03894480690360069
1761299117479665400,2.22966552734375,-0.008597632870078087,-0.06233370676636696,0.04378717020153999
1761299117499789600,2.24978955078125,-0.017078822478652,-0.03380265086889267,0.021494152024388313
1761299117519912400,2.269912353515625,-0.033650003373622894,-0.012731481343507767,-0.011873668059706688
1761299117540035600,2.29003564453125,-0.06047648936510086,-0.06245563179254532,-0.02402128279209137
1761299117560158500,2.310158447265625,-0.06866917014122009,-0.13117371499538422,-0.009919045493006706
1761299117580282400,2.330282470703125,-0.06253530830144882,-0.0929080992937088,0.04890644550323486
1761299117600405500,2.350405517578125,-0.0771048292517662,-0.01621372252702713,0.06550931930541992
1761299117620529200,2.370529052734375,-0.08617406338453293,0.05253540724515915,0.028663363307714462
1761299117640652300,2.39065234375,-0.07256319373846054,0.04714176058769226,0.03455829620361328
1761299117660775200,2.410775146484375,-0.042663391679525375,-0.006798545829951763,0.09347043186426163
1761299117680899000,2.430899169921875,-0.01447552815079689,0.052696339786052704,0.11378082633018494
1761299117701022200,2.451022216796875,-0.02105299010872841,0.11480439454317093,0.011180389672517776
1761299117721145000,2.47114501953125,-0.012589151039719582,0.0665525272488594,-0.07351261377334595
1761299117741268200,2.491268310546875,0.015930769965052605,-0.018745850771665573,-0.12811246514320374
1761299117761392000,2.51139208984375,0.023031579330563545,-0.15534959733486176,-0.12415465712547302
1761299117781515000,2.531514892578125,0.05188433825969696,-0.19992266595363617,-0.06446205079555511
1761299117801638100,2.55163818359375,0.0759979858994484,-0.14561916887760162,-0.01980280876159668
1761299117821761000,2.571760986328125,0.08914075791835785,-0.05819720774888992,-0.014793411828577518
1761299117841884200,2.59188427734375,0.024578317999839783,0.01177079789340496,-0.052969906479120255
1761299117862008000,2.612008056640625,-0.047469522804021835,0.057195596396923065,-0.05534622073173523
1761299117882131200,2.632131103515625,-0.07193216681480408,0.025837058201432228,-0.010985448956489563
1761299117902254000,2.652254150390625,-0.07068581879138947,-0.007529131136834621,0.04799225553870201
1761299117922377200,2.672377197265625,-0.057955749332904816,-0.013796983286738396,0.07216252386569977
1761299117942500000,2.6925,-0.04363982006907463,0.04413832351565361,0.0630689412355423
1761299117962624300,2.712624267578125,-0.04344907030463219,0.0930669903755188,0.022162916138768196
1761299117982747400,2.732747314453125,-0.04064827039837837,0.0800326019525528,-0.04003656655550003
1761299118002870000,2.7528701171875,-0.023766297847032547,0.0795319452881813,-0.06911374628543854
1761299118022993200,2.7729931640625,-0.00328165665268898,0.11761751770973206,-0.05654830485582352
1761299118043116000,2.793115966796875,-0.0076462929137051105,0.12348651885986328,-0.03563147410750389
1761299118063240200,2.813240234375,-0.00004225154407322407,0.09164156764745712,-0.030721504241228104
1761299118083363300,2.83336328125,0.0366392619907856,0.06820736825466156,-0.02706710435450077
1761299118103486200,2.853486328125,0.09907013922929764,0.022615402936935425,-0.018079331144690514
1761299118123609300,2.873609375,0.13276474177837372,-0.010150320827960968,-0.013289662078022957
1761299118143733200,2.893733154296875,0.11670476943254471,0.01148269884288311,-0.008272184059023857
1761299118163856400,2.9138564453125,0.05783340707421303,0.03917313367128372,-0.020520750433206558
1761299118183979300,2.933979248046875,0.004519514739513397,0.005226374603807926,-0.06352519989013672
1761299118204102400,2.954102294921875,-0.04083248972892761,-0.05449673905968666,-0.10231513530015945
1761299118224225300,2.974225341796875,-0.08704329282045364,-0.06282059103250504,-0.11695168167352676
1761299118244349200,2.99434912109375,-0.09966958314180374,-0.017776228487491608,-0.08386313170194626
1761299118264472300,3.014472412109375,-0.05726589635014534,-0.011826619505882263,-0.02342996932566166
1761299118284595200,3.03459521484375,0.04430002346634865,-0.021238813176751137,0.06130567193031311
1761299118304718300,3.05471826171875,0.08458448946475983,-0.00784295704215765,0.1379425823688507
1761299118324842200,3.07484228515625,0.0651872530579567,0.04843192547559738,0.16921870410442352
1761299118344965000,3.094965087890625,0.01746620610356331,0.14673955738544464,0.16840869188308716
1761299118365088300,3.115088134765625,-0.012924415990710258,0.20295633375644684,0.13505224883556366
1761299118385211100,3.135211181640625,-0.026347488164901733,0.15121275186538696,0.08814015984535217
1761299118405334300,3.155334228515625,-0.0599830225110054,0.08503986895084381,0.05185965821146965
1761299118425458200,3.175458251953125,-0.08698051422834396,0.033012762665748596,-0.0006341004045680165
1761299118445581300,3.195581298828125,-0.07682749629020691,0.04430887848138809,-0.059120554476976395
1761299118465704200,3.2157041015625,-0.051659587770700455,0.06068424880504608,-0.11499214172363281
1761299118485827300,3.235827392578125,-0.03197735548019409,0.0010296832770109177,-0.15344567596912384
1761299118505950200,3.2559501953125,-0.01462561171501875,-0.12131321430206299,-0.16645851731300354
1761299118526074000,3.27607421875,-0.007957115769386292,-0.1907368004322052,-0.1560453176498413
1761299118546197200,3.296197265625,-0.014939738437533379,-0.20235824584960938,-0.12169516086578369
1761299118566320000,3.316320068359375,-0.02354019694030285,-0.17423507571220398,-0.09951559454202652
1761299118586443300,3.336443359375,-0.0141975749284029,-0.09307412058115005,-0.09367366135120392
1761299118606567200,3.356567138671875,-0.026462862268090248,-0.052145734429359436,-0.06008101627230644
1761299118626689800,3.376689697265625,-0.01158080343157053,-0.10570423305034637,0.02027791179716587
1761299118646812700,3.396812744140625,0.0370037779211998,-0.18641826510429382,0.12445677816867828
1761299118666935800,3.416935791015625,0.04949468374252319,-0.17742162942886353,0.19585075974464417
1761299118687058700,3.43705859375,0.013115271925926208,-0.009357921779155731,0.19715577363967896
1761299118707182600,3.4571826171875,-0.06142840161919594,0.23062162101268768,0.09648987650871277
1761299118727305700,3.4773056640625,-0.07253096252679825,0.3751600682735443,0.004601325839757919
1761299118747428600,3.4974287109375,-0.030265044420957565,0.31829512119293213,0.011998210102319717
1761299118767551700,3.5175517578125,0.03727170452475548,0.16165152192115784,0.0801721140742302
1761299118787674600,3.537674560546875,0.07552582025527954,0.0428532138466835,0.11315042525529861
1761299118807798500,3.557798583984375,0.0336550809442997,-0.021161772310733795,0.07325437664985657
1761299118827921700,3.577921630859375,-0.0025911584962159395,0.008232681080698967,-0.008462021127343178
1761299118848044500,3.59804443359375,-0.057254206389188766,0.02588145062327385,-0.06809831410646439
1761299118868167700,3.618167724609375,-0.08450690656900406,-0.08097532391548157,-0.07724086195230484
1761299118888291600,3.63829150390625,-0.05783750116825104,-0.19054940342903137,-0.04590752720832825
1761299118908414700,3.658414794921875,-0.044877663254737854,-0.20982041954994202,-0.05288093909621239
1761299118928537600,3.67853759765625,-0.04393060505390167,-0.10350639373064041,-0.06128222867846489
1761299118948660700,3.69866064453125,-0.026528196409344673,0.009971247985959053,-0.06662330031394958
1761299118968783600,3.71878369140625,0.007949059829115868,0.056877076625823975,-0.022372961044311523
1761299118988907500,3.738907470703125,0.02755049243569374,0.0702180340886116,0.023891407996416092
1761299119009030700,3.75903076171875,0.024365155026316643,0.05219535157084465,0.037345558404922485
1761299119029153500,3.779153564453125,0.06310062110424042,0.007011412642896175,0.04210318997502327
1761299119049276700,3.799276611328125,0.1099984347820282,0.020978284999728203,0.08116346597671509
1761299119069399600,3.819399658203125,0.13987088203430176,0.03680504485964775,0.1022951751947403
1761299119089523500,3.8395234375,0.15548524260520935,0.0693282037973404,0.07976622134447098
1761299119109646600,3.859646484375,0.12838397920131683,0.031094560399651527,0.08495127409696579
1761299119129769500,3.87976953125,0.09439308196306229,-0.018656348809599876,0.11514533311128616
1761299119149892600,3.899892578125,0.054659463465213776,0.024496663361787796,0.10253243893384933
1761299119170015500,3.920015380859375,0.01388262864202261,0.09043271839618683,0.04986373335123062
1761299119190139600,3.9401396484375,0.01195874810218811,0.05750039219856262,0.02006937935948372
1761299119210262500,3.960262451171875,0.03541973978281021,0.020621975883841515,0.04358787462115288
1761299119230385700,3.9803857421875,0.01829902082681656,-0.03481975942850113,0.03489995002746582
1761299119250508500,4.000508544921875,0.031049685552716255,-0.07507044076919556,0.027268296107649803
1761299119270631400,4.02063134765625,0.07919025421142578,-0.03114798292517662,0.0685570165514946
1761299119290754600,4.040754638671875,0.10856282711029053,0.042191848158836365,0.13608643412590027
1761299119310877400,4.06087744140625,0.08725989609956741,0.09912080317735672,0.12738491594791412
1761299119331000600,4.08100048828125,0.05819154530763626,0.040268197655677795,0.043788179755210876
1761299119351124500,4.10112451171875,0.04321187734603882,-0.06463643908500671,0.01637103594839573
1761299119371247600,4.12124755859375,0.014154779724776745,-0.13172116875648499,0.014067566953599453
1761299119391370500,4.14137060546875,0.013524826616048813,-0.08604082465171814,-0.0007345839403569698
1761299119411493600,4.16149365234375,0.03217078745365143,-0.01525256410241127,0.020990731194615364
1761299119431617800,4.18161767578125,0.05552785098552704,0.035867586731910706,0.06974388659000397
1761299119451740400,4.201740478515625,0.06616474688053131,0.033139072358608246,0.04553290084004402
1761299119471863600,4.221863525390625,0.05999177321791649,-0.034241460263729095,-0.020278817042708397
1761299119491986400,4.241986328125,0.043524522334337234,-0.16599124670028687,-0.03379210829734802
1761299119512109600,4.262109619140625,-0.026362696662545204,-0.20433007180690765,0.008047244511544704
1761299119532233700,4.282233642578125,-0.09387184679508209,-0.10289444774389267,0.03466065227985382
1761299119552356600,4.302356689453125,-0.08512724190950394,-0.020460795611143112,0.012234321795403957
1761299119572479700,4.322479736328125,-0.03817509114742279,-0.03604114428162575,-0.003368239151313901
1761299119592602600,4.3426025390625,-0.010288961231708527,-0.06659308075904846,0.038971684873104095
1761299119612726800,4.362726806640625,-0.01738378033041954,-0.04430924728512764,0.09098300337791443
1761299119632850000,4.382849853515625,-0.015423201024532318,0.06118457764387131,0.08890581876039505
1761299119652973000,4.40297314453125,0.004866496659815311,0.14543180167675018,0.05574319139122963
1761299119673096000,4.423095947265625,0.04967696964740753,0.10969805717468262,0.03077327460050583
1761299119693219000,4.443218994140625,0.06761465966701508,0.03698859363794327,0.0033521191217005253
1761299119713343000,4.463343017578125,0.013761622831225395,-0.07124020159244537,-0.05341918393969536
1761299119733465900,4.4834658203125,-0.0717567428946495,-0.11512909084558487,-0.11101403087377548
1761299119753589000,4.503589111328125,-0.09813085198402405,-0.06123459339141846,-0.11774033308029175
1761299119773712000,4.5237119140625,-0.03241273760795593,0.014781782403588295,-0.09012804925441742
1761299119793835000,4.5438349609375,0.022302577272057533,-0.011705761775374413,-0.12000712752342224
1761299119813959000,4.563958984375,0.025279179215431213,-0.12983101606369019,-0.13616609573364258
1761299119834081800,4.584081787109375,-0.005266963504254818,-0.21462813019752502,-0.07439244538545609
1761299119854205000,4.604204833984375,-0.02382119745016098,-0.18969164788722992,-0.02950594387948513
1761299119874327800,4.624327880859375,0.003644240088760853,-0.05945664271712303,-0.062249235808849335
1761299119894451000,4.644450927734375,0.04691334441304207,0.0968102216720581,-0.07497565448284149
1761299119914574800,4.664574951171875,0.03298008814454079,0.1476251780986786,-0.041544076055288315
1761299119934698000,4.684697998046875,0.003933844622224569,0.1453852504491806,-0.03198423609137535
1761299119954820900,4.70482080078125,0.0180205088108778,0.12844565510749817,-0.12225223332643509
1761299119974944000,4.724944091796875,0.07453610748052597,0.11363369971513748,-0.1819114238023758
1761299119995068000,4.74506787109375,0.14281223714351654,0.11416550725698471,-0.10644157230854034
1761299120015190800,4.765190673828125,0.22805872559547424,0.07063523679971695,0.0006709772860631347
1761299120035314000,4.78531396484375,0.27839088439941406,-0.025675322860479355,0.001341294962912798
1761299120055436800,4.805436767578125,0.24449652433395386,-0.06264761090278625,-0.051569536328315735
1761299120075560000,4.825559814453125,0.15993854403495789,-0.05004649609327316,-0.09451255202293396
1761299120095683800,4.845683837890625,0.08250455558300018,0.01620941236615181,-0.07745664566755295
1761299120115806700,4.865806640625,0.04742629453539848,0.061337608844041824,-0.03623203933238983
1761299120135929900,4.885929931640625,0.047567903995513916,0.0632210224866867,-0.01790815219283104
1761299120156052700,4.906052734375,0.03499659150838852,0.057067759335041046,-0.0027394667267799377
1761299120176175900,4.92617578125,0.01591704972088337,0.03711025416851044,0.02699284255504608
1761299120196299800,4.9462998046875,0.022846344858407974,0.07929199934005737,0.08209440112113953
1761299120216423000,4.9664228515625,0.05802983418107033,0.16335518658161163,0.1138419434428215
1761299120236545800,4.9865458984375,0.09185069054365158,0.23370002210140228,0.13965082168579102
1761299120256669000,5.0066689453125,0.09440615773200989,0.2485736459493637,0.16651391983032227
1761299120276792800,5.026792724609375,0.07839217036962509,0.15351638197898865,0.19209572672843933
1761299120296915700,5.046915771484375,0.033401355147361755,0.020493237301707268,0.19155144691467285
1761299120317038800,5.067038818359375,-0.02944927103817463,-0.07423156499862671,0.10524217784404755
1761299120337161700,5.08716162109375,-0.08645385503768921,-0.10976151376962662,-0.021298274397850037
1761299120357284900,5.107284912109375,-0.13988155126571655,-0.10810388624668121,-0.11395719647407532
1761299120377409000,5.127408935546875,-0.16648486256599426,-0.16881036758422852,-0.17096708714962006
1761299120397532000,5.147531982421875,-0.1613035649061203,-0.18840108811855316,-0.23776914179325104
1761299120417654800,5.16765478515625,-0.11999456584453583,-0.2780999541282654,-0.24838577210903168
1761299120437777700,5.187777587890625,-0.11462271213531494,-0.4158244729042053,-0.1599714607000351
1761299120457900800,5.20790087890625,-0.1175772100687027,-0.375376433134079,-0.09261028468608856
1761299120478025000,5.22802490234375,-0.12874294817447662,-0.38102540373802185,-0.04103611037135124
1761299120498147800,5.24814794921875,-0.20764367282390594,-0.23930752277374268,-0.010858416557312012
1761299120518271000,5.26827099609375,-0.21106764674186707,0.047614578157663345,-0.022845415398478508
1761299120538393900,5.288393798828125,-0.1943225860595703,0.16707830131053925,-0.0041667097248137
1761299120558518000,5.30851806640625,-0.21890652179718018,0.0986010879278183,0.09388481080532074
1761299120578641000,5.328640869140625,-0.26244619488716125,0.1029457151889801,0.12786445021629333
1761299120598764000,5.348763916015625,-0.2737824618816376,0.11877072602510452,0.02934945560991764
1761299120618887000,5.368886962890625,-0.22464649379253387,0.09119826555252075,-0.07018430531024933
1761299120639009500,5.389009521484375,-0.18635083734989166,0.028546558693051338,-0.04026304930448532
1761299120659133700,5.4091337890625,-0.18061895668506622,-0.026546282693743706,0.0635775774717331
1761299120679256600,5.429256591796875,-0.18729884922504425,-0.12061120569705963,0.06596779823303223
1761299120699379700,5.449379638671875,-0.17977270483970642,-0.1328829973936081,-0.046345267444849014
1761299120719502600,5.469502685546875,-0.1788761019706726,-0.17799554765224457,-0.17724280059337616
1761299120739625700,5.489625732421875,-0.1752653867006302,-0.27824413776397705,-0.16116435825824738
1761299120759749600,5.50974951171875,-0.16957341134548187,-0.2981427311897278,-0.04742581397294998
1761299120779872800,5.529872802734375,-0.1765364706516266,-0.21296408772468567,0.031298477202653885
1761299120799995600,5.54999560546875,-0.1759253591299057,-0.08448296785354614,0.027023231610655785
1761299120820118800,5.570118896484375,-0.11676450818777084,0.10326935350894928,-0.001539841527119279
1761299120840242700,5.59024267578125,-0.051918335258960724,0.20338423550128937,-0.0028878049924969673
1761299120860365600,5.610365478515625,-0.03523535281419754,0.18493355810642242,0.004505250137299299
1761299120880488700,5.63048876953125,-0.025826318189501762,0.12478356808423996,-0.012585229240357876
1761299120900611600,5.650611572265625,0.006394342519342899,0.05170480161905289,-0.05367901548743248
1761299120920734700,5.670734619140625,0.04066849499940872,0.011182671412825584,-0.09496267884969711
1761299120940858600,5.690858642578125,0.058307550847530365,-0.017156584188342094,-0.1319671869277954
1761299120960981500,5.7109814453125,0.07233761250972748,-0.05566427484154701,-0.14583705365657806
1761299120981104600,5.731104736328125,0.09447716921567917,-0.08585134148597717,-0.11529239267110825
1761299121001227500,5.7512275390625,0.09399916231632233,-0.1008426696062088,-0.060414958745241165
1761299121021351700,5.7713515625,0.09601105749607086,-0.03675638884305954,-0.03301836922764778
1761299121041474600,5.791474609375,0.11086399853229523,0.048017218708992004,-0.022702421993017197
1761299121061597700,5.81159765625,0.12364145368337631,0.09901037067174911,0.01027897372841835
1761299121081720600,5.831720458984375,0.12189380079507828,0.08134515583515167,0.05188664048910141
1761299121101843700,5.85184375,0.11117702722549438,0.03301441669464111,0.07324494421482086
1761299121121967600,5.871967529296875,0.11146274209022522,0.03697977587580681,0.0891338512301445
1761299121142090500,5.892090576171875,0.12745261192321777,0.10896959900856018,0.1346808522939682
1761299121162213600,5.912213623046875,0.11256757378578186,0.17086051404476166,0.14451530575752258
1761299121182336500,5.93233642578125,0.08081244677305222,0.13227902352809906,0.09631288051605225
1761299121202459600,5.952459716796875,0.028847577050328255,0.053743232041597366,0.023891959339380264
1761299121222583600,5.97258349609375,-0.011036721989512444,0.022735515609383583,-0.0034536439925432205
1761299121242706400,5.99270654296875,-0.0021197146270424128,0.07125692814588547,0.0041822814382612705
1761299121262829600,6.01282958984375,0.04690083861351013,0.1213674396276474,0.014448207803070545
1761299121282952400,6.032952392578125,0.05905555933713913,0.15891461074352264,0.023301243782043457
1761299121303076600,6.05307666015625,0.056075941771268845,0.12263225018978119,0.04826731979846954
1761299121323199500,6.073199462890625,0.054383788257837296,0.031009851023554802,0.06749331206083298
1761299121343322600,6.093322509765625,0.02989640086889267,0.0010158158838748932,0.06073012575507164
1761299121363445500,6.113445556640625,0.009726472198963165,0.03950174152851105,0.05238074064254761
1761299121383568600,6.133568603515625,0.0062919920310378075,-0.011862112209200859,0.06014958396553993
1761299121403692500,6.153692626953125,0.006545132491737604,-0.09707263857126236,0.0646858662366867
1761299121423815400,6.1738154296875,0.006608235649764538,-0.11989481002092361,0.07319282740354538
1761299121443938600,6.1939384765625,0.02294466644525528,-0.13942697644233704,0.1019660159945488
1761299121464061400,6.2140615234375,0.04983355104923248,-0.14706844091415405,0.13274307548999786
1761299121484184600,6.2341845703125,0.09017306566238403,-0.10395033657550812,0.13798893988132477
1761299121504308500,6.25430859375,0.10713478922843933,-0.07786349952220917,0.12327808141708374
1761299121524431400,6.274431396484375,0.11668789386749268,-0.15707184374332428,0.10660665482282639
1761299121544554500,6.294554443359375,0.14473019540309906,-0.2637418806552887,0.06082475930452347
1761299121564677400,6.314677490234375,0.12095005065202713,-0.30080515146255493,-0.01582157611846924
1761299121584801800,6.3348017578125,0.05469394102692604,-0.28504088521003723,-0.05190131813287735
1761299121604924700,6.354924560546875,0.0031154958996921778,-0.21375709772109985,-0.06393638998270035
1761299121625047800,6.3750478515625,-0.049517665058374405,-0.1220584511756897,-0.10087888687849045
1761299121645170700,6.395170654296875,-0.10179832577705383,-0.09802094101905823,-0.12974923849105835
1761299121665293600,6.41529345703125,-0.10305347293615341,-0.03870756924152374,-0.12972407042980194
1761299121685417700,6.435417724609375,-0.07692918181419373,-0.0033738496713340282,-0.10758084803819656
1761299121705540600,6.45554052734375,-0.05667513236403465,-0.007075565401464701,-0.05408935248851776
1761299121725663700,6.475663818359375,-0.027268322184681892,0.022961217910051346,0.01060163788497448
1761299121745786600,6.49578662109375,0.0010159319499507546,0.08879581093788147,0.024941539391875267
1761299121765909800,6.51590966796875,0.016504131257534027,0.11289747059345245,-0.016207339242100716
1761299121786033700,6.53603369140625,0.011660095304250717,0.07120254635810852,-0.07010010629892349
1761299121806156500,6.556156494140625,0.01932353340089321,0.06414652615785599,-0.07551536709070206
1761299121826279700,6.57627978515625,0.02376861497759819,0.053237684071063995,-0.10324792563915253
1761299121846402600,6.596402587890625,0.07190803438425064,0.009141121059656143,-0.12057148665189743
1761299121866526700,6.616526611328125,0.13678738474845886,-0.02922607958316803,-0.09946558624505997
1761299121886649600,6.636649658203125,0.15579275786876678,-0.09038896858692169,-0.11557915061712265
1761299121906772700,6.656772705078125,0.11014305800199509,-0.08747019618749619,-0.1709325909614563
1761299121926895600,6.6768955078125,0.05269269272685051,-0.030461018905043602,-0.21582311391830444
1761299121947018500,6.6970185546875,0.03633934631943703,0.030904904007911682,-0.17975696921348572
1761299121967143000,6.717142822265625,0.05583157762885094,0.06187950819730759,-0.1442367136478424
1761299121987265500,6.737265625,0.08321598917245865,0.039434973150491714,-0.13630804419517517
1761299122007388700,6.757388671875,0.12470002472400665,-0.04350963234901428,-0.13639043271541595
1761299122027511600,6.777511474609375,0.13776180148124695,0.01165471225976944,-0.08880273252725601
1761299122047635700,6.7976357421875,0.14383606612682343,0.12211113423109055,-0.009478632360696793
1761299122067758800,6.8177587890625,0.16095884144306183,0.17307426035404205,0.030073203146457672
1761299122087881700,6.8378818359375,0.1321605145931244,0.21900542080402374,0.05724005401134491
1761299122108004900,6.8580048828125,0.06922855973243713,0.22261080145835876,0.03559761866927147
1761299122128127700,6.878127685546875,0.0521523654460907,0.16138261556625366,0.007015774957835674
1761299122148251600,6.898251708984375,0.045125480741262436,0.09879858791828156,-0.06665312498807907
1761299122168374800,6.918374755859375,0.06763981282711029,0.03494517505168915,-0.123043492436409
1761299122188497700,6.93849755859375,0.06567952781915665,0.002073226496577263,-0.11804421246051788
1761299122208620800,6.958620849609375,0.06148819625377655,0.021309440955519676,-0.06612872332334518
1761299122228743700,6.97874365234375,0.05700547248125076,0.04867779091000557,-0.027071677148342133
1761299122248867800,6.998867919921875,0.06489963829517365,0.09678076207637787,0.009925701655447483
1761299122268990700,7.01899072265625,0.06761182844638824,0.1451905220746994,-0.027976196259260178
1761299122289113900,7.03911376953125,0.05922546982765198,0.1853925585746765,-0.13423964381217957
1761299122309236700,7.05923681640625,0.008815070614218712,0.13128705322742462,-0.18565379083156586
1761299122329360600,7.079360595703125,-0.0028783094603568316,0.05092553049325943,-0.07754308730363846
1761299122349483800,7.09948388671875,0.003380764275789261,0.07311533391475677,0.010681753978133202
1761299122369606700,7.119606689453125,0.020297184586524963,0.11109299212694168,-0.02515632100403309
1761299122389729800,7.139729736328125,0.005871754605323076,0.08935341984033585,-0.10085809230804443
1761299122409852700,7.159852783203125,-0.042651623487472534,0.01235099695622921,-0.10640828311443329
1761299122429976600,7.1799765625,-0.048156701028347015,0.011525366455316544,-0.036854397505521774
1761299122450099700,7.200099609375,-0.05224370211362839,-0.022904861718416214,-0.01823507808148861
1761299122470222600,7.22022265625,-0.03974079340696335,-0.0674745962023735,-0.013800584711134434
1761299122490345700,7.240345703125,-0.033104121685028076,-0.06898116320371628,0.016395391896367073
1761299122510468600,7.260468505859375,-0.019797930493950844,-0.04399687796831131,0.012218810617923737
1761299122530592800,7.2805927734375,-0.03520289063453674,-0.005086077842861414,-0.029472636058926582
1761299122550715600,7.300715576171875,-0.07644800841808319,0.022258225828409195,-0.03483862057328224
1761299122570838800,7.3208388671875,-0.09887845069169998,0.009675480425357819,0.017043163999915123
1761299122590961700,7.340961669921875,-0.08618072420358658,-0.009615288116037846,0.07265733927488327
1761299122611085600,7.36108544921875,-0.06488274037837982,-0.028990931808948517,0.10118521749973297
1761299122631209000,7.381208984375,-0.06912749260663986,-0.022802546620368958,0.09227734059095383
1761299122651331800,7.401331787109375,-0.07565416395664215,-0.04778086394071579,0.04411846771836281
1761299122671455000,7.421455078125,-0.08934115618467331,-0.01853213459253311,-0.03821154311299324
1761299122691577900,7.441577880859375,-0.09598603844642639,0.06441321223974228,-0.0473041795194149
1761299122711701800,7.46170166015625,-0.12277988344430923,0.08399509638547897,0.013584708794951439
1761299122731825000,7.481824951171875,-0.10242360830307007,0.10924984514713287,0.028180155903100967
1761299122751947800,7.50194775390625,-0.07916668057441711,0.1346675455570221,-0.06176934391260147
1761299122772071000,7.52207080078125,-0.10133913159370422,0.18499211966991425,-0.2057482749223709
1761299122792193800,7.54219384765625,-0.14349780976772308,0.16188164055347443,-0.29582932591438293
1761299122812318000,7.56231787109375,-0.11488773673772812,0.13158684968948364,-0.24743624031543732
1761299122832440800,7.58244091796875,-0.10103023052215576,0.12681201100349426,-0.1367339938879013
1761299122852564000,7.60256396484375,-0.04613615944981575,0.17665520310401917,-0.10167893022298813
1761299122872686800,7.622686767578125,-0.01591956987977028,0.27997347712516785,-0.14697830379009247
1761299122892810800,7.642810791015625,-0.10747191309928894,0.23026341199874878,0.00888078659772873
1761299122912934000,7.662933837890625,-0.019122567027807236,-0.11789953708648682,-0.14645043015480042
1761299122933056800,7.683056884765625,0.026158256456255913,-0.12843193113803864,-0.26923179626464844
1761299122953180000,7.703179931640625,0.05022946745157242,-0.06976392865180969,-0.26417702436447144
1761299122973302800,7.723302734375,0.0502280592918396,-0.13592293858528137,0.1459476351737976
1761299122993426700,7.7434267578125,0.07812593877315521,-0.3133201003074646,0.5601508021354675
