time,seconds_elapsed,z,y,x
1761299115308875500,0.05887548828125,0.11879882216453552,-0.13576927781105042,0.26671531796455383
1761299115328998700,0.07899853515625,0.056775130331516266,0.0178194772452116,0.10422973334789276
1761299115349121500,0.09912158203125,0.140260711312294,-0.10788518935441971,0.0573333315551281
1761299115369244400,0.119244384765625,0.15113092958927155,-0.3224986791610718,0.19824278354644775
1761299115389368600,0.13936865234375,0.06599739193916321,-0.3292393982410431,0.35144779086112976
1761299115409491500,0.159491455078125,-0.052018459886312485,-0.21273304522037506,0.23626473546028137
1761299115429614600,0.179614501953125,-0.1247698962688446,-0.15691478550434113,-0.0847415179014206
1761299115449737500,0.199737548828125,-0.1553211510181427,-0.18828335404396057,-0.3127366006374359
1761299115469861600,0.219861572265625,-0.1694345623254776,-0.12249049544334412,-0.295356810092926
1761299115489984500,0.239984619140625,-0.1828044354915619,-0.022551381960511208,-0.14097362756729126
1761299115510107400,0.260107421875,-0.13441000878810883,0.000291616132017225,0.01931271143257618
1761299115530230500,0.28023046875,-0.11130761355161667,0.03473268076777458,0.117726631462574
1761299115550353400,0.300353515625,-0.11745685338973999,0.03728718310594559,0.1099933460354805
1761299115570477600,0.3204775390625,-0.0906824991106987,0.05957917496562004,0.004336425103247166
1761299115590600400,0.340600341796875,-0.05223177745938301,0.02243739925324917,-0.10457674413919449
1761299115610723600,0.3607236328125,-0.03856842964887619,-0.06416220963001251,-0.09340504556894302
1761299115630847000,0.380846923828125,-0.07309950888156891,-0.16282354295253754,0.06312224268913269
1761299115650971100,0.40097119140625,-0.10157669335603714,-0.21024911105632782,0.14327619969844818
1761299115671094300,0.42109423828125,-0.10969027876853943,-0.07862823456525803,0.07211946696043015
1761299115691217200,0.441217041015625,-0.10453014075756073,0.09092804044485092,-0.054542072117328644
1761299115711340300,0.46134033203125,-0.06814177334308624,0.1693839728832245,-0.09088436514139175
1761299115731463200,0.481463134765625,-0.050765976309776306,0.1316531002521515,-0.0561884380877018
1761299115751587000,0.501587158203125,-0.02889156900346279,0.0037939392495900393,-0.006658168975263834
1761299115771710200,0.521710205078125,0.017230918630957603,-0.08870190382003784,-0.013403156772255898
1761299115791833000,0.5418330078125,0.04084916412830353,-0.09646981209516525,-0.13766758143901825
1761299115811956200,0.561956298828125,0.029804766178131104,0.0359627939760685,-0.2723127603530884
1761299115832079000,0.5820791015625,-0.014788267202675343,0.10522016137838364,-0.2601301074028015
1761299115852203000,0.602203125,-0.03939986974000931,0.1824084222316742,-0.17093339562416077
1761299115872326100,0.622326171875,-0.007526625879108906,0.05074120685458183,-0.08607922494411469
1761299115892449000,0.642448974609375,-0.021995579823851585,-0.02917466312646866,-0.0018969696247950196
1761299115912572200,0.662572265625,-0.025288045406341553,0.019687684252858162,-0.0070280819199979305
1761299115932696000,0.682696044921875,-0.021256553009152412,0.10128188133239746,-0.09192778915166855
1761299115952819200,0.702819091796875,-0.027956267818808556,0.15426521003246307,-0.13672801852226257
1761299115972942000,0.722942138671875,0.031027957797050476,0.16337747871875763,-0.06802672147750854
1761299115993065200,0.743065185546875,0.10240466892719269,0.09804321080446243,0.0477595329284668
1761299116013188000,0.76318798828125,0.11683767288923264,0.09490068256855011,0.061459366232156754
1761299116033312000,0.78331201171875,0.12274269759654999,0.13617461919784546,0.020744692534208298
1761299116053435100,0.80343505859375,0.1359357237815857,0.13934750854969025,0.0018306568963453174
1761299116073558000,0.82355810546875,0.1861802637577057,0.07444973289966583,0.0075665730983018875
1761299116093681200,0.84368115234375,0.24601562321186066,-0.08021281659603119,0.02232314832508564
1761299116113805000,0.86380517578125,0.2892318069934845,-0.20535288751125336,0.03494307026267052
1761299116133928000,0.883927978515625,0.28979188203811646,-0.26280099153518677,0.05167890712618828
1761299116154051000,0.904051025390625,0.17169852554798126,-0.10993768274784088,0.07246620953083038
1761299116174174000,0.924174072265625,0.0145901283249259,0.12985466420650482,-0.022726617753505707
1761299116194297000,0.944297119140625,-0.05453541502356529,0.35472026467323303,-0.10987216979265213
1761299116214421000,0.9644208984375,-0.07607878744602203,0.3596141040325165,-0.11344373971223831
1761299116234544000,0.984544189453125,-0.025013474747538567,0.2584605813026428,-0.03684350103139877
1761299116254667000,1.0046669921875,0.054969243705272675,0.12707725167274475,0.024646224454045296
1761299116274790100,1.0247900390625,0.12277651578187943,-0.01846342906355858,0.06296884268522263
1761299116294913000,1.0449130859375,0.1440378725528717,-0.054790809750556946,0.0644594132900238
1761299116315037000,1.065036865234375,0.13373489677906036,0.050754789263010025,0.06503306329250336
1761299116335160000,1.08516015625,0.10999467968940735,0.1501048058271408,0.08798231929540634
1761299116355283000,1.105282958984375,0.09259624779224396,0.11126554012298584,0.1307247281074524
1761299116375406000,1.125406005859375,0.09020605683326721,0.049194443970918655,0.12579813599586487
1761299116395530000,1.145530029296875,0.05109913647174835,-0.020615795627236366,0.07431364804506302
1761299116415652900,1.16565283203125,-0.012747220695018768,0.006958573590964079,0.014156565070152283
1761299116435776000,1.18577587890625,-0.05486617982387543,0.0705985352396965,-0.07309764623641968
1761299116455899000,1.20589892578125,-0.04483538120985031,0.13794802129268646,-0.13904044032096863
1761299116476022000,1.22602197265625,-0.04742930084466934,0.09186360985040665,-0.13803589344024658
1761299116496146000,1.24614599609375,-0.038845401257276535,0.06786293536424637,-0.08658070117235184
1761299116516269000,1.26626904296875,-0.03891464322805405,0.003019758267328143,-0.09380585700273514
1761299116536392000,1.286391845703125,-0.02618260122835636,0.023092802613973618,-0.10385875403881073
1761299116556515000,1.30651513671875,-0.02088211290538311,0.014992265030741692,-0.1013612449169159
1761299116576638000,1.326637939453125,-0.008007592521607876,-0.007896805182099342,-0.10493733733892441
1761299116596762000,1.34676220703125,0.011524563655257225,-0.009550361894071102,-0.08253642171621323
1761299116616884500,1.366884521484375,0.03919374197721481,-0.09797050803899765,-0.04508918151259422
1761299116637007400,1.38700732421875,0.03633590415120125,-0.12675528228282928,0.011444135569036007
1761299116657130500,1.407130615234375,0.00672208471223712,-0.0719306468963623,0.031245270743966103
1761299116677254400,1.42725439453125,-0.03652365505695343,-0.02045227773487568,-0.046903327107429504
1761299116697377500,1.44737744140625,-0.10187949240207672,-0.07386410236358643,-0.11789148300886154
1761299116717500400,1.46750048828125,-0.13625851273536682,-0.12621812522411346,-0.08343923091888428
1761299116737623600,1.48762353515625,-0.11135075986385345,-0.011535748839378357,-0.008933307603001595
1761299116757746400,1.507746337890625,-0.049803510308265686,0.16145147383213043,0.004466920159757137
1761299116777870300,1.527870361328125,-0.004592887591570616,0.19066262245178223,-0.031243406236171722
1761299116797993500,1.547993408203125,0.04132533445954323,0.14439153671264648,-0.06990425288677216
1761299116818116400,1.568116455078125,0.0823340192437172,0.07546918839216232,-0.07934515923261642
1761299116838239500,1.588239501953125,0.11449621617794037,0.04458504542708397,-0.07572698593139648
1761299116858363400,1.60836328125,0.129954531788826,0.034380875527858734,-0.05471011623740196
1761299116878486300,1.628486328125,0.11545229703187943,0.012738431803882122,-0.047021836042404175
1761299116898609400,1.648609375,0.10584760457277298,0.010176737792789936,-0.06996976584196091
1761299116918732300,1.668732177734375,0.08156277239322662,0.023305056616663933,-0.07799892872571945
1761299116938855400,1.68885546875,0.07718932628631592,0.017614945769309998,-0.03593989089131355
1761299116958979300,1.708979248046875,0.07840479165315628,0.0008372978190891445,0.019207783043384552
1761299116979102500,1.7291025390625,0.056340236216783524,0.009051552042365074,0.028874525800347328
1761299116999225300,1.749225341796875,0.04057352617383003,0.028211131691932678,0.022059496492147446
1761299117019348500,1.769348388671875,0.05720656365156174,0.11217846721410751,0.05475565791130066
1761299117039471400,1.789471435546875,0.07114128768444061,0.16911499202251434,0.05419745668768883
1761299117059595300,1.80959521484375,0.07348620146512985,0.12640108168125153,0.00649598240852356
1761299117079718400,1.829718505859375,0.05477030575275421,0.06332331150770187,-0.013866547495126724
1761299117099841300,1.84984130859375,0.051842689514160156,-0.01786608248949051,-0.033477533608675
1761299117119964400,1.86996435546875,0.07097537070512772,-0.0283522792160511,-0.028689168393611908
1761299117140088600,1.890088623046875,0.08626963943243027,-0.018986741080880165,-0.01792973279953003
1761299117160211500,1.91021142578125,0.1046728789806366,0.008252870291471481,-0.001757952617481351
1761299117180334600,1.93033447265625,0.09501732885837555,0.020895695313811302,-0.020012857392430305
1761299117200457200,1.950457275390625,0.025784192606806755,0.014342720620334148,-0.03507649526000023
1761299117220580400,1.970580322265625,0.011057444848120213,-0.007564176339656115,-0.004938033409416676
1761299117240704500,1.99070458984375,0.026451047509908676,-0.07920534163713455,0.057430803775787354
1761299117260827600,2.01082763671875,0.0003025351034011692,-0.0980682447552681,0.11192626506090164
1761299117280950500,2.030950439453125,-0.06347351521253586,-0.048211470246315,0.13528911769390106
1761299117301073700,2.05107373046875,-0.11456918716430664,0.03380456939339638,0.12398958951234818
1761299117321197600,2.071197509765625,-0.12461303174495697,0.0929350033402443,0.10454824566841125
1761299117341320400,2.091320556640625,-0.1013047844171524,0.04313628375530243,0.11702222377061844
1761299117361443600,2.111443603515625,-0.05535699799656868,0.004253068007528782,0.1646304875612259
1761299117381566500,2.13156640625,-0.024982580915093422,0.029942452907562256,0.1846180558204651
1761299117401689600,2.151689697265625,-0.032821331173181534,0.04373496398329735,0.13169464468955994
1761299117421813500,2.1718134765625,-0.06029609590768814,0.014259363524615765,0.0476391576230526
1761299117441936400,2.191936279296875,-0.04529238119721413,-0.033009883016347885,0.022051239386200905
1761299117462059500,2.2120595703125,-0.018192585557699203,-0.06747331470251083,0.03823234140872955
1761299117482182400,2.232182373046875,-0.012032694183290005,-0.0493832603096962,0.04086567461490631
1761299117502305500,2.252305419921875,-0.02064162865281105,-0.022242987528443336,0.015122227370738983
1761299117522429400,2.272429443359375,-0.04256210848689079,-0.006245112512260675,-0.012911271303892136
1761299117542552600,2.292552490234375,-0.06830981373786926,-0.06119731068611145,-0.02431359514594078
1761299117562675500,2.312675537109375,-0.07186087220907211,-0.12430304288864136,-0.004984105937182903
1761299117582798600,2.332798583984375,-0.06782778352499008,-0.07744179666042328,0.05284297466278076
1761299117602922500,2.352922607421875,-0.08280406892299652,0.0007219829712994397,0.0629187747836113
1761299117623046100,2.373046142578125,-0.08815116435289383,0.0636061429977417,0.024337030947208405
1761299117643169300,2.393169189453125,-0.07211147993803024,0.046482548117637634,0.035841621458530426
1761299117663292200,2.413292236328125,-0.041917890310287476,0.0036554548423737288,0.10262784361839294
1761299117683415300,2.433415283203125,-0.017068998888134956,0.07270083576440811,0.10702499002218246
1761299117703539200,2.453539306640625,-0.02461932599544525,0.12384817749261856,-0.003172357566654682
1761299117723662000,2.473662109375,-0.01474698819220066,0.061580806970596313,-0.07942797988653183
1761299117743785200,2.49378515625,0.016385631635785103,-0.030184533447027206,-0.1330033242702484
1761299117763908000,2.513908203125,0.024235565215349197,-0.15667350590229034,-0.11898071318864822
1761299117784031200,2.53403125,0.05318013206124306,-0.1905883252620697,-0.05681508034467697
1761299117804155100,2.554155029296875,0.07650675624608994,-0.12897396087646484,-0.020059728994965553
1761299117824278000,2.574278076171875,0.0789768397808075,-0.03754444420337677,-0.019936690106987953
1761299117844401200,2.594401123046875,0.010627876967191696,0.025555694475769997,-0.05709657445549965
1761299117864524000,2.61452392578125,-0.056946638971567154,0.06379043310880661,-0.0510898157954216
1761299117884648200,2.634648193359375,-0.07258978486061096,0.03135872259736061,-0.0020783308427780867
1761299117904771000,2.65477099609375,-0.07138203829526901,-0.004266384057700634,0.05073348432779312
1761299117924894200,2.674894287109375,-0.057317618280649185,0.0018080200534313917,0.07484520971775055
1761299117945017000,2.69501708984375,-0.04764288663864136,0.05796822905540466,0.057257696986198425
1761299117965140200,2.71514013671875,-0.04320579394698143,0.10481882095336914,0.018726550042629242
1761299117985264400,2.735264404296875,-0.04478078708052635,0.08726406842470169,-0.04436799883842468
1761299118005387300,2.75538720703125,-0.022404640913009644,0.08855223655700684,-0.07237539440393448
1761299118025510400,2.775510498046875,-0.004875981714576483,0.1302722543478012,-0.05276334658265114
1761299118045633300,2.79563330078125,-0.010970093309879303,0.12959180772304535,-0.03720302879810333
1761299118065757200,2.815757080078125,-0.0017273263074457645,0.09785173088312149,-0.029272401705384254
1761299118085880300,2.83588037109375,0.04627002775669098,0.07128003984689713,-0.0272649098187685
1761299118106003200,2.856003173828125,0.10079772025346756,0.023808127269148827,-0.01860164664685726
1761299118126126300,2.876126220703125,0.13129331171512604,-0.004054929129779339,-0.013665478676557541
1761299118146249200,2.896249267578125,0.10832168161869049,0.025254756212234497,-0.009000418707728386
1761299118166373400,2.916373291015625,0.050022952258586884,0.048295892775058746,-0.024094684049487114
1761299118186496300,2.936496337890625,-0.002555569401010871,0.00965928565710783,-0.07182731479406357
1761299118206619100,2.956619140625,-0.04597228392958641,-0.04957127943634987,-0.10885005444288254
1761299118226742300,2.9767421875,-0.09317149221897125,-0.048406414687633514,-0.1155545562505722
1761299118246865200,2.996865234375,-0.10064271837472916,-0.006911169271916151,-0.08056940883398056
1761299118266989300,3.0169892578125,-0.04783783107995987,-0.0019233349012210965,-0.01341567374765873
1761299118287112200,3.0371123046875,0.05105146765708923,-0.014129667542874813,0.07094182074069977
1761299118307235300,3.0572353515625,0.08260353654623032,0.0038373488932847977,0.14467781782150269
1761299118327358200,3.077358154296875,0.058152783662080765,0.06793191283941269,0.16811098158359528
1761299118347482000,3.097482177734375,0.009079781360924244,0.16671122610569,0.16475512087345123
1761299118367605200,3.117605224609375,-0.016884706914424896,0.21274235844612122,0.13019156455993652
1761299118387728100,3.13772802734375,-0.03251213580369949,0.15063931047916412,0.0804077535867691
1761299118407851300,3.157851318359375,-0.06882540136575699,0.08782599121332169,0.04435521364212036
1761299118427974100,3.17797412109375,-0.09083376824855804,0.04033543914556503,-0.00905741099268198
1761299118448098300,3.198098388671875,-0.07393015176057816,0.05874453857541084,-0.06678568571805954
1761299118468221200,3.21822119140625,-0.0526440367102623,0.06585704535245895,-0.1239112913608551
1761299118488344300,3.23834423828125,-0.033357955515384674,-0.005137770436704159,-0.15702690184116364
1761299118508467200,3.25846728515625,-0.01583302579820156,-0.12211579084396362,-0.16559429466724396
1761299118528590000,3.278590087890625,-0.010688330978155136,-0.18966607749462128,-0.15657736361026764
1761299118548714200,3.29871435546875,-0.017944645136594772,-0.193686380982399,-0.11636735498905182
1761299118568837000,3.318837158203125,-0.024155670776963234,-0.15462127327919006,-0.09685330837965012
1761299118588960300,3.338960205078125,-0.016175774857401848,-0.07455865293741226,-0.08998874574899673
1761299118609083100,3.359083251953125,-0.02828570082783699,-0.04746977984905243,-0.05248930677771568
1761299118629206800,3.379206787109375,-0.00897032581269741,-0.10597117245197296,0.03245727717876434
1761299118649329700,3.39932958984375,0.03927230462431908,-0.18552884459495544,0.13322170078754425
1761299118669452500,3.41945263671875,0.04875129461288452,-0.15583327412605286,0.2006169855594635
1761299118689575700,3.43957568359375,0.0018458369886502624,0.02576368674635887,0.18995608389377594
1761299118709698600,3.459698486328125,-0.07145021110773087,0.26783305406570435,0.08204080909490585
1761299118729822700,3.47982275390625,-0.07209283858537674,0.3869471848011017,0.0010223875287920237
1761299118749945600,3.499945556640625,-0.025904301553964615,0.30698710680007935,0.016944628208875656
1761299118770068700,3.52006884765625,0.05192152038216591,0.15781466662883759,0.087092824280262
1761299118790191600,3.540191650390625,0.06926669180393219,0.035596076399087906,0.11198192834854126
1761299118810314800,3.560314697265625,0.0293139461427927,-0.010339722968637943,0.06354568898677826
1761299118830438700,3.580438720703125,-0.012030297890305519,0.022275211289525032,-0.018082598224282265
1761299118850561500,3.6005615234375,-0.06329348683357239,0.027365578338503838,-0.07551845908164978
1761299118870684700,3.6206845703125,-0.0865255668759346,-0.0954066812992096,-0.0741456001996994
1761299118890807600,3.6408076171875,-0.05979409068822861,-0.1895046830177307,-0.045638058334589005
1761299118910930700,3.6609306640625,-0.04597308486700058,-0.19578655064105988,-0.05429892614483833
1761299118931054600,3.6810546875,-0.045280128717422485,-0.07719545066356659,-0.06162980943918228
1761299118951177500,3.701177490234375,-0.029631394892930984,0.017594706267118454,-0.06167135387659073
1761299118971300600,3.721300537109375,0.012093947269022465,0.06807305663824081,-0.014402374625205994
1761299118991423500,3.741423583984375,0.024108000099658966,0.07984156906604767,0.022173745557665825
1761299119011547600,3.761547607421875,0.02581987902522087,0.05290129780769348,0.035768650472164154
1761299119031670500,3.78167041015625,0.0671292394399643,0.015177088789641857,0.042632948607206345
1761299119051793700,3.801793701171875,0.10738744586706161,0.029457757249474525,0.08388397842645645
1761299119071916500,3.82191650390625,0.14131905138492584,0.04849403351545334,0.10120651125907898
1761299119092039700,3.842039794921875,0.1489657759666443,0.07801038026809692,0.07433228939771652
1761299119112163600,3.86216357421875,0.11654365807771683,0.029470540583133698,0.08814211189746857
1761299119132286500,3.882286376953125,0.0868251770734787,-0.007495466619729996,0.11812876909971237
1761299119152409600,3.90240966796875,0.04605138301849365,0.04229898750782013,0.09831911325454712
1761299119172532500,3.922532470703125,0.007851531729102135,0.10174527019262314,0.04150243476033211
1761299119192656600,3.94265673828125,0.014130200259387493,0.059417519718408585,0.024402812123298645
1761299119212779500,3.962779541015625,0.030165892094373703,0.02340945228934288,0.04518718644976616
1761299119232902400,3.98290234375,0.012521650642156601,-0.03335076570510864,0.033544909209012985
1761299119253023700,4.003023681640625,0.03256886079907417,-0.06671857833862305,0.027900073677301407
1761299119273146600,4.023146728515625,0.08033771812915802,-0.01067767757922411,0.07841278612613678
1761299119293270500,4.0432705078125,0.10390669107437134,0.06131342425942421,0.14112889766693115
1761299119313393700,4.0633935546875,0.07916805893182755,0.10297778248786926,0.11812557280063629
1761299119333516500,4.0835166015625,0.05224030092358589,0.03891517594456673,0.034755315631628036
1761299119353639700,4.1036396484375,0.037449635565280914,-0.07129841297864914,0.015596270561218262
1761299119373762600,4.123762451171875,0.012071576900780201,-0.12035064399242401,0.012586099095642567
1761299119393886500,4.143886474609375,0.011858257465064526,-0.06641444563865662,-0.004605670925229788
1761299119414009600,4.164009521484375,0.03175260126590729,0.0015257250051945448,0.030223416164517403
1761299119434132500,4.184132568359375,0.05461637303233147,0.04831719771027565,0.07195515185594559
1761299119454255600,4.204255615234375,0.06072273477911949,0.038362570106983185,0.037275731563568115
1761299119474378500,4.22437841796875,0.05770377442240715,-0.042272623628377914,-0.026822559535503387
1761299119494502700,4.244502685546875,0.0360296405851841,-0.17177468538284302,-0.028006866574287415
1761299119514625500,4.26462548828125,-0.03928189352154732,-0.18825219571590424,0.015117167495191097
1761299119534748700,4.284748779296875,-0.10013485699892044,-0.08115930110216141,0.03166019171476364
1761299119554871600,4.30487158203125,-0.07991587370634079,-0.011094463057816029,0.0084837656468153
1761299119574994700,4.32499462890625,-0.03375529870390892,-0.031507592648267746,-0.004661863669753075
1761299119595118600,4.34511865234375,-0.011987953446805477,-0.05733279883861542,0.0462641678750515
1761299119615242800,4.36524267578125,-0.017175791785120964,-0.023434752598404884,0.09054241329431534
1761299119635367000,4.385366943359375,-0.017348097637295723,0.08456521481275558,0.08663715422153473
1761299119655490000,4.405489990234375,0.005776130128651857,0.1525956690311432,0.049497246742248535
1761299119675613000,4.425613037109375,0.05227705463767052,0.11151348054409027,0.024170050397515297
1761299119695735800,4.44573583984375,0.06307883560657501,0.035359855741262436,0.0009203884401358664
1761299119715859000,4.46585888671875,0.0028242822736501694,-0.0721554160118103,-0.05748140066862106
1761299119735982800,4.48598291015625,-0.08148793131113052,-0.10626199096441269,-0.11443416774272919
1761299119756106000,4.50610595703125,-0.09782563149929047,-0.04447745159268379,-0.11526693403720856
1761299119776228900,4.526228759765625,-0.026705114170908928,0.02749314345419407,-0.08959433436393738
1761299119796352000,4.54635205078125,0.02052151970565319,-0.015450328588485718,-0.1251821517944336
1761299119816475000,4.566474853515625,0.02226961962878704,-0.13830886781215668,-0.1317037045955658
1761299119836598800,4.586598876953125,-0.011352256871759892,-0.21162676811218262,-0.06580937653779984
1761299119856722000,4.606721923828125,-0.02558312378823757,-0.1719568520784378,-0.031382422894239426
1761299119876844800,4.6268447265625,0.006670153234153986,-0.027110446244478226,-0.06653641909360886
1761299119896968000,4.646968017578125,0.04580051079392433,0.11721264570951462,-0.07273226231336594
1761299119917090800,4.6670908203125,0.023995613679289818,0.1566103845834732,-0.036928191781044006
1761299119937215000,4.687215087890625,-0.0004950816510245204,0.154590904712677,-0.04255332052707672
1761299119957337900,4.707337890625,0.021094366908073425,0.13412904739379883,-0.13365685939788818
1761299119977460700,4.727460693359375,0.08326400071382523,0.12057967483997345,-0.1813783198595047
1761299119997584000,4.747583984375,0.14905312657356262,0.12168408930301666,-0.09267774224281311
1761299120017707800,4.767707763671875,0.23309797048568726,0.06793111562728882,0.003923901356756687
1761299120037831000,4.787830810546875,0.2726309895515442,-0.027816716581583023,-0.0005558017292059958
1761299120057953800,4.807953857421875,0.23357254266738892,-0.05160833150148392,-0.062075886875391006
1761299120078077000,4.828076904296875,0.1469268649816513,-0.0372467041015625,-0.09776437282562256
1761299120098199800,4.84819970703125,0.07309231907129288,0.034442394971847534,-0.07056018710136414
1761299120118323700,4.86832373046875,0.043110184371471405,0.06982249021530151,-0.03525892272591591
1761299120138446800,4.88844677734375,0.0445842444896698,0.07387928664684296,-0.0160660520195961
1761299120158569700,4.90856982421875,0.028188228607177734,0.06178773194551468,0.00024980452144518495
1761299120178692900,4.92869287109375,0.013725665397942066,0.04932866618037224,0.031862858682870865
1761299120198816800,4.948816650390625,0.02387923374772072,0.09302261471748352,0.08827260136604309
1761299120218940000,4.96893994140625,0.062021028250455856,0.18439726531505585,0.1202547699213028
1761299120239062800,4.989062744140625,0.09234590828418732,0.2470763623714447,0.14324423670768738
1761299120259185700,5.009185546875,0.09268786013126373,0.2536333203315735,0.17204312980175018
1761299120279308800,5.029308837890625,0.06904644519090652,0.14355210959911346,0.19341526925563812
1761299120299432700,5.0494326171875,0.024026505649089813,0.014056962914764881,0.18498210608959198
1761299120319555800,5.069555908203125,-0.0403764508664608,-0.07481831312179565,0.084701307117939
1761299120339678700,5.0896787109375,-0.09369959682226181,-0.09734013676643372,-0.03796043246984482
1761299120359801900,5.1098017578125,-0.14733272790908813,-0.10564041137695312,-0.12182843685150146
1761299120379924700,5.1299248046875,-0.1680593192577362,-0.16097795963287354,-0.18011358380317688
1761299120400049000,5.150048828125,-0.16386297345161438,-0.1842034012079239,-0.24510082602500916
1761299120420172000,5.170172119140625,-0.12060631066560745,-0.29490938782691956,-0.23946505784988403
1761299120440295000,5.190294921875,-0.1200566291809082,-0.4088420867919922,-0.15219779312610626
1761299120460418000,5.21041796875,-0.11676283180713654,-0.3615872263908386,-0.08660812675952911
1761299120480540700,5.230540771484375,-0.1395629495382309,-0.3704710006713867,-0.03705042973160744
1761299120500664800,5.250664794921875,-0.21663643419742584,-0.193389430642128,-0.01013838779181242
1761299120520788000,5.2707880859375,-0.21208561956882477,0.08423285186290741,-0.025410551577806473
1761299120540910800,5.290910888671875,-0.19503633677959442,0.1719091832637787,0.004888498689979315
1761299120561034000,5.311033935546875,-0.22551009058952332,0.10074924677610397,0.10539140552282333
1761299120581158000,5.331157958984375,-0.2705254852771759,0.11665204912424088,0.12218423187732697
1761299120601281000,5.351281005859375,-0.2699430584907532,0.1260002702474594,0.013161341659724712
1761299120621403600,5.371403564453125,-0.221404030919075,0.09068889170885086,-0.07404839247465134
1761299120641526500,5.391526611328125,-0.1843259036540985,0.03182797133922577,-0.028364529833197594
1761299120661649400,5.4116494140625,-0.1833309382200241,-0.02857145667076111,0.06780221313238144
1761299120681773600,5.431773681640625,-0.18909908831119537,-0.1159132868051529,0.05867582932114601
1761299120701896700,5.451896728515625,-0.18205662071704865,-0.12322419881820679,-0.06489590555429459
1761299120722019600,5.47201953125,-0.17890290915966034,-0.17896468937397003,-0.18503908812999725
1761299120742142700,5.492142822265625,-0.17838598787784576,-0.28090810775756836,-0.1489362120628357
1761299120762265600,5.512265625,-0.17300240695476532,-0.2837347686290741,-0.03356488421559334
1761299120782389800,5.5323896484375,-0.18152585625648499,-0.1898876428604126,0.033604830503463745
1761299120802512600,5.5525126953125,-0.17176111042499542,-0.05458920821547508,0.02281130664050579
1761299120822635800,5.5726357421875,-0.1070375069975853,0.13029488921165466,-0.005646700505167246
1761299120842758700,5.592758544921875,-0.04837232455611229,0.21218496561050415,-0.0016911072889342904
1761299120862882600,5.612882568359375,-0.037830203771591187,0.1896064132452011,0.005290902219712734
1761299120883005700,5.633005615234375,-0.02364727295935154,0.12287372350692749,-0.0158854890614748
1761299120903128600,5.653128662109375,0.007393201347440481,0.05140326917171478,-0.05931072682142258
1761299120923251700,5.673251708984375,0.04103531688451767,0.019758524373173714,-0.10222943127155304
1761299120943374600,5.69337451171875,0.05630774796009064,-0.016044747084379196,-0.13538259267807007
1761299120963498500,5.71349853515625,0.071896031498909,-0.050942543894052505,-0.14554627239704132
1761299120983621600,5.73362158203125,0.09394087642431259,-0.08223628252744675,-0.11054675281047821
1761299121003744500,5.75374462890625,0.09321862459182739,-0.08750774711370468,-0.055441420525312424
1761299121023867600,5.77386767578125,0.0957784578204155,-0.014341921545565128,-0.030177609995007515
1761299121043991600,5.793991455078125,0.11300990730524063,0.06370387971401215,-0.019831495359539986
1761299121064114700,5.81411474609375,0.11880335211753845,0.11083676666021347,0.01441329438239336
1761299121084237600,5.834237548828125,0.11871360242366791,0.08222030103206635,0.0565708689391613
1761299121104360700,5.854360595703125,0.1081557646393776,0.03970427066087723,0.07399752736091614
1761299121124483600,5.874483642578125,0.10928787291049957,0.04952973499894142,0.09452277421951294
1761299121144607500,5.894607421875,0.12277252227067947,0.12303750962018967,0.13839170336723328
1761299121164730600,5.914730712890625,0.10754350572824478,0.180180162191391,0.14156459271907806
1761299121184853500,5.934853515625,0.0726449117064476,0.13038091361522675,0.08775994926691055
1761299121204976600,5.9549765625,0.019180884584784508,0.05110233277082443,0.01798272877931595
1761299121225099500,5.975099609375,-0.014757374301552773,0.03427514806389809,-0.002953978255391121
1761299121245223400,5.995223388671875,0.003573695896193385,0.08620625734329224,0.009063003584742546
1761299121265346600,6.0153466796875,0.04884397238492966,0.13542839884757996,0.016409067437052727
1761299121285469400,6.035469482421875,0.0560331754386425,0.16802868247032166,0.023736488074064255
1761299121305592600,6.055592529296875,0.05247865244746208,0.11783742159605026,0.05198410525918007
1761299121325716500,6.075716552734375,0.04760267212986946,0.030296120792627335,0.07112210988998413
1761299121345839600,6.095839599609375,0.02335166186094284,0.014288125559687614,0.0575285404920578
1761299121365962500,6.11596240234375,0.00749067310243845,0.051898617297410965,0.05230448395013809
1761299121386085600,6.136085693359375,0.0027896612882614136,-0.013617008924484253,0.06241197884082794
1761299121406208500,6.15620849609375,0.0021198762115091085,-0.0918460339307785,0.0650612935423851
1761299121426332400,6.17633251953125,0.005447496194392443,-0.11342882364988327,0.07517384737730026
1761299121446455600,6.19645556640625,0.01895212009549141,-0.1353793889284134,0.10907215625047684
1761299121466578400,6.216578369140625,0.05241713672876358,-0.1377381533384323,0.134974867105484
1761299121486701600,6.23670166015625,0.08956130594015121,-0.08884838223457336,0.13725319504737854
1761299121506824400,6.256824462890625,0.1100894883275032,-0.07199296355247498,0.1222556009888649
1761299121526948600,6.276948486328125,0.11832024902105331,-0.1670859307050705,0.10302624851465225
1761299121547071700,6.29707177734375,0.14299604296684265,-0.2652668356895447,0.049616288393735886
1761299121567194400,6.3171943359375,0.10841356217861176,-0.29287847876548767,-0.026378344744443893
1761299121587317500,6.3373173828125,0.047156594693660736,-0.26852545142173767,-0.05583024397492409
1761299121607441700,6.357441650390625,-0.004281297791749239,-0.19296759366989136,-0.06386259943246841
1761299121627564500,6.377564453125,-0.06048385053873062,-0.1035386398434639,-0.1076178029179573
1761299121647687700,6.397687744140625,-0.10849585384130478,-0.08413458615541458,-0.13063763082027435
1761299121667810600,6.417810546875,-0.10189227759838104,-0.02171914465725422,-0.1264500766992569
1761299121687933700,6.43793359375,-0.07671394944190979,0.005549228750169277,-0.10028958320617676
1761299121708057600,6.4580576171875,-0.055460862815380096,0.0011970909545198083,-0.04511234909296036
1761299121728180700,6.4781806640625,-0.02189464680850506,0.03849839046597481,0.01486523263156414
1761299121748303600,6.4983037109375,0.0008788431296125054,0.10102888196706772,0.024837972596287727
1761299121768426800,6.5184267578125,0.01375176478177309,0.11906460672616959,-0.023479226976633072
1761299121788550700,6.538550537109375,0.011413242667913437,0.07387209683656693,-0.07331176102161407
1761299121808673500,6.558673583984375,0.02040434069931507,0.07185075432062149,-0.07670489698648453
1761299121828796700,6.578796630859375,0.02209092117846012,0.05819539725780487,-0.10885005444288254
1761299121848919600,6.59891943359375,0.0780378133058548,0.008362592197954655,-0.11847631633281708
1761299121869042700,6.619042724609375,0.14125007390975952,-0.024321584030985832,-0.09609031677246094
1761299121889166600,6.63916650390625,0.1456269770860672,-0.08828805387020111,-0.11829601973295212
1761299121909289500,6.65928955078125,0.10177456587553024,-0.06954685598611832,-0.1793183535337448
1761299121929412600,6.67941259765625,0.04466414079070091,-0.013307283632457256,-0.21314263343811035
1761299121949535500,6.699535400390625,0.03797880560159683,0.048218127340078354,-0.1738804429769516
1761299121969658600,6.71965869140625,0.05805078521370888,0.07263319194316864,-0.1437489092350006
1761299121989782800,6.73978271484375,0.0895884707570076,0.039873912930488586,-0.13683374226093292
1761299122009906000,6.759906005859375,0.12428519874811172,-0.039621178060770035,-0.1330059915781021
1761299122030028800,6.78002880859375,0.13823111355304718,0.035110849887132645,-0.08137474954128265
1761299122050151700,6.800151611328125,0.14759238064289093,0.14147643744945526,-0.0038932752795517445
1761299122070275800,6.82027587890625,0.15910495817661285,0.18860453367233276,0.03310815244913101
1761299122090398700,6.840398681640625,0.12317413091659546,0.22929151356220245,0.0528927743434906
1761299122110521900,6.86052197265625,0.06762884557247162,0.22878870368003845,0.027391944080591202
1761299122130644700,6.880644775390625,0.04836273938417435,0.16046451032161713,-0.001588841900229454
1761299122150767900,6.900767822265625,0.04472699016332626,0.09929542988538742,-0.07333280146121979
1761299122170891800,6.920891845703125,0.07083768397569656,0.034994203597307205,-0.1275491714477539
1761299122191014700,6.9410146484375,0.06957854330539703,0.010046775452792645,-0.11339420080184937
1761299122211137800,6.9611376953125,0.05841111019253731,0.035401664674282074,-0.061164554208517075
1761299122231260700,6.9812607421875,0.053344447165727615,0.06612709164619446,-0.023739684373140335
1761299122251383800,7.0013837890625,0.061104632914066315,0.10887721180915833,0.00833942275494337
1761299122271507700,7.0215078125,0.06790900975465775,0.15968181192874908,-0.04102146998047829
1761299122291630800,7.041630859375,0.05108661949634552,0.1937660127878189,-0.15092585980892181
1761299122311753700,7.061753662109375,0.002144643571227789,0.12200846523046494,-0.1802653819322586
1761299122331876900,7.081876953125,-0.0019156117923557758,0.06288495659828186,-0.06259839981794357
1761299122352000800,7.102000732421875,0.0009203884401358664,0.08553647249937057,0.011305917985737324
1761299122372123600,7.12212353515625,0.019725767895579338,0.12504154443740845,-0.03825763985514641
1761299122392246800,7.142246826171875,-0.0009006810723803937,0.08784224092960358,-0.10912276059389114
1761299122412369700,7.16236962890625,-0.04815367981791496,0.02028476446866989,-0.1014041155576706
1761299122432492800,7.182492919921875,-0.05156039446592331,0.01912922039628029,-0.029510488733649254
1761299122452616700,7.20261669921875,-0.05541984736919403,-0.02022324688732624,-0.017934525385499
1761299122472739600,7.222739501953125,-0.043185554444789886,-0.0651603639125824,-0.012959208339452744
1761299122492862700,7.24286279296875,-0.03407514467835426,-0.05385337769985199,0.016336096450686455
1761299122512985600,7.262985595703125,-0.024719195440411568,-0.033481527119874954,0.008168181404471397
1761299122533108700,7.283108642578125,-0.042501386255025864,0.009127452038228512,-0.035242676734924316
1761299122553232600,7.303232666015625,-0.08287624269723892,0.03183702379465103,-0.0275029968470335
1761299122573355800,7.323355712890625,-0.1011793464422226,0.01672571711242199,0.0252225324511528
1761299122593478700,7.343478759765625,-0.08561210334300995,-0.006511428859084845,0.07754858583211899
1761299122613601800,7.363601806640625,-0.06880862265825272,-0.01702745258808136,0.10365688800811768
1761299122633726000,7.383725830078125,-0.07177725434303284,-0.015616243705153465,0.08836634457111359
1761299122653848800,7.403848876953125,-0.07880213856697083,-0.04011865705251694,0.03532496839761734
1761299122673972000,7.423971923828125,-0.09090860188007355,0.0015899071004241705,-0.044614341109991074
1761299122694094800,7.4440947265625,-0.10086722671985626,0.07789799571037292,-0.04231789708137512
1761299122714218000,7.464218017578125,-0.12503115832805634,0.0908723846077919,0.020722854882478714
1761299122734342000,7.484341796875,-0.10265420377254486,0.11913837492465973,0.023060845211148262
1761299122754464800,7.50446484375,-0.08152441680431366,0.1502283811569214,-0.0779520571231842
1761299122774588000,7.524587890625,-0.11322668939828873,0.19523847103118896,-0.22534044086933136
1761299122794710800,7.544710693359375,-0.14883874356746674,0.16614289581775665,-0.29767030477523804
1761299122814834000,7.564833984375,-0.11348129063844681,0.1358688920736313,-0.23160819709300995
1761299122834957800,7.584957763671875,-0.10097295045852661,0.13742071390151978,-0.12769244611263275
1761299122855081000,7.6050810546875,-0.04103238880634308,0.19414684176445007,-0.10461509227752686
1761299122875203800,7.625203857421875,-0.014909440651535988,0.3561655580997467,-0.11018935590982437
1761299122895327000,7.645326904296875,-0.10771235078573227,0.16517803072929382,-0.0040826257318258286
1761299122915451000,7.665450927734375,-0.011619637720286846,-0.12862056493759155,-0.16775891184806824
1761299122935573800,7.68557373046875,0.03244476020336151,-0.11070840805768967,-0.27961432933807373
1761299122955697000,7.70569677734375,0.04157301038503647,-0.06980437785387039,-0.23324283957481384
1761299122975819800,7.72581982421875,0.05055079236626625,-0.14731115102767944,0.2072562426328659
