time,seconds_elapsed,z,y,x
1761396936051885800,0.2468857421875,0.016126155853271484,0.0959310531616211,-0.024979501962661743
1761396936071262700,0.2662626953125,0.36948347091674805,0.010046005249023438,-0.1537567675113678
1761396936090639600,0.2856396484375,0.04882192611694336,0.12155914306640625,0.10455745458602905
1761396936110016500,0.3050166015625,-0.2672896385192871,0.16074228286743164,0.23163557052612305
1761396936129393400,0.324393310546875,-0.2992262840270996,0.01116180419921875,0.014909297227859497
1761396936148770300,0.343770263671875,-0.3605060577392578,-0.019760608673095703,-0.07306697964668274
1761396936168147500,0.3631474609375,-0.35080766677856445,0.006876945495605469,-0.08648458123207092
1761396936187524400,0.3825244140625,-0.045893192291259766,-0.04875516891479492,-0.17862588167190552
1761396936206901200,0.4019013671875,-0.2973976135253906,0.09355735778808594,-0.2154446691274643
1761396936226278100,0.421278076171875,-0.2898092269897461,0.2593417167663574,-0.22413840889930725
1761396936245655000,0.440655029296875,0.4855771064758301,0.12778186798095703,-0.12165871262550354
1761396936265032000,0.460031982421875,0.26537466049194336,0.09922456741333008,0.26302534341812134
1761396936284409000,0.4794091796875,-0.033297061920166016,0.16718244552612305,0.21771332621574402
1761396936303786000,0.498785888671875,-0.3535594940185547,0.10576295852661133,-0.14300031960010529
1761396936323163000,0.518162841796875,-0.5291194915771484,0.08318805694580078,-0.2570744752883911
1761396936342539800,0.537539794921875,0.11513614654541016,-0.007143974304199219,-0.18525554239749908
1761396936361916700,0.556916748046875,0.6041393280029297,-0.032413482666015625,-0.32954153418540955
1761396936381293600,0.57629345703125,0.43459606170654297,-0.020447254180908203,-0.15262678265571594
1761396936400670700,0.595670654296875,0.27829885482788086,0.0021772384643554688,-0.13596734404563904
1761396936420047600,0.615047607421875,0.1946277618408203,-0.04150724411010742,-0.2893940210342407
1761396936439424500,0.634424560546875,-0.10884952545166016,0.011428356170654297,-0.2967871129512787
1761396936458801400,0.653801513671875,-0.4361248016357422,0.06562423706054688,-0.1033642590045929
1761396936478178300,0.67317822265625,-0.28261756896972656,0.11641645431518555,-0.06643185019493103
1761396936497555200,0.69255517578125,0.1168212890625,0.04738187789916992,-0.013855308294296265
1761396936516932000,0.71193212890625,0.17901182174682617,0.10942745208740234,-0.2136957347393036
1761396936536309200,0.731309326171875,0.03820037841796875,0.09449434280395508,-0.3155941963195801
1761396936555686100,0.75068603515625,0.12796735763549805,0.005976676940917969,-0.2285386025905609
1761396936575063000,0.77006298828125,-0.1895456314086914,0.06073331832885742,-0.16085362434387207
1761396936594440000,0.78943994140625,-0.40052127838134766,0.11519336700439453,-0.17752858996391296
1761396936613816800,0.80881689453125,-0.18802452087402344,0.05928850173950195,0.013815313577651978
1761396936633194000,0.828194091796875,0.005814552307128906,0.04573202133178711,0.08058598637580872
1761396936652571000,0.84757080078125,-0.06725502014160156,0.10794591903686523,0.05365535616874695
1761396936671947800,0.86694775390625,-0.0641469955444336,0.10838747024536133,0.14419543743133545
1761396936691324700,0.88632470703125,0.06627559661865234,0.00007534027099609375,0.006936758756637573
1761396936710701600,0.90570166015625,-0.05451345443725586,0.05534505844116211,-0.25529745221138
1761396936730078500,0.925078369140625,0.01092672348022461,0.07212495803833008,-0.15553364157676697
1761396936749455600,0.94445556640625,0.09963655471801758,0.08033370971679688,-0.017318814992904663
1761396936768832500,0.96383251953125,0.11659622192382812,0.060385704040527344,-0.035430461168289185
1761396936788209400,0.98320947265625,0.2587261199951172,-0.02819347381591797,-0.12865106761455536
1761396936807586300,1.00258642578125,0.05237102508544922,0.013267040252685547,-0.07875549793243408
1761396936826963200,1.021963134765625,-0.1299147605895996,0.05663347244262695,-0.02665334939956665
1761396936846340000,1.041340087890625,-0.08645248413085938,0.024248600006103516,-0.06208828091621399
1761396936865717000,1.060717041015625,-0.20818853378295898,0.04852771759033203,-0.11767616868019104
1761396936885094100,1.08009423828125,-0.3770136833190918,0.10524177551269531,-0.053212761878967285
1761396936904471000,1.099470947265625,-0.13609027862548828,0.052906036376953125,-0.01791238784790039
1761396936923848000,1.118847900390625,-0.08895492553710938,0.07213735580444336,-0.09908798336982727
1761396936943224800,1.138224853515625,-0.07876348495483398,0.09810781478881836,-0.12835580110549927
1761396936962601700,1.157601806640625,0.2080535888671875,0.028618335723876953,-0.19108590483665466
1761396936981978600,1.176978515625,0.24343490600585938,-0.01650524139404297,-0.09699234366416931
1761396937001355800,1.196355712890625,0.10280847549438477,0.055047035217285156,-0.013899445533752441
1761396937020732700,1.215732666015625,0.05365562438964844,0.04748725891113281,-0.005581885576248169
1761396937040109600,1.235109619140625,-0.03142118453979492,0.025008678436279297,-0.1331634372472763
1761396937059486500,1.254486572265625,-0.19816255569458008,0.10161352157592773,-0.27849841117858887
1761396937078863400,1.27386328125,-0.33925819396972656,0.106781005859375,-0.1331280767917633
1761396937098240500,1.293240478515625,-0.22715425491333008,0.10440587997436523,0.08726844191551208
1761396937117617400,1.312617431640625,-0.15763092041015625,0.11420869827270508,0.275095134973526
1761396937136994300,1.331994384765625,-0.2440943717956543,0.11256647109985352,0.06446787714958191
1761396937156371200,1.35137109375,-0.02254199981689453,0.009122371673583984,-0.2760915160179138
1761396937175748000,1.370748046875,0.0892324447631836,-0.02613067626953125,-0.24232949316501617
1761396937195125000,1.390125,0.057098388671875,0.08366870880126953,-0.03164547681808472
1761396937214502000,1.409501953125,0.14850425720214844,0.026875019073486328,-0.0805201530456543
1761396937233879000,1.428879150390625,-0.022267818450927734,-0.007174491882324219,-0.13174383342266083
1761396937253256000,1.448255859375,-0.3412942886352539,0.054144859313964844,-0.09874793887138367
1761396937272632800,1.4676328125,-0.4083099365234375,0.10973119735717773,-0.07744008302688599
1761396937292009700,1.487009765625,-0.17180156707763672,0.06966733932495117,-0.08513143658638
1761396937311386600,1.50638671875,0.013453483581542969,0.10460519790649414,0.1058427095413208
1761396937330763500,1.525763427734375,0.021212100982666016,0.10196685791015625,-0.056915998458862305
1761396937350140700,1.545140625,0.19611501693725586,0.05284404754638672,-0.3554401695728302
1761396937369517600,1.564517578125,0.37317895889282227,0.02222919464111328,-0.26953768730163574
1761396937388894500,1.58389453125,0.3884105682373047,0.059407711029052734,0.022876322269439697
1761396937408271400,1.603271240234375,0.05274820327758789,0.050328731536865234,-0.05558896064758301
1761396937427648300,1.622648193359375,-0.28862857818603516,0.06440401077270508,-0.20912644267082214
1761396937447025200,1.642025146484375,-0.12618637084960938,0.057369232177734375,-0.11037120223045349
1761396937466402000,1.661402099609375,0.08193159103393555,0.015583038330078125,-0.25179845094680786
1761396937485779200,1.680779296875,-0.07537508010864258,0.04665327072143555,-0.16647134721279144
1761396937505156000,1.700156005859375,0.06148719787597656,0.0292816162109375,-0.01373755931854248
1761396937524533000,1.719532958984375,-0.08391618728637695,0.045420169830322266,0.050483107566833496
1761396937543910000,1.738909912109375,-0.22415399551391602,0.07858085632324219,-0.10399001836776733
1761396937563286800,1.758286865234375,-0.08757209777832031,0.04575490951538086,-0.11796867847442627
1761396937582663700,1.77766357421875,-0.07001543045043945,0.06861734390258789,-0.018799155950546265
1761396937602040800,1.797040771484375,0.0008387565612792969,0.057569026947021484,-0.017033904790878296
1761396937621417700,1.816417724609375,0.029742717742919922,0.04685401916503906,-0.08954563736915588
1761396937640794600,1.835794677734375,0.026582717895507812,0.020758628845214844,-0.14478799700737
1761396937660171500,1.855171630859375,-0.012644290924072266,0.05222320556640625,-0.08901715278625488
1761396937679548400,1.87454833984375,0.012485504150390625,0.07021427154541016,-0.043359071016311646
1761396937698925600,1.893925537109375,0.15007972717285156,0.06502914428710938,0.017654478549957275
1761396937718302500,1.913302490234375,0.1246023178100586,0.04607200622558594,-0.1514604091644287
1761396937737679400,1.932679443359375,-0.0007476806640625,0.012713909149169922,-0.22896067798137665
1761396937757056300,1.95205615234375,-0.1524038314819336,0.055875301361083984,-0.2590487599372864
1761396937776433200,1.97143310546875,-0.2945585250854492,0.08679533004760742,-0.048672646284103394
1761396937795810000,1.99081005859375,-0.18704509735107422,0.08189725875854492,0.04061034321784973
1761396937815187000,2.01018701171875,0.06447076797485352,0.1051797866821289,-0.0556086003780365
1761396937834564000,2.029564208984375,0.1205143928527832,0.0637049674987793,0.04385843873023987
1761396937853941000,2.04894091796875,0.10805273056030273,0.055054664611816406,-0.016713589429855347
1761396937873318000,2.06831787109375,0.03859281539916992,0.024129867553710938,-0.06575524806976318
1761396937892694800,2.08769482421875,0.02738332748413086,0.01788187026977539,-0.09712928533554077
1761396937912071700,2.10707177734375,-0.070953369140625,-0.027764320373535156,-0.18318408727645874
1761396937931448600,2.126448486328125,-0.21785879135131836,-0.0021333694458007812,-0.2723361849784851
1761396937950825700,2.14582568359375,-0.10470867156982422,0.06890630722045898,-0.06495589017868042
1761396937970202600,2.16520263671875,-0.07367849349975586,0.1534280776977539,0.13773640990257263
1761396937989579500,2.18457958984375,-0.11237335205078125,0.12945270538330078,0.005507409572601318
1761396938008956400,2.203956298828125,-0.24253463745117188,0.05784893035888672,-0.08034828305244446
1761396938028333300,2.223333251953125,-0.34496450424194336,0.047739505767822266,-0.05652591586112976
1761396938047710200,2.242710205078125,-0.13750123977661133,0.09457063674926758,-0.11980360746383667
1761396938067087000,2.262087158203125,0.37884092330932617,0.12659835815429688,-0.1876060664653778
1761396938086464300,2.28146435546875,0.4757423400878906,0.09733057022094727,-0.0803956389427185
1761396938105841200,2.300841064453125,0.23554658889770508,0.03622770309448242,-0.000414431095123291
1761396938125218000,2.320218017578125,-0.1710982322692871,0.00041961669921875,-0.2159077525138855
1761396938144595000,2.339594970703125,-0.38470029830932617,-0.02773141860961914,-0.37415623664855957
1761396938163971800,2.358971923828125,-0.14946222305297852,-0.004609584808349609,-0.28135648369789124
1761396938183349000,2.378348876953125,0.2290182113647461,0.01013326644897461,-0.1139356791973114
1761396938202726000,2.397725830078125,0.3859543800354004,0.015770435333251953,0.046318501234054565
1761396938222102800,2.417102783203125,0.0448603630065918,0.058594703674316406,0.1298958957195282
1761396938241479700,2.436479736328125,-0.22159814834594727,0.02076864242553711,0.02921202778816223
1761396938260856600,2.455856689453125,-0.19447851181030273,0.0313105583190918,-0.180362731218338
1761396938280233500,2.4752333984375,-0.12862157821655273,0.0997319221496582,-0.026806175708770752
1761396938299610600,2.494610595703125,-0.02776336669921875,0.13039827346801758,0.21036598086357117
1761396938318987500,2.513987548828125,0.04558086395263672,0.026653766632080078,-0.09802424907684326
1761396938338364400,2.533364501953125,-0.14942550659179688,0.04149007797241211,-0.18497157096862793
1761396938357741300,2.5527412109375,-0.16790342330932617,0.13475704193115234,-0.07958292961120605
1761396938377118200,2.5721181640625,0.03739595413208008,0.0035657882690429688,-0.23668846487998962
1761396938396495000,2.5914951171875,0.040653228759765625,0.007542610168457031,-0.3196280598640442
1761396938415872000,2.6108720703125,-0.047711849212646484,0.08278751373291016,-0.02737218141555786
1761396938435249200,2.630249267578125,-0.031796932220458984,0.07381439208984375,0.08431687951087952
1761396938454626000,2.6496259765625,-0.22727012634277344,0.060894012451171875,-0.007048934698104858
1761396938474003000,2.6690029296875,-0.13793468475341797,0.027248382568359375,-0.16426172852516174
1761396938493379800,2.6883798828125,0.15941238403320312,0.0357365608215332,-0.06423556804656982
1761396938512756700,2.7077568359375,0.14331626892089844,0.05266618728637695,-0.06578049063682556
1761396938532133600,2.727133544921875,0.08159065246582031,0.03281259536743164,-0.1638033539056778
1761396938551510500,2.746510498046875,-0.04471302032470703,0.02501392364501953,-0.12357962131500244
1761396938570887700,2.7658876953125,-0.014689445495605469,0.038992881774902344,-0.04001826047897339
1761396938590264600,2.7852646484375,-0.10948514938354492,0.07780218124389648,0.02145940065383911
1761396938609641500,2.804641357421875,-0.21275091171264648,0.06481647491455078,-0.12328445911407471
1761396938629018400,2.824018310546875,0.005185127258300781,0.03606891632080078,-0.018094629049301147
1761396938648395300,2.843395263671875,0.03473615646362305,0.0972294807434082,0.1142968237400055
1761396938667772200,2.862772216796875,0.07471704483032227,0.06560754776000977,-0.148067444562912
1761396938687149300,2.8821494140625,-0.03946876525878906,0.03712892532348633,-0.2468380182981491
1761396938706526200,2.901526123046875,-0.015658855438232422,0.02842426300048828,-0.10931336879730225
1761396938725903000,2.920903076171875,0.009188652038574219,-0.005412101745605469,-0.03221079707145691
1761396938745280000,2.940280029296875,-0.08312749862670898,0.01963186264038086,-0.2659197449684143
1761396938764657000,2.959656982421875,-0.09020853042602539,0.0623936653137207,-0.2393597662448883
1761396938784033800,2.97903369140625,0.08165264129638672,0.04132986068725586,0.07694515585899353
1761396938803411000,2.998410888671875,-0.06350183486938477,0.0303802490234375,-0.03212791681289673
1761396938822787800,3.017787841796875,-0.16836786270141602,0.10163116455078125,-0.15248653292655945
1761396938842164700,3.037164794921875,-0.007883071899414062,0.06099224090576172,0.0027485787868499756
1761396938861541600,3.056541748046875,0.004578113555908203,0.09254121780395508,0.029211312532424927
1761396938880918500,3.07591845703125,-0.039890289306640625,0.03533315658569336,-0.08095398545265198
1761396938900295400,3.09529541015625,-0.04495048522949219,-0.03014993667602539,-0.09788990020751953
1761396938919672600,3.114672607421875,0.02951335906982422,0.015644550323486328,-0.10858535766601562
1761396938939049500,3.134049560546875,-0.06259012222290039,0.09342575073242188,-0.07312577962875366
1761396938958426400,3.15342626953125,-0.06290578842163086,0.11765098571777344,-0.0037099719047546387
1761396938977803300,3.17280322265625,-0.007954120635986328,0.0762028694152832,-0.02547892928123474
1761396938997180200,3.19218017578125,0.061519622802734375,0.10651969909667969,-0.11759895086288452
1761396939016557000,3.21155712890625,0.07781696319580078,0.06461572647094727,-0.061849117279052734
1761396939035934200,3.230934326171875,-0.027971744537353516,-0.026755332946777344,-0.22781947255134583
1761396939055311000,3.25031103515625,-0.1387038230895996,-0.016779422760009766,-0.35209232568740845
1761396939074688000,3.26968798828125,0.0027256011962890625,0.019904136657714844,-0.1458469033241272
1761396939094065000,3.28906494140625,0.04428434371948242,0.01781463623046875,0.1855621635913849
1761396939113441800,3.30844189453125,-0.2547416687011719,0.10583782196044922,0.17986717820167542
1761396939132818700,3.327818603515625,-0.26429271697998047,0.12290430068969727,0.07368093729019165
1761396939152195600,3.347195556640625,-0.2429041862487793,0.10236263275146484,0.2299976944923401
1761396939171572700,3.36657275390625,-0.16668128967285156,0.10873270034790039,0.17681783437728882
1761396939190949600,3.38594970703125,-0.08241939544677734,0.023965835571289062,-0.1290437877178192
1761396939210326500,3.405326416015625,0.1639118194580078,0.01228189468383789,-0.38779252767562866
1761396939229703400,3.424703369140625,0.4605283737182617,-0.035420894622802734,-0.32259929180145264
1761396939249080300,3.444080322265625,0.3827347755432129,-0.06553077697753906,-0.24855929613113403
1761396939268457200,3.463457275390625,-0.0008907318115234375,0.03746986389160156,-0.1681443452835083
1761396939287834400,3.48283447265625,-0.15891265869140625,0.05486869812011719,-0.09665326774120331
1761396939307211300,3.502211181640625,-0.0733795166015625,0.04530191421508789,-0.14881418645381927
1761396939326588200,3.521588134765625,-0.14473247528076172,0.13481473922729492,-0.14091481268405914
1761396939345965000,3.540965087890625,0.02798604965209961,0.08385658264160156,0.014365077018737793
1761396939365342000,3.560342041015625,0.09521150588989258,0.01335287094116211,-0.025568991899490356
1761396939384718800,3.57971875,-0.043869972229003906,0.004476070404052734,-0.19642218947410583
1761396939404095700,3.599095703125,0.04699134826660156,-0.03992271423339844,-0.17482401430606842
1761396939423473000,3.618472900390625,0.0795292854309082,0.02520465850830078,-0.14226283133029938
1761396939442849800,3.637849853515625,-0.1771407127380371,0.12809133529663086,-0.2622835338115692
1761396939462226700,3.657226806640625,-0.10921478271484375,0.039479732513427734,-0.1543026566505432
1761396939481603600,3.676603515625,0.11603832244873047,0.01845264434814453,-0.07847461104393005
1761396939500980500,3.69598046875,0.10426902770996094,-0.015979766845703125,-0.07090827822685242
1761396939520357600,3.715357666015625,-0.13203144073486328,0.02419900894165039,0.15451595187187195
1761396939539734500,3.734734619140625,-0.2514162063598633,0.09003591537475586,0.21449533104896545
1761396939559111400,3.754111328125,-0.25318336486816406,0.13770675659179688,0.028476595878601074
1761396939578488300,3.77348828125,-0.1423630714416504,0.15793991088867188,0.012145042419433594
1761396939597865200,3.792865234375,0.02685832977294922,0.10151910781860352,0.11065906286239624
1761396939617242000,3.8122421875,0.030097007751464844,0.06543350219726562,0.17803612351417542
1761396939636619300,3.831619384765625,-0.14668560028076172,-0.0316767692565918,0.009666025638580322
1761396939655996200,3.85099609375,-0.05382251739501953,-0.050223350524902344,-0.35911187529563904
1761396939675373000,3.870373046875,0.14255285263061523,-0.0029315948486328125,-0.4525485634803772
1761396939694750000,3.88975,0.5046262741088867,0.0973820686340332,-0.3950568735599518
1761396939714126800,3.909126953125,0.5279808044433594,0.021748065948486328,-0.2113894671201706
1761396939733503700,3.928503662109375,0.31662750244140625,-0.06789398193359375,-0.2813134491443634
1761396939752880600,3.947880615234375,-0.1298084259033203,-0.07191705703735352,-0.1624276340007782
1761396939772257800,3.9672578125,-0.37848329544067383,0.059595584869384766,0.04303249716758728
1761396939791634700,3.986634765625,-0.3083968162536621,0.09177207946777344,0.06566894054412842
1761396939811011600,4.006011474609375,-0.30110692977905273,0.15564250946044922,-0.05506211519241333
1761396939830388500,4.025388427734375,-0.22425079345703125,0.16150474548339844,0.01650366187095642
1761396939849765400,4.044765380859375,0.08922195434570312,0.05558967590332031,-0.09422889351844788
1761396939869142300,4.064142333984375,-0.10527801513671875,0.04021167755126953,-0.02975243330001831
1761396939888519400,4.08351953125,-0.1314830780029297,0.06995391845703125,-0.015372514724731445
1761396939907896300,4.102896240234375,0.00010061264038085938,-0.02222585678100586,-0.14932119846343994
1761396939927273200,4.122273193359375,0.009920597076416016,-0.05946969985961914,-0.1692083775997162
1761396939946650000,4.141650146484375,0.04009723663330078,-0.0470123291015625,0.015614569187164307
1761396939966027000,4.161027099609375,-0.1647191047668457,0.08401966094970703,0.013446390628814697
1761396939985404000,4.18040380859375,-0.2522459030151367,0.1479969024658203,-0.033943384885787964
1761396940004780800,4.19978076171875,-0.15588712692260742,0.1571516990661621,0.020248204469680786
1761396940024158000,4.219157958984375,-0.052552223205566406,0.07629585266113281,-0.07329228520393372
1761396940043534800,4.238534912109375,-0.15330123901367188,0.06578826904296875,-0.10322043299674988
1761396940062911700,4.257911865234375,-0.0011410713195800781,0.025669097900390625,-0.0594782829284668
1761396940082288600,4.27728857421875,0.26257848739624023,-0.004004478454589844,-0.19376644492149353
1761396940101665500,4.29666552734375,0.48097944259643555,-0.03351593017578125,-0.29471689462661743
1761396940121042400,4.31604248046875,0.312258243560791,-0.020996570587158203,-0.20104774832725525
1761396940140419300,4.33541943359375,-0.03467512130737305,0.005124568939208984,-0.08919981122016907
1761396940159796500,4.35479638671875,-0.1581878662109375,0.01939105987548828,-0.026236414909362793
1761396940179173400,4.37417333984375,-0.1276702880859375,0.08226633071899414,0.02740660309791565
1761396940198550300,4.39355029296875,-0.09278631210327148,0.04133129119873047,0.11030378937721252
1761396940217927200,4.41292724609375,-0.059334754943847656,0.0051727294921875,0.0668574869632721
1761396940237304000,4.432303955078125,-0.1818552017211914,0.10636472702026367,-0.027085870504379272
1761396940256681000,4.451680908203125,-0.14104318618774414,0.09488773345947266,0.05838844180107117
1761396940276058000,4.47105810546875,0.0480494499206543,0.04565858840942383,-0.03267732262611389
1761396940295435000,4.49043505859375,0.12285041809082031,-0.017007827758789062,-0.3274727463722229
1761396940314812000,4.50981201171875,0.11228322982788086,-0.0011739730834960938,-0.3551193177700043
1761396940334188800,4.529188720703125,0.07425832748413086,0.017119407653808594,-0.15905031561851501
1761396940353565700,4.548565673828125,0.18282794952392578,0.04303693771362305,-0.024966925382614136
1761396940372942600,4.567942626953125,-0.007608890533447266,0.05008506774902344,0.06210395693778992
1761396940392319500,4.587319580078125,-0.33719873428344727,0.10510921478271484,0.05876433849334717
1761396940411696600,4.606696533203125,-0.26091527938842773,0.017541885375976562,-0.09252974390983582
1761396940431073500,4.626073486328125,-0.08001184463500977,0.06065082550048828,-0.138054758310318
1761396940450450400,4.645450439453125,0.07706308364868164,0.040682315826416016,0.07149064540863037
1761396940469827300,4.664827392578125,0.04408454895019531,0.07087087631225586,0.034188807010650635
1761396940489204200,4.684204345703125,-0.06470346450805664,0.035247802734375,-0.11532670259475708
1761396940508581000,4.7035810546875,0.0014224052429199219,0.006305694580078125,-0.22520023584365845
1761396940527958300,4.722958251953125,0.06598949432373047,0.040454864501953125,-0.13203021883964539
1761396940547335200,4.742335205078125,0.11077594757080078,0.061830997467041016,-0.14116555452346802
1761396940566712000,4.761712158203125,0.14042329788208008,0.0464787483215332,-0.2836649715900421
1761396940586089000,4.7810888671875,-0.0840296745300293,0.01573801040649414,-0.05291071534156799
1761396940605465900,4.8004658203125,-0.22170591354370117,0.04629373550415039,0.16404828429222107
1761396940624842800,4.8198427734375,-0.25775814056396484,0.07801437377929688,0.1308712661266327
1761396940644220000,4.839219970703125,-0.09960174560546875,0.08585834503173828,-0.036242783069610596
1761396940663596800,4.8585966796875,0.13324260711669922,0.047850608825683594,-0.07009294629096985
1761396940702350600,4.8973505859375,-0.10866689682006836,-0.0013303756713867188,-0.19066694378852844
1761396940721727500,4.9167275390625,-0.13416719436645508,-0.013770103454589844,0.010405957698822021
1761396940741104400,4.9361044921875,-0.1796875,0.07209396362304688,0.14693856239318848
1761396940760481500,4.9554814453125,-0.11515569686889648,0.09377622604370117,0.10248109698295593
1761396940779858400,4.9748583984375,0.009198188781738281,0.05205488204956055,0.05538439750671387
1761396940799235300,4.9942353515625,0.10690975189208984,0.002322673797607422,-0.1310177743434906
1761396940818612200,5.0136123046875,0.2348790168762207,-0.033115386962890625,-0.3217572867870331
1761396940837989000,5.032989013671875,0.12929821014404297,0.026978015899658203,-0.20185750722885132
1761396940857366000,5.052365966796875,0.09874963760375977,0.0836782455444336,-0.15146464109420776
1761396940876743200,5.0717431640625,-0.013138294219970703,0.057749271392822266,-0.08812582492828369
1761396940896120000,5.0911201171875,-0.11842155456542969,0.06415748596191406,-0.1919977366924286
1761396940915497000,5.1104970703125,-0.23931264877319336,0.057485103607177734,-0.03019043803215027
1761396940934873900,5.129873779296875,-0.035915374755859375,0.10756111145019531,-0.038225382566452026
1761396940954250800,5.149250732421875,-0.0031981468200683594,0.053620338439941406,-0.05857980251312256
1761396940973627600,5.168627685546875,-0.0032176971435546875,0.05422496795654297,-0.2380591630935669
1761396940993004500,5.188004638671875,0.10225105285644531,0.019169330596923828,-0.16357335448265076
1761396941012381700,5.207381591796875,0.06073427200317383,0.049358367919921875,-0.09927251935005188
1761396941031758600,5.226758544921875,-0.07226753234863281,0.018528461456298828,-0.09617531299591064
1761396941051135500,5.246135498046875,-0.3038368225097656,0.014618396759033203,-0.10284203290939331
1761396941070512400,5.265512451171875,-0.14328908920288086,0.03042125701904297,-0.029782980680465698
1761396941089889300,5.28488916015625,0.063262939453125,0.07796621322631836,0.05683612823486328
1761396941109266200,5.30426611328125,0.250124454498291,0.02489328384399414,-0.009095042943954468
1761396941128643300,5.323643310546875,0.1110687255859375,0.015411376953125,-0.05163893103599548
1761396941148020200,5.343020263671875,-0.15039873123168945,0.007541179656982422,-0.008715450763702393
1761396941167397000,5.362397216796875,-0.23796796798706055,0.06088066101074219,-0.11119824647903442
1761396941186774000,5.38177392578125,-0.01233673095703125,0.00892496109008789,-0.1164926290512085
1761396941206151000,5.40115087890625,0.0050506591796875,0.025140762329101562,-0.054852962493896484
1761396941225527800,5.42052783203125,-0.07073593139648438,0.08074474334716797,0.07699507474899292
1761396941244904700,5.43990478515625,0.01648235321044922,0.08226633071899414,0.23665004968643188
1761396941264281900,5.45928173828125,-0.04804372787475586,0.033777713775634766,0.10963982343673706
1761396941283658800,5.47865869140625,-0.13315916061401367,0.04172468185424805,-0.11436206102371216
1761396941303035600,5.49803564453125,0.03954887390136719,-0.02321624755859375,-0.08408030867576599
1761396941322412500,5.51741259765625,0.08097028732299805,-0.012375831604003906,-0.03833490610122681
1761396941341789400,5.53678955078125,-0.01601886749267578,0.06415367126464844,-0.1096239984035492
1761396941361166300,5.556166259765625,-0.05826139450073242,0.0421910285949707,-0.11997056007385254
1761396941380543500,5.57554345703125,-0.02965259552001953,0.08304357528686523,-0.1111440658569336
1761396941399920400,5.59492041015625,0.0336756706237793,0.037516117095947266,-0.11520665884017944
1761396941419297300,5.61429736328125,-0.03720664978027344,0.042200565338134766,-0.16214632987976074
1761396941438674200,5.633674072265625,-0.03597593307495117,0.05025625228881836,-0.10019195079803467
1761396941458051000,5.653051025390625,0.033087730407714844,0.05309629440307617,-0.04765903949737549
1761396941477428000,5.672427978515625,-0.028494834899902344,0.06592512130737305,-0.04335722327232361
1761396941496804900,5.691804931640625,-0.07059860229492188,0.032958984375,-0.0844818651676178
1761396941516182000,5.71118212890625,0.020821571350097656,-0.004539966583251953,-0.11382713913917542
1761396941535559000,5.730558837890625,-0.021146774291992188,-0.01429128646850586,-0.04412379860877991
1761396941554935800,5.749935791015625,-0.03803205490112305,0.025806903839111328,-0.005091607570648193
1761396941574312700,5.769312744140625,-0.0815119743347168,0.06276416778564453,0.009791821241378784
1761396941593689600,5.788689697265625,0.032851219177246094,0.07013463973999023,0.011574268341064453
1761396941613066500,5.80806640625,0.1338214874267578,0.03348731994628906,-0.0724678635597229
1761396941632443400,5.827443359375,-0.02194833755493164,0.0581059455871582,-0.08376926183700562
1761396941651820500,5.846820556640625,0.023178577423095703,0.04853057861328125,-0.053751736879348755
1761396941671197400,5.866197509765625,0.02498912811279297,0.05258893966674805,-0.08052915334701538
1761396941690574300,5.88557421875,-0.04498291015625,0.04532194137573242,-0.14772123098373413
1761396941709951200,5.904951171875,-0.0026040077209472656,-0.03067493438720703,-0.22002659738063812
1761396941729328000,5.924328125,-0.051955223083496094,-0.0524139404296875,-0.2755589783191681
1761396941748705000,5.943705078125,-0.17419958114624023,0.0683145523071289,-0.12180528044700623
1761396941768082200,5.963082275390625,-0.029952526092529297,0.05877876281738281,0.20319902896881104
1761396941787459000,5.982458984375,0.13398313522338867,0.038818359375,0.26911622285842896
1761396941806836000,6.0018359375,0.22068214416503906,0.041373252868652344,0.0009803473949432373
1761396941826212900,6.021212890625,0.14548778533935547,0.040778160095214844,-0.1413496434688568
1761396941845589800,6.04058984375,-0.021615982055664062,0.09660673141479492,0.039070695638656616
1761396941864966700,6.059966552734375,-0.04252338409423828,-0.03632831573486328,0.24193602800369263
1761396941884343600,6.079343505859375,0.0020952224731445312,-0.025308609008789062,-0.10760074853897095
1761396941903720700,6.098720703125,-0.35889291763305664,-0.016005992889404297,-0.200873464345932
1761396941923097600,6.11809765625,-0.5075526237487793,0.03957509994506836,-0.11415570974349976
1761396941942474500,6.137474609375,0.04023027420043945,0.07093095779418945,-0.041285306215286255
1761396941961851400,6.156851318359375,0.3882465362548828,0.013652324676513672,-0.06567877531051636
1761396941981228300,6.176228271484375,0.14677190780639648,0.14394426345825195,-0.2908174991607666
1761396942000605200,6.195605224609375,0.048811912536621094,-0.00130462646484375,-0.19222277402877808
1761396942019982300,6.214982421875,-0.0748906135559082,-0.03957080841064453,-0.23383794724941254
1761396942039359200,6.234359130859375,-0.3356294631958008,0.004929542541503906,-0.1658358871936798
1761396942058736000,6.253736083984375,-0.15410995483398438,0.024272918701171875,0.09182512760162354
1761396942078113000,6.273113037109375,0.12644529342651367,0.019904613494873047,0.1439228653907776
1761396942097490000,6.292489990234375,0.0627140998840332,0.12418937683105469,-0.07320478558540344
1761396942116866800,6.31186669921875,-0.21152257919311523,0.1874079704284668,0.14518436789512634
1761396942136243700,6.33124365234375,0.033043861389160156,0.07764816284179688,0.1441948115825653
1761396942155620900,6.350620849609375,-0.058162689208984375,0.052095890045166016,-0.017852991819381714
1761396942174997800,6.369997802734375,-0.09241628646850586,0.08057546615600586,-0.018302500247955322
1761396942194374700,6.389374755859375,-0.12021398544311523,0.019178390502929688,0.061955779790878296
1761396942213751600,6.40875146484375,0.05623483657836914,-0.08852863311767578,-0.3088814318180084
1761396942233128400,6.42812841796875,0.058943748474121094,-0.019370079040527344,-0.5366640090942383
1761396942252505300,6.44750537109375,0.23194074630737305,0.05506277084350586,-0.43368062376976013
1761396942271882500,6.466882568359375,0.1762375831604004,-0.09564590454101562,0.029352545738220215
1761396942291259400,6.48625927734375,-0.05260801315307617,0.0046977996826171875,0.2198258638381958
1761396942310636300,6.50563623046875,-0.3009037971496582,0.2191143035888672,-0.030274629592895508
1761396942330013200,6.52501318359375,-0.42003917694091797,0.06694746017456055,-0.030697643756866455
1761396942349390000,6.54439013671875,-0.09494447708129883,-0.13592958450317383,0.22306162118911743
1761396942368767000,6.56376708984375,0.08637619018554688,0.1237630844116211,0.19749358296394348
1761396942388143900,6.583143798828125,0.28373098373413086,0.08031892776489258,0.0836804211139679
1761396942407521000,6.60252099609375,0.2958645820617676,-0.02596426010131836,-0.22817903757095337
1761396942426898000,6.62189794921875,-0.0526728630065918,0.009648799896240234,-0.38258805871009827
1761396942446274800,6.64127490234375,-0.1953730583190918,0.0017561912536621094,-0.33722543716430664
1761396942465651700,6.660651611328125,-0.04734325408935547,-0.03945589065551758,-0.26243719458580017
1761396942485028600,6.680028564453125,-0.03352689743041992,0.058293819427490234,-0.14018812775611877
1761396942504405500,6.699405517578125,-0.024044513702392578,0.13541030883789062,0.1177121102809906
1761396942523782700,6.71878271484375,0.04760026931762695,0.040935516357421875,0.4140803813934326
1761396942543159600,6.73815966796875,-0.010119438171386719,0.044569969177246094,0.03873172402381897
1761396942562536400,6.757536376953125,-0.0776224136352539,0.030143260955810547,-0.2088523507118225
1761396942581913300,6.776913330078125,0.15170955657958984,0.006515026092529297,-0.1709854006767273
1761396942601290200,6.796290283203125,0.10122108459472656,0.015059947967529297,-0.0925937294960022
1761396942620667100,6.815667236328125,-0.04009199142456055,0.00940847396850586,-0.17040687799453735
1761396942640044000,6.8350439453125,-0.1137075424194336,0.03508424758911133,-0.0708991289138794
1761396942659421200,6.854421142578125,-0.15719079971313477,0.07525920867919922,0.04799589514732361
1761396942678798000,6.873798095703125,-0.09611272811889648,0.047943115234375,0.04217839241027832
1761396942698175000,6.893175048828125,0.04198741912841797,0.003391742706298828,-0.14297306537628174
1761396942717551900,6.9125517578125,0.07366275787353516,0.04440784454345703,-0.10512834787368774
1761396942736928800,6.9319287109375,0.18230819702148438,-0.04706001281738281,0.03157222270965576
1761396942756305700,6.9513056640625,0.012088298797607422,-0.03110027313232422,-0.12345698475837708
1761396942775682600,6.9706826171875,-0.24907207489013672,0.07761716842651367,-0.06370830535888672
1761396942795059700,6.990059814453125,-0.1589350700378418,0.09938240051269531,0.034208595752716064
1761396942814436600,7.0094365234375,-0.013570308685302734,0.0670633316040039,-0.0881066620349884
1761396942833813500,7.0288134765625,0.06848859786987305,0.02509784698486328,-0.21935100853443146
1761396942853190400,7.0481904296875,0.1446399688720703,0.030969619750976562,-0.15036392211914062
1761396942872567300,7.0675673828125,0.06601428985595703,0.06919288635253906,0.09594160318374634
1761396942891944200,7.086944091796875,-0.12910175323486328,0.03256702423095703,0.12128964066505432
1761396942911321300,7.1063212890625,-0.16499900817871094,0.005501270294189453,-0.10877352952957153
1761396942930698200,7.1256982421875,0.022418498992919922,0.016627788543701172,-0.04058915376663208
1761396942950075100,7.1450751953125,0.14807939529418945,0.009892940521240234,0.037851482629776
1761396942969452000,7.1644521484375,0.08398818969726562,0.01384735107421875,-0.09776097536087036
1761396942988829000,7.183828857421875,-0.02687358856201172,0.00860595703125,-0.1128707230091095
1761396943008205800,7.203205810546875,-0.009313106536865234,0.014692306518554688,0.022056132555007935
1761396943027582700,7.222582763671875,-0.004836559295654297,0.015576362609863281,-0.02142888307571411
1761396943046959900,7.2419599609375,-0.12700653076171875,0.019492149353027344,-0.015381783246994019
1761396943066336800,7.261336669921875,-0.12180137634277344,0.051599979400634766,0.10190382599830627
1761396943085713700,7.280713623046875,0.01625537872314453,0.032860755920410156,0.07212081551551819
1761396943105090600,7.300090576171875,0.004320621490478516,0.028394222259521484,-0.07721993327140808
1761396943124467500,7.319467529296875,-0.05482149124145508,0.011252403259277344,-0.15757769346237183
1761396943143844400,7.33884423828125,0.02957296371459961,0.012692928314208984,-0.10553231835365295
1761396943163221500,7.358221435546875,-0.11226177215576172,0.04114341735839844,-0.07410860061645508
1761396943182598400,7.377598388671875,-0.08397150039672852,0.05668067932128906,-0.10104355216026306
1761396943201975300,7.396975341796875,-0.033873558044433594,0.05887603759765625,-0.07658886909484863
1761396943221352200,7.416352294921875,0.08517313003540039,0.06918668746948242,-0.08822625875473022
1761396943240729000,7.43572900390625,0.2396860122680664,-0.01368856430053711,-0.13674677908420563
1761396943260106000,7.45510595703125,0.1079702377319336,-0.017883777618408203,-0.12929105758666992
1761396943279483000,7.47448291015625,-0.04921579360961914,-0.01297140121459961,-0.02753889560699463
1761396943298860000,7.493860107421875,-0.06033468246459961,0.0032553672790527344,-0.03402629494667053
1761396943318237000,7.51323681640625,-0.16753530502319336,0.05350160598754883,0.06422099471092224
1761396943337613800,7.53261376953125,-0.11559724807739258,0.06409549713134766,0.12310370802879333
1761396943356990700,7.55199072265625,-0.07522821426391602,0.0500035285949707,0.02398139238357544
1761396943376367600,7.57136767578125,-0.047379493713378906,0.021442413330078125,-0.08631274104118347
1761396943395744500,7.59074462890625,0.08871030807495117,0.02192211151123047,-0.10653877258300781
1761396943415121700,7.61012158203125,0.18018817901611328,0.009869098663330078,-0.07392656803131104
1761396943434498600,7.62949853515625,0.09260320663452148,-0.007282733917236328,-0.15544945001602173
1761396943453875500,7.64887548828125,-0.04690217971801758,0.0005745887756347656,-0.23389819264411926
1761396943473252400,7.66825244140625,-0.1308584213256836,0.017188072204589844,-0.09601128101348877
1761396943492629200,7.687629150390625,-0.16290998458862305,0.07340002059936523,-0.012501329183578491
1761396943512006100,7.707006103515625,-0.17409896850585938,0.08237266540527344,-0.05433642864227295
1761396943531383000,7.726383056640625,-0.05310773849487305,0.019938945770263672,-0.13634425401687622
1761396943550760200,7.74576025390625,0.02080059051513672,-0.030078887939453125,-0.26113268733024597
1761396943570137000,7.76513720703125,0.17519712448120117,-0.030986309051513672,-0.28775495290756226
1761396943589514000,7.784513916015625,0.43555593490600586,-0.0025691986083984375,-0.13044318556785583
1761396943608891000,7.803890869140625,0.25006723403930664,0.06446075439453125,0.1946692168712616
1761396943628267800,7.823267822265625,-0.18116378784179688,0.11631250381469727,0.4268891513347626
1761396943647644700,7.842644775390625,-0.44463348388671875,0.05711030960083008,0.2414819300174713
1761396943667021600,7.862021484375,-0.3941617012023926,0.022397994995117188,-0.03193145990371704
1761396943686398700,7.881398681640625,-0.1214747428894043,0.044884681701660156,-0.061560600996017456
1761396943705775600,7.900775634765625,-0.002776622772216797,0.09901714324951172,0.018339037895202637
1761396943725152500,7.920152587890625,0.15041732788085938,0.05142545700073242,-0.050657033920288086
1761396943744529400,7.939529296875,0.32932329177856445,-0.04502391815185547,-0.21181052923202515
1761396943763906300,7.95890625,0.24884986877441406,-0.0640568733215332,-0.3151454031467438
1761396943783283200,7.978283203125,0.21016597747802734,-0.04927539825439453,-0.2618727684020996
1761396943802660400,7.997660400390625,0.12602853775024414,0.01410531997680664,-0.16769924759864807
1761396943822037200,8.017037353515626,-0.13874578475952148,0.03243398666381836,0.02845945954322815
1761396943841414100,8.0364140625,-0.2658052444458008,0.0681915283203125,0.06886449456214905
1761396943860791000,8.055791015625,-0.29320716857910156,0.08737707138061523,0.09508174657821655
1761396943880168000,8.07516796875,-0.22204065322875977,0.06818246841430664,0.07031908631324768
1761396943899544800,8.094544921875,0.08299493789672852,-0.0143280029296875,-0.10220170021057129
1761396943918921700,8.113921630859375,0.23990106582641602,-0.06301403045654297,-0.1266385316848755
1761396943938299000,8.133298828125,0.14443302154541016,0.0024499893188476562,0.020382225513458252
1761396943957675800,8.15267578125,0.08581256866455078,0.0013437271118164062,-0.06616461277008057
1761396943977052700,8.172052734375,-0.07812690734863281,-0.027608871459960938,-0.14020466804504395
1761396943996429600,8.1914296875,-0.2075366973876953,0.01517343521118164,-0.13050872087478638
1761396944015806500,8.210806396484376,-0.1656785011291504,0.018212318420410156,-0.05479428172111511
1761396944035183400,8.230183349609375,-0.08422613143920898,0.07622289657592773,0.0003661513328552246
1761396944054560500,8.249560546875,-0.030365943908691406,0.11657047271728516,0.11193540692329407
1761396944073937400,8.2689375,0.1073007583618164,0.05525016784667969,0.17639455199241638
1761396944093314300,8.288314208984374,0.16936349868774414,0.01407003402709961,-0.07855299115180969
1761396944112691200,8.307691162109375,0.06596040725708008,0.008890151977539062,-0.1580924540758133
1761396944132068000,8.327068115234376,0.005955219268798828,0.026252269744873047,-0.016661882400512695
1761396944151445000,8.346445068359374,-0.04713869094848633,-0.05669736862182617,-0.14519980549812317
1761396944170822000,8.36582177734375,-0.2222270965576172,0.012799739837646484,-0.19080668687820435
1761396944190199000,8.385198974609375,-0.1443624496459961,0.0840301513671875,0.06671583652496338
1761396944209576000,8.404575927734374,0.0987405776977539,0.03730630874633789,0.17752477526664734
1761396944228952800,8.423952880859375,0.15114736557006836,-0.011123180389404297,-0.010263890027999878
1761396944248329700,8.443329833984375,0.0075855255126953125,0.027189254760742188,-0.09885787963867188
1761396944267706600,8.46270654296875,-0.08111143112182617,0.012224674224853516,-0.04796651005744934
1761396944287083500,8.48208349609375,-0.1299128532409668,0.038442134857177734,-0.08012500405311584
1761396944306460700,8.501460693359375,-0.04023265838623047,0.02539682388305664,-0.13874077796936035
1761396944325837600,8.520837646484376,0.09449911117553711,0.004704475402832031,-0.10008043050765991
1761396944345214500,8.54021435546875,0.12491989135742188,0.013422489166259766,-0.008475005626678467
1761396944364591400,8.55959130859375,0.11768484115600586,0.018375396728515625,0.05883431434631348
1761396944383968300,8.57896826171875,-0.07779455184936523,0.03705024719238281,0.02846953272819519
1761396944403345200,8.59834521484375,-0.19504737854003906,0.036224365234375,-0.007773071527481079
1761396944422722000,8.61772216796875,-0.11964559555053711,0.030269622802734375,-0.10779401659965515
1761396944442099200,8.63709912109375,0.034197330474853516,0.012924671173095703,-0.11215519905090332
1761396944461476000,8.65647607421875,0.08988761901855469,0.03186941146850586,-0.03703734278678894
1761396944480853000,8.67585302734375,0.050348758697509766,0.02658843994140625,0.04528924822807312
1761396944500230000,8.69522998046875,-0.05338573455810547,0.011892318725585938,-0.029487311840057373
1761396944519606800,8.714606689453126,-0.01301717758178711,0.012270450592041016,-0.015613734722137451
1761396944538983700,8.733983642578124,0.12081766128540039,-0.019042491912841797,-0.05446314811706543
1761396944558360800,8.75336083984375,0.05297136306762695,-0.020223617553710938,-0.15500149130821228
1761396944577737700,8.77273779296875,-0.19802618026733398,0.06992244720458984,-0.08084392547607422
1761396944597114600,8.792114501953124,-0.23639965057373047,0.09378671646118164,0.05695831775665283
1761396944616491500,8.811491455078125,-0.1347818374633789,0.07938194274902344,0.07169172167778015
1761396944635868400,8.830868408203125,0.19007158279418945,-0.0037169456481933594,-0.06812876462936401
1761396944655245300,8.850245361328126,0.2962322235107422,-0.025687694549560547,-0.1632411628961563
1761396944674622200,8.869622314453125,0.16932964324951172,0.0047702789306640625,-0.12322980165481567
1761396944693999000,8.8889990234375,-0.06241464614868164,0.03981208801269531,-0.10931164026260376
1761396944713376300,8.908376220703126,-0.13439416885375977,0.025609970092773438,-0.01160430908203125
1761396944732753200,8.927753173828124,-0.11492347717285156,0.030997753143310547,0.0040435791015625
1761396944752130000,8.947130126953125,-0.12115621566772461,0.00036907196044921875,-0.11449170112609863
1761396944771507000,8.9665068359375,-0.003384113311767578,0.001956462860107422,-0.20602819323539734
1761396944790883800,8.9858837890625,0.07844877243041992,0.015164375305175781,-0.10025689005851746
1761396944810260700,9.0052607421875,0.10616111755371094,0.15332984924316406,-0.06037330627441406
1761396944829637600,9.0246376953125,0.02537059783935547,-0.1480255126953125,0.2545928359031677
1761396944849014800,9.044014892578126,-0.008541584014892578,-0.02039480209350586,0.1276494860649109
1761396944868391700,9.0633916015625,-0.03920936584472656,0.09387683868408203,0.011754751205444336
1761396944887768600,9.0827685546875,0.01322031021118164,-0.013593196868896484,0.06359082460403442
1761396944907145500,9.1021455078125,-0.12018299102783203,0.0302886962890625,-0.04727959632873535
1761396944926522400,9.1215224609375,-0.2622675895690918,0.12555837631225586,-0.1881672590970993
1761396944945899300,9.140899169921875,-0.14571380615234375,0.05094099044799805,-0.05257722735404968
1761396944965276200,9.160276123046875,0.1551980972290039,-0.015746116638183594,0.028536617755889893
1761396944984653300,9.1796533203125,0.306424617767334,-0.014874935150146484,0.07755565643310547
1761396945004030200,9.1990302734375,0.044775962829589844,0.03151988983154297,0.024290114641189575
1761396945023407000,9.218406982421875,-0.0790257453918457,0.027900218963623047,-0.08429677784442902
1761396945042784000,9.237783935546876,0.0026984214782714844,-0.012743473052978516,-0.07628923654556274
1761396945062161000,9.257160888671875,-0.0041828155517578125,0.06345844268798828,-0.07002873718738556
1761396945081537800,9.276537841796875,0.012708187103271484,0.009871482849121094,-0.004033267498016357
1761396945100915000,9.2959150390625,0.22625970840454102,-0.07884931564331055,-0.07857213914394379
1761396945120291800,9.315291748046874,0.16300249099731445,0.017162799835205078,-0.0032515227794647217
1761396945139668700,9.334668701171875,0.015669822692871094,0.022227764129638672,0.1396370828151703
1761396945159045600,9.354045654296876,0.17692041397094727,-0.027061939239501953,0.024415403604507446
1761396945178422500,9.373422607421874,-0.08074283599853516,0.043657779693603516,-0.08113956451416016
1761396945197799400,9.39279931640625,-0.2433795928955078,0.057759761810302734,-0.18359681963920593
1761396945217176300,9.41217626953125,-0.12937164306640625,-0.07400751113891602,-0.207683265209198
1761396945236553500,9.431553466796874,-0.11847448348999023,0.07045602798461914,-0.11321383714675903
1761396945255930400,9.450930419921875,-0.046071529388427734,0.1497635841369629,0.10153710842132568
1761396945275307300,9.470307373046875,-0.03311729431152344,-0.008352279663085938,0.04743677377700806
1761396945294684200,9.48968408203125,-0.12671995162963867,0.002052783966064453,-0.16064876317977905
1761396945314061000,9.50906103515625,0.037592411041259766,0.004481792449951172,-0.1412678360939026
1761396945333438000,9.52843798828125,-0.037184715270996094,0.021742820739746094,-0.04338321089744568
1761396945352815000,9.547815185546876,-0.045072078704833984,0.06064605712890625,-0.0038942545652389526
1761396945372192000,9.56719189453125,0.050423622131347656,-0.027260780334472656,-0.11269634962081909
1761396945391569000,9.58656884765625,0.050316810607910156,-0.010087966918945312,-0.12360644340515137
1761396945410945800,9.60594580078125,-0.03427600860595703,0.08323478698730469,0.11766529083251953
1761396945430322700,9.62532275390625,-0.1502070426940918,0.026680946350097656,0.1370970755815506
1761396945449699600,9.644699462890625,-0.08053112030029297,-0.006458282470703125,-0.1264975368976593
1761396945469076500,9.664076416015625,0.1181497573852539,0.01194620132446289,-0.07817542552947998
1761396945488453600,9.68345361328125,0.21036624908447266,0.004016399383544922,0.023767367005348206
1761396945507830500,9.70283056640625,0.08115291595458984,-0.027406692504882812,-0.09966801106929779
1761396945527207400,9.72220751953125,-0.043908119201660156,-0.01928424835205078,-0.20875248312950134
1761396945546584300,9.741584228515626,-0.08511781692504883,0.05251646041870117,-0.106729656457901
1761396945565961200,9.760961181640624,-0.20945501327514648,0.06244611740112305,0.04278990626335144
1761396945585338000,9.780338134765625,-0.07927513122558594,0.009211540222167969,0.008340418338775635
1761396945604715000,9.799715087890625,0.1452770233154297,0.03207063674926758,-0.054251059889793396
1761396945624092200,9.819092041015624,0.17229700088500977,0.05454301834106445,0.07550176978111267
1761396945643469000,9.838468994140625,-0.04822063446044922,-0.0004940032958984375,0.12039351463317871
1761396945662846000,9.857845947265625,-0.21089601516723633,-0.013725757598876953,-0.07169115543365479
1761396945682222800,9.877222900390626,-0.10239219665527344,0.00042438507080078125,-0.23444044589996338
1761396945701599700,9.896599853515625,0.14318180084228516,0.041115760803222656,-0.07229334115982056
1761396945720976600,9.9159765625,0.2664666175842285,0.024462223052978516,0.025909438729286194
1761396945740353800,9.935353759765626,0.05093574523925781,0.010069847106933594,0.044176727533340454
1761396945759730700,9.954730712890624,-0.14512157440185547,-0.019968032836914062,0.014135763049125671
1761396945779107600,9.974107666015625,-0.22600030899047852,0.028989315032958984,-0.010967671871185303
1761396945798484500,9.993484375,-0.027381420135498047,0.037473201751708984,-0.06899990141391754
1761396945817861400,10.012861328125,0.023961544036865234,0.05842018127441406,-0.012853607535362244
1761396945837238300,10.03223828125,0.06600046157836914,0.0804142951965332,0.056141674518585205
1761396945856615200,10.051615234375,0.16051959991455078,-0.0025424957275390625,0.02039813995361328
1761396945875992300,10.070992431640626,0.023437976837158203,-0.01522207260131836,-0.16404537856578827
1761396945895369200,10.090369140625,-0.15169668197631836,0.08746957778930664,-0.1734943389892578
1761396945914746000,10.10974609375,-0.053266048431396484,0.07356119155883789,0.2227931022644043
1761396945934123000,10.129123046875,-0.028089523315429688,-0.34368467330932617,0.5179673433303833
1761396945953500000,10.1485,0.11100530624389648,0.2963852882385254,-0.38606929779052734
1761396945992254000,10.18725390625,0.24709844589233398,-0.09272050857543945,-0.40696150064468384
1761396946011630800,10.206630859375,0.5599350929260254,0.1326007843017578,-0.12629613280296326
1761396946031007700,10.2260078125,0.3920783996582031,0.06542253494262695,0.589499831199646
