time,seconds_elapsed,z,y,x
1761396935939348200,0.13434814453125,-0.06551336497068405,0.12171131372451782,-0.016798298805952072
1761396935958725400,0.153725341796875,-0.06673506647348404,0.06413896381855011,0.04459185153245926
1761396935978102300,0.173102294921875,-0.06352811306715012,0.07330167293548584,0.0975828468799591
1761396935997479200,0.192479248046875,-0.03268032893538475,0.057114217430353165,0.060932014137506485
1761396936016856000,0.21185595703125,0.020463382825255394,0.05131116881966591,0.04367557913064957
1761396936036233000,0.23123291015625,0.028098974376916885,0.09177979826927185,0.046577103435993195
1761396936055609900,0.25060986328125,0.026724567636847496,0.10674555599689484,0.026724567636847496
1761396936074987000,0.269987060546875,0.06261184066534042,0.14156384766101837,0.08765657991170883
1761396936094364000,0.289364013671875,0.05650337040424347,0.1375933438539505,0.1298050433397293
1761396936113740800,0.30874072265625,-0.016492875292897224,0.0528382882475853,0.10078980028629303
1761396936133117700,0.32811767578125,-0.04703523963689804,0.009009997360408306,0.0713164210319519
1761396936152494600,0.34749462890625,-0.03008422814309597,0.021685076877474785,0.03833066672086716
1761396936171871500,0.36687158203125,-0.014507622458040714,0.016187451779842377,-0.03436015918850899
1761396936191248600,0.38624853515625,0.014965757727622986,0.029473381116986275,-0.034665580838918686
1761396936210625500,0.40562548828125,0.03634541109204292,0.042759306728839874,-0.039857782423496246
1761396936230002400,0.42500244140625,0.025655584409832954,0.008704573847353458,-0.12201674282550812
1761396936249379300,0.44437939453125,0.05405998229980469,0.06016845628619194,-0.09009996801614761
1761396936268756200,0.463756103515625,0.02367033064365387,0.16111096739768982,-0.0024433890357613564
1761396936288133000,0.483133056640625,-0.06581879407167435,0.10827267915010452,0.011300674639642239
1761396936307510000,0.502510009765625,-0.0847550556063652,0.04825693368911743,-0.01038440316915512
1761396936326887200,0.52188720703125,-0.04840964451432228,0.033291175961494446,-0.09361234307289124
1761396936346264000,0.54126416015625,-0.050547610968351364,0.008093725889921188,-0.11117420345544815
1761396936365641000,0.560640869140625,-0.024586603045463562,0.012675080448389053,-0.033596597611904144
1761396936385017900,0.580017822265625,0.001374406274408102,0.06322269141674042,0.05085303261876106
1761396936404394800,0.599394775390625,-0.01725643500685692,0.05650337040424347,0.0984991192817688
1761396936423772000,0.61877197265625,-0.01725643500685692,-0.006719320081174374,0.14003673195838928
1761396936443148800,0.638148681640625,0.0032069480512291193,0.005497625097632408,0.14721418917179108
1761396936462525700,0.657525634765625,0.01725643500685692,0.020463382825255394,0.08460234850645065
1761396936481902600,0.676902587890625,0.014507622458040714,0.005650337319821119,0.017714571207761765
1761396936501279500,0.696279541015625,-0.005344913341104984,0.013591351918876171,0.027946261689066887
1761396936520656400,0.715656494140625,-0.002748812548816204,0.011606098152697086,0.06398624926805496
1761396936540033500,0.735033447265625,0.024128466844558716,0.006413896102458239,0.06581879407167435
1761396936559410400,0.754410400390625,0.039857782423496246,0.021990500390529633,0.09177979826927185
1761396936578787300,0.773787353515625,0.04169032722711563,0.011911521665751934,0.09697200357913971
1761396936598164200,0.793164306640625,0.04825693368911743,-0.03420744836330414,0.03894151374697685
1761396936617541000,0.812541015625,0.04932591691613197,-0.05497625470161438,0.004123218823224306
1761396936636918000,0.83191796875,0.020310672000050545,-0.02764083817601204,0.011453386396169662
1761396936656295000,0.851294921875,0.020310672000050545,-0.0004581354442052543,0.00916270911693573
1761396936675672000,0.870672119140625,-0.005497625097632408,0.011147962883114815,-0.004886778071522713
1761396936695049000,0.890049072265625,-0.020463382825255394,0.011911521665751934,0.007482878863811493
1761396936714425900,0.90942578125,0.014049487188458443,0.03237490355968475,0.011911521665751934
1761396936733802800,0.928802734375,0.04169032722711563,0.039857782423496246,0.0029015245381742716
1761396936753179600,0.9481796875,0.029473381116986275,0.025808297097682953,0.0325276181101799
1761396936772556500,0.967556640625,0.00015271181473508477,-0.024586603045463562,0.059557609260082245
1761396936791933700,0.98693359375,0.005497625097632408,-0.01588202826678753,0.10689827054738998
1761396936811310600,1.006310546875,0.02076880633831024,0.031916771084070206,0.13117945194244385
1761396936830687500,1.0256875,0.01969982497394085,0.03008422814309597,0.10323318839073181
1761396936850064400,1.045064453125,0.004428642801940441,0.021226942539215088,0.0978882759809494
1761396936869441300,1.064441162109375,0.0065666078589856625,0.006413896102458239,0.08124268800020218
1761396936888818400,1.083818359375,0.009009997360408306,0.0012216945178806782,0.021990500390529633
1761396936908195300,1.1031953125,-0.005344913341104984,-0.036192700266838074,-0.005497625097632408
1761396936927572200,1.122572265625,-0.012064233422279358,-0.04932591691613197,-0.0009162708884105086
1761396936946949000,1.14194921875,0.0036650835536420345,-0.010842538438737392,-0.020005248486995697
1761396936966326000,1.161325927734375,0.021685076877474785,0.014202198944985867,-0.00259610079228878
1761396936985703000,1.180702880859375,0.029167955741286278,0.03237490355968475,0.04978405311703682
1761396937005079800,1.200079833984375,0.015576604753732681,0.01511846948415041,0.07040014863014221
1761396937024457000,1.21945703125,0.008093725889921188,0.004581354558467865,0.08582404255867004
1761396937043833900,1.238833740234375,-0.0050394898280501366,0.010231691412627697,0.09345962852239609
1761396937063210800,1.258210693359375,0.010231691412627697,-0.04230117425322533,0.07589777559041977
1761396937082587600,1.277587646484375,0.020157959312200546,-0.06368082761764526,0.027793550863862038
1761396937101964500,1.296964599609375,0.01817270554602146,-0.025502873584628105,-0.010689826682209969
1761396937121341400,1.316341552734375,-0.029320668429136276,-0.010537114925682545,-0.01969982497394085
1761396937140718600,1.335718505859375,-0.08154810965061188,-0.028557108715176582,-0.04840964451432228
1761396937160095500,1.355095458984375,-0.05360184609889984,-0.0038177953101694584,-0.0659715011715889
1761396937179472400,1.374472412109375,0.0015271181473508477,0.03695625811815262,-0.04337015375494957
1761396937198849300,1.393849365234375,-0.010537114925682545,0.01252236869186163,-0.037261683493852615
1761396937218226200,1.41322607421875,-0.0198525357991457,0.005650337319821119,-0.015576604753732681
1761396937237603000,1.43260302734375,-0.008551862090826035,0.024433890357613564,0.0029015245381742716
1761396937256980000,1.45197998046875,-0.004428642801940441,0.017409147694706917,-0.03130592033267021
1761396937276357000,1.471357177734375,-0.014049487188458443,-0.01435491070151329,-0.09269607067108154
1761396937295734000,1.490734130859375,-0.013591351918876171,-0.021226942539215088,-0.12079504877328873
1761396937315111000,1.51011083984375,-0.033443886786699295,-0.02870982140302658,-0.1122431829571724
1761396937334487800,1.52948779296875,-0.059710320085287094,-0.021379653364419937,-0.1047603040933609
1761396937353864700,1.54886474609375,-0.02870982140302658,-0.01725643500685692,-0.0850604772567749
1761396937373241900,1.568241943359375,-0.005497625097632408,-0.018630841746926308,-0.03008422814309597
1761396937392618800,1.58761865234375,-0.025350160896778107,-0.026571854948997498,0.039857782423496246
1761396937411995600,1.60699560546875,-0.031000498682260513,-0.031916771084070206,0.07101099193096161
1761396937431372500,1.62637255859375,-0.008857285603880882,-0.014507622458040714,0.042606595903635025
1761396937450749400,1.64574951171875,-0.014813045971095562,-0.030542362481355667,0.011453386396169662
1761396937470126300,1.665126220703125,-0.00030542362947016954,-0.047646086663007736,0.024128466844558716
1761396937489503500,1.68450341796875,0.027029991149902344,-0.02107422985136509,0.014965757727622986
1761396937508880400,1.70388037109375,0.03130592033267021,-0.010689826682209969,0.02107422985136509
1761396937528257300,1.72325732421875,0.02107422985136509,-0.01832541823387146,0.03680354729294777
1761396937547634200,1.74263427734375,0.01695101149380207,-0.028251685202121735,-0.00015271181473508477
1761396937567011000,1.762010986328125,0.02351761981844902,-0.04886778071522713,-0.017561858519911766
1761396937586388000,1.781387939453125,0.015576604753732681,-0.03436015918850899,-0.01817270554602146
1761396937605764900,1.800764892578125,0.008246437646448612,-0.021379653364419937,-0.019394399598240852
1761396937625142000,1.82014208984375,0.009468132629990578,-0.013744063675403595,-0.011300674639642239
1761396937644519000,1.839518798828125,0.014965757727622986,0.012369656935334206,-0.007024743594229221
1761396937663895800,1.858895751953125,0.01435491070151329,0.007482878863811493,-0.005650337319821119
1761396937683272700,1.878272705078125,0.00030542362947016954,0.0021379655227065086,-0.004428642801940441
1761396937702649600,1.897649658203125,-0.0261137206107378,-0.014660334214568138,0.026877280324697495
1761396937722026500,1.917026611328125,-0.02351761981844902,0.008399149402976036,0.04978405311703682
1761396937741403400,1.9364033203125,-0.0035123717971146107,0.028557108715176582,0.056808795779943466
1761396937760780500,1.955780517578125,0.02489202655851841,0.01832541823387146,0.04459185153245926
1761396937780157400,1.975157470703125,0.025655584409832954,0.0024433890357613564,0.009315420873463154
1761396937799534300,1.994534423828125,-0.005497625097632408,-0.0325276181101799,-0.02092151902616024
1761396937818911200,2.0139111328125,0.0009162708884105086,-0.010537114925682545,-0.018019994720816612
1761396937838288100,2.0332880859375,-0.0009162708884105086,0.03374931216239929,0.0016798300202935934
1761396937857665300,2.052665283203125,-0.007635590620338917,0.047798797488212585,0.023364907130599022
1761396937877042200,2.072042236328125,-0.016645587980747223,0.03527642786502838,0.036192700266838074
1761396937896419000,2.091419189453125,-0.023823043331503868,-0.013285927474498749,0.05131116881966591
1761396937915796000,2.1107958984375,-0.026724567636847496,-0.03573456406593323,0.0525328628718853
1761396937935172900,2.1301728515625,0.008857285603880882,-0.03145863488316536,0.02504473738372326
1761396937954549800,2.1495498046875,0.04092676565051079,0.013285927474498749,-0.0007635590736754239
1761396937973927000,2.168927001953125,0.013438640162348747,0.026877280324697495,-0.00259610079228878
1761396937993303800,2.1883037109375,-0.013744063675403595,0.012675080448389053,-0.010689826682209969
1761396938012680700,2.2076806640625,-0.01175880990922451,0.006719320081174374,-0.04184303805232048
1761396938032057600,2.2270576171875,-0.020463382825255394,-0.0068720318377017975,-0.07956285774707794
1761396938051434500,2.2464345703125,-0.01817270554602146,-0.006108472589403391,-0.1056765764951706
1761396938070811400,2.265811279296875,-0.0016798300202935934,0.03405473381280899,-0.06856760382652283
1761396938090188300,2.285188232421875,0.010078979656100273,0.12613995373249054,-0.0009162708884105086
1761396938109565400,2.3045654296875,-0.010078979656100273,0.13392825424671173,0.05512896552681923
1761396938128942300,2.3239423828125,-0.022906772792339325,0.03558185324072838,0.06520794332027435
1761396938148319200,2.3433193359375,-0.00030542362947016954,-0.05070032179355621,0.02107422985136509
1761396938167696100,2.362696044921875,0.037108972668647766,-0.07269082218408585,-0.014813045971095562
1761396938187073000,2.382072998046875,0.051463883370161057,-0.05344913527369499,-0.00259610079228878
1761396938206450000,2.401449951171875,0.051463883370161057,-0.022754060104489326,0.06001574173569679
1761396938225827000,2.4208271484375,0.01832541823387146,-0.026877280324697495,0.0916270911693573
1761396938245204000,2.440203857421875,-0.009009997360408306,-0.03374931216239929,0.06520794332027435
1761396938264580900,2.459580810546875,0.010078979656100273,-0.017867282032966614,0.03680354729294777
1761396938283957800,2.478957763671875,0.021226942539215088,-0.009773556143045425,0.01435491070151329
1761396938303334700,2.498334716796875,-0.0331384651362896,-0.0328330397605896,0.014813045971095562
1761396938322711600,2.517711669921875,-0.051463883370161057,-0.018783552572131157,0.023212196305394173
1761396938342088400,2.53708837890625,-0.020310672000050545,0.019241688773036003,0.02076880633831024
1761396938361465600,2.556465576171875,-0.03130592033267021,-0.023364907130599022,-0.00519220158457756
1761396938380842500,2.575842529296875,-0.021837789565324783,-0.03023693896830082,-0.00519220158457756
1761396938400219400,2.595219482421875,0.030847785994410515,0.00916270911693573,0.007177455350756645
1761396938419596300,2.61459619140625,0.041232191026210785,0.02229592576622963,0.0016798300202935934
1761396938438973200,2.63397314453125,0.004886778071522713,0.0035123717971146107,0.004428642801940441
1761396938458350300,2.653350341796875,-0.01435491070151329,-0.022754060104489326,-0.014813045971095562
1761396938477727200,2.672727294921875,0.005344913341104984,-0.007941014133393764,-0.04367557913064957
1761396938497104100,2.692104248046875,0.010995250195264816,-0.00519220158457756,-0.02214321307837963
1761396938516481000,2.71148095703125,0.0030542362947016954,0.0021379655227065086,0.004428642801940441
1761396938535858000,2.73085791015625,0.009009997360408306,0.0018325417768210173,0.027029991149902344
1761396938555234800,2.75023486328125,0.017561858519911766,-0.0029015245381742716,0.023823043331503868
1761396938574612000,2.769612060546875,0.02244863659143448,0.0035123717971146107,0.025961007922887802
1761396938593988900,2.78898876953125,0.001985253533348441,-0.011911521665751934,0.021379653364419937
1761396938613365800,2.80836572265625,0.0029015245381742716,-0.023212196305394173,-0.009468132629990578
1761396938632742700,2.82774267578125,0.009620844386518002,0.007788302376866341,-0.016798298805952072
1761396938652119600,2.84711962890625,-0.02214321307837963,0.03680354729294777,-0.005803049076348543
1761396938671496400,2.866496337890625,-0.024281177669763565,0.05467082932591438,0.0032069480512291193
1761396938690873300,2.885873291015625,-0.004275931045413017,0.0328330397605896,0.0068720318377017975
1761396938710250500,2.90525048828125,-0.005344913341104984,-0.007330167107284069,0.009620844386518002
1761396938729627400,2.92462744140625,-0.025808297097682953,-0.02214321307837963,0.019088976085186005
1761396938749004300,2.94400439453125,-0.006261184345930815,-0.031916771084070206,0.012064233422279358
1761396938768381200,2.963381103515625,0.03451287001371384,-0.03298575058579445,-0.00916270911693573
1761396938787758000,2.982758056640625,0.01588202826678753,-0.04871506989002228,0.009620844386518002
1761396938807135000,3.002135009765625,-0.01252236869186163,-0.0781884491443634,0.023059483617544174
1761396938826512100,3.02151220703125,0.0068720318377017975,-0.07177454978227615,-0.006108472589403391
1761396938845889000,3.040888916015625,0.01038440316915512,-0.015271181240677834,-0.012827792204916477
1761396938865266000,3.060265869140625,0.0021379655227065086,0.016187451779842377,-0.0038177953101694584
1761396938884642800,3.079642822265625,-0.004428642801940441,0.019394399598240852,-0.019241688773036003
1761396938904019700,3.099019775390625,0.010537114925682545,0.051769305020570755,-0.025961007922887802
1761396938923396600,3.118396728515625,0.015423892997205257,0.047646086663007736,-0.02076880633831024
1761396938942773500,3.1377734375,0.004581354558467865,0.004886778071522713,-0.012827792204916477
1761396938962150700,3.157150634765625,-0.015576604753732681,0.0012216945178806782,-0.02489202655851841
1761396938981527600,3.176527587890625,-0.01710372418165207,0.05757235363125801,-0.022601349279284477
1761396939000904400,3.195904541015625,-0.014507622458040714,0.05482354015111923,-0.011911521665751934
1761396939020281300,3.21528125,-0.03268032893538475,0.01725643500685692,0.01175880990922451
1761396939039658200,3.234658203125,-0.027029991149902344,0.02367033064365387,0.020157959312200546
1761396939059035100,3.25403515625,0.018936265259981155,0.02367033064365387,-0.0016798300202935934
1761396939078412300,3.273412353515625,0.04474456235766411,0.013896775431931019,-0.012216945178806782
1761396939097789200,3.2927890625,0.02626643143594265,0.03527642786502838,0.007635590620338917
1761396939117166000,3.312166015625,-0.012675080448389053,0.04337015375494957,-0.007788302376866341
1761396939136543000,3.33154296875,-0.026877280324697495,0.027182703837752342,-0.051616594195365906
1761396939155920000,3.350919921875,-0.055739812552928925,0.04504998400807381,-0.08215895295143127
1761396939175296800,3.370296875,-0.09804098308086395,0.042606595903635025,-0.11407572776079178
1761396939194674000,3.389673828125,-0.09605573117733002,0.046577103435993195,-0.12110047042369843
1761396939214050800,3.40905078125,-0.05543438717722893,0.02473931387066841,-0.1047603040933609
1761396939233427700,3.428427734375,-0.021532366052269936,0.01969982497394085,-0.03787253051996231
1761396939252804600,3.4478046875,-0.005650337319821119,0.023823043331503868,0.039857782423496246
1761396939272181500,3.467181396484375,0,-0.005650337319821119,0.05925218388438225
1761396939291558400,3.486558349609375,-0.008551862090826035,-0.01847812905907631,0.03924693539738655
1761396939310935600,3.505935546875,0.001374406274408102,-0.011300674639642239,0.0325276181101799
1761396939330312400,3.5253125,0.021226942539215088,-0.0198525357991457,0.011606098152697086
1761396939349689300,3.544689453125,0.007482878863811493,-0.009315420873463154,0.004123218823224306
1761396939369066200,3.564066162109375,-0.014660334214568138,-0.02214321307837963,0.030847785994410515
1761396939388443100,3.583443115234375,-0.009468132629990578,-0.047798797488212585,0.03451287001371384
1761396939407820000,3.602820068359375,0.011606098152697086,-0.04184303805232048,0.03924693539738655
1761396939427197200,3.622197265625,0.027182703837752342,-0.06337540596723557,0.062306419014930725
1761396939446574000,3.641573974609375,0.04321744292974472,-0.09345962852239609,0.04046862944960594
1761396939465951000,3.660950927734375,0.05772506445646286,-0.0844496339559555,0.016645587980747223
1761396939485328000,3.680327880859375,0.054518118500709534,-0.07635590434074402,0.03436015918850899
1761396939504704800,3.699704833984375,0.06520794332027435,-0.0647498071193695,0.06032116711139679
1761396939524081700,3.71908154296875,0.049020491540431976,-0.05665608495473862,0.0462716780602932
1761396939543458600,3.73845849609375,-0.003359660040587187,-0.06719319522380829,0.01572931744158268
1761396939562835700,3.757835693359375,-0.02244863659143448,-0.04963133856654167,-0.017561858519911766
1761396939582212600,3.777212646484375,-0.02764083817601204,-0.018630841746926308,-0.04337015375494957
1761396939601589500,3.796589599609375,-0.0459662564098835,-0.007177455350756645,-0.05512896552681923
1761396939620966400,3.81596630859375,-0.06856760382652283,0.0038177953101694584,-0.04810422286391258
1761396939640343300,3.83534326171875,-0.09681928902864456,0.007177455350756645,-0.05894676223397255
1761396939659720200,3.85472021484375,-0.06383354216814041,0.01725643500685692,-0.06184828653931618
1761396939679097300,3.874097412109375,-0.014507622458040714,0.03955236077308655,-0.03833066672086716
1761396939698474200,3.89347412109375,0.00916270911693573,-0.0030542362947016954,0.033443886786699295
1761396939717851100,3.91285107421875,-0.0021379655227065086,-0.04840964451432228,0.12736165523529053
1761396939737228000,3.93222802734375,0.01435491070151329,-0.07040014863014221,0.18844637274742126
1761396939756605000,3.95160498046875,0.05604523420333862,-0.04077405482530594,0.19318044185638428
1761396939775981800,3.97098193359375,0.05543438717722893,-0.033291175961494446,0.13331741094589233
1761396939795358700,3.990358642578125,0.02473931387066841,-0.03894151374697685,0.08521319180727005
1761396939814736000,4.00973583984375,0.025350160896778107,-0.03023693896830082,0.037414394319057465
1761396939834112800,4.02911279296875,0.006108472589403391,-0.021685076877474785,-0.007330167107284069
1761396939853489700,4.04848974609375,0.0038177953101694584,-0.019088976085186005,0.014049487188458443
1761396939872866600,4.067866455078125,0.008551862090826035,0.023823043331503868,0.013438640162348747
1761396939892243500,4.087243408203125,-0.0010689827613532543,0.005650337319821119,-0.025197450071573257
1761396939911620400,4.106620361328125,0.008857285603880882,-0.025197450071573257,-0.017714571207761765
1761396939930997500,4.12599755859375,0.0397050715982914,-0.016492875292897224,-0.010078979656100273
1761396939950374400,4.14537451171875,0.046424392610788345,0.00030542362947016954,0.008246437646448612
1761396939969751300,4.164751220703125,0.032069481909275055,-0.009315420873463154,-0.010995250195264816
1761396939989128200,4.184128173828125,0.03680354729294777,-0.005497625097632408,-0.047951508313417435
1761396940008505000,4.203505126953125,0.0198525357991457,0.008399149402976036,-0.07269082218408585
1761396940027882000,4.222882080078125,0.008399149402976036,0.01832541823387146,-0.07605048269033432
1761396940047259100,4.242259033203125,0.020616095513105392,0.04337015375494957,-0.08735115826129913
1761396940066636000,4.261635986328125,0.020157959312200546,0.06016845628619194,-0.0910162404179573
1761396940086013000,4.281012939453125,0.01588202826678753,0.03649812191724777,-0.06047387793660164
1761396940105389800,4.300389892578125,0.0390942245721817,0.027029991149902344,0.012216945178806782
1761396940124766700,4.3197666015625,0.050394900143146515,0.020616095513105392,0.07040014863014221
1761396940144143600,4.3391435546875,0.04947862774133682,0.010842538438737392,0.08032641559839249
1761396940163520800,4.358520751953125,0.046729814261198044,0.0021379655227065086,0.056961506605148315
1761396940182897700,4.377897705078125,0.03542914241552353,-0.020310672000050545,0.03436015918850899
1761396940202274600,4.397274658203125,0.01817270554602146,0.00259610079228878,0.017409147694706917
1761396940221651500,4.4166513671875,0.010995250195264816,0.0662769302725792,0.020310672000050545
1761396940241028400,4.4360283203125,0.020616095513105392,0.06673506647348404,-0.0016798300202935934
1761396940260405200,4.4554052734375,0.0036650835536420345,0.04428642615675926,-0.03161134570837021
1761396940279782100,4.4747822265625,-0.029473381116986275,0.018019994720816612,-0.02092151902616024
1761396940299159300,4.4941591796875,-0.006719320081174374,0.012675080448389053,0.001985253533348441
1761396940318536200,4.5135361328125,0.040010496973991394,0.01588202826678753,0.018936265259981155
1761396940337913000,4.5329130859375,0.05726693198084831,0.006261184345930815,0.0328330397605896
1761396940357290000,4.5522900390625,0.05070032179355621,0.009468132629990578,0.058183200657367706
1761396940376667000,4.5716669921875,0.03695625811815262,0.028098974376916885,0.0791047215461731
1761396940396043800,4.591043701171875,0.007635590620338917,0,0.041232191026210785
1761396940415421000,4.6104208984375,-0.0029015245381742716,-0.01817270554602146,-0.0007635590736754239
1761396940434797800,4.6297978515625,0.013438640162348747,-0.006413896102458239,-0.02733541466295719
1761396940454174700,4.6491748046875,0.007788302376866341,0.028098974376916885,-0.02107422985136509
1761396940473551600,4.668551513671875,-0.013285927474498749,0.02993151545524597,-0.001985253533348441
1761396940492928500,4.687928466796875,-0.016034740954637527,0.029320668429136276,-0.010995250195264816
1761396940512305400,4.707305419921875,-0.0009162708884105086,0.016798298805952072,-0.007330167107284069
1761396940531682300,4.726682373046875,0.011606098152697086,0.007941014133393764,0.004428642801940441
1761396940551059500,4.7460595703125,0.014813045971095562,0.006413896102458239,0.024128466844558716
1761396940570436400,4.765436279296875,0.03497100621461868,-0.037414394319057465,0.04886778071522713
1761396940589813200,4.784813232421875,0.04718795046210289,-0.03390202298760414,0.057114217430353165
1761396940609190100,4.804190185546875,0.02229592576622963,-0.01175880990922451,0.037414394319057465
1761396940628567000,4.823567138671875,-0.0004581354442052543,-0.003359660040587187,-0.001374406274408102
1761396940647944000,4.84294384765625,0.0029015245381742716,-0.0038177953101694584,-0.02733541466295719
1761396940667321000,4.862321044921875,0.007330167107284069,0.018630841746926308,-0.01252236869186163
1761396940686698000,4.881697998046875,0.020310672000050545,0.03237490355968475,0.029167955741286278
1761396940706075000,4.901074951171875,0.0459662564098835,0.014660334214568138,0.027946261689066887
1761396940725451800,4.92045166015625,0.050394900143146515,0.005344913341104984,0.006108472589403391
1761396940744828700,4.93982861328125,0.02748812735080719,0.003970507066696882,-0.010689826682209969
1761396940764205600,4.95920556640625,-0.0004581354442052543,-0.0016798300202935934,-0.03695625811815262
1761396940783582500,4.97858251953125,-0.02214321307837963,-0.003359660040587187,-0.036039989441633224
1761396940802959600,4.997959716796875,-0.029473381116986275,0.00259610079228878,-0.0261137206107378
1761396940822336500,5.01733642578125,0.009468132629990578,0.030695075169205666,0.005344913341104984
1761396940841713400,5.03671337890625,0.024433890357613564,0.04016320779919624,0.031000498682260513
1761396940861090300,5.05609033203125,0.02214321307837963,0.0331384651362896,0.04856235533952713
1761396940880467200,5.07546728515625,0.011300674639642239,0.017714571207761765,0.0584886260330677
1761396940899844000,5.094843994140625,0.018019994720816612,0.02214321307837963,0.04825693368911743
1761396940919221200,5.11422119140625,0.021685076877474785,0.037261683493852615,0.016187451779842377
1761396940938598100,5.13359814453125,0.005497625097632408,0.01252236869186163,0.0022906772792339325
1761396940957975000,5.15297509765625,-0.0018325417768210173,0.00519220158457756,0.011453386396169662
1761396940977352000,5.17235205078125,0.017409147694706917,0.02229592576622963,0.0068720318377017975
1761396940996728800,5.191728759765625,0.05024218559265137,0.0594048947095871,0.01847812905907631
1761396941016105700,5.211105712890625,0.04474456235766411,0.04230117425322533,0.0331384651362896
1761396941035482600,5.230482666015625,0.03176405653357506,-0.02107422985136509,0.03680354729294777
1761396941054859800,5.24985986328125,0.03680354729294777,-0.045355409383773804,0.0032069480512291193
1761396941074236700,5.269236572265625,0.053143709897994995,-0.029320668429136276,-0.026724567636847496
1761396941093613600,5.288613525390625,0.04550812020897865,-0.0261137206107378,-0.022754060104489326
1761396941112990500,5.307990478515625,0.030389651656150818,-0.02244863659143448,0.016492875292897224
1761396941132367400,5.327367431640625,0.025502873584628105,0.008093725889921188,0.042759306728839874
1761396941151744300,5.346744140625,0.024281177669763565,0.014507622458040714,0.03527642786502838
1761396941171121200,5.36612109375,0.027793550863862038,-0.008704573847353458,0.001374406274408102
1761396941190498300,5.385498291015625,0.041232191026210785,-0.007941014133393764,-0.011300674639642239
1761396941209875200,5.404875244140625,0.04886778071522713,0.004734066314995289,-0.0029015245381742716
1761396941229252000,5.424252197265625,0.04153761267662048,0.004123218823224306,-0.009773556143045425
1761396941248629000,5.44362890625,0.0036650835536420345,0.0065666078589856625,-0.008551862090826035
1761396941268006000,5.463005859375,-0.026571854948997498,0.023823043331503868,-0.004734066314995289
1761396941287382800,5.4823828125,-0.01511846948415041,0.020616095513105392,-0.027946261689066887
1761396941306760000,5.501760009765625,-0.001374406274408102,0.02504473738372326,-0.02764083817601204
1761396941326136800,5.52113671875,-0.008246437646448612,0.03268032893538475,-0.0050394898280501366
1761396941345513700,5.540513671875,-0.006719320081174374,0.007024743594229221,-0.004275931045413017
1761396941364890600,5.559890625,-0.008857285603880882,-0.007941014133393764,-0.007941014133393764
1761396941384267500,5.579267578125,-0.011300674639642239,-0.015576604753732681,-0.010689826682209969
1761396941403644400,5.59864453125,-0.004581354558467865,0.0015271181473508477,-0.003970507066696882
1761396941423021600,5.618021484375,0.010689826682209969,0.012369656935334206,-0.001985253533348441
1761396941442398500,5.6373984375,0.010537114925682545,0.01695101149380207,-0.006413896102458239
1761396941461775400,5.656775390625,-0.0018325417768210173,0.013285927474498749,-0.0010689827613532543
1761396941481152300,5.67615234375,-0.009468132629990578,0.008399149402976036,0.008399149402976036
1761396941500529200,5.695529052734375,-0.012216945178806782,0.007482878863811493,-0.008246437646448612
1761396941519906000,5.714906005859375,0.002748812548816204,0.010995250195264816,-0.008246437646448612
1761396941539283000,5.734282958984375,0.010231691412627697,0.031153209507465363,-0.007941014133393764
1761396941558660000,5.75366015625,0.007177455350756645,0.02504473738372326,-0.006261184345930815
1761396941578037000,5.773037109375,-0.001985253533348441,0.008551862090826035,-0.014049487188458443
1761396941597414000,5.792413818359375,-0.013133215717971325,0.00030542362947016954,-0.012827792204916477
1761396941616790800,5.811790771484375,-0.023364907130599022,-0.02367033064365387,0.016492875292897224
1761396941636167700,5.831167724609375,-0.012369656935334206,-0.014202198944985867,0.01954711228609085
1761396941655544600,5.850544677734375,-0.00916270911693573,0.013591351918876171,0.017409147694706917
1761396941674921700,5.869921630859375,-0.009009997360408306,0.020157959312200546,0.03008422814309597
1761396941694298600,5.889298583984375,-0.013896775431931019,-0.007482878863811493,0.020463382825255394
1761396941713675500,5.908675537109375,-0.0010689827613532543,-0.02244863659143448,0.01832541823387146
1761396941733052400,5.928052490234375,0.0328330397605896,0.0030542362947016954,0.02764083817601204
1761396941752429300,5.94742919921875,0.07574506103992462,0.013285927474498749,-0.0007635590736754239
1761396941771806200,5.96680615234375,0.05405998229980469,-0.012980503961443901,-0.025197450071573257
1761396941791183400,5.986183349609375,-0.009009997360408306,-0.038636088371276855,0.0022906772792339325
1761396941810560300,6.005560302734375,-0.03802524134516716,-0.0725381150841713,0.03634541109204292
1761396941829937200,6.024937255859375,-0.026877280324697495,-0.05512896552681923,0.07528692483901978
1761396941849314000,6.04431396484375,0.015576604753732681,0.029320668429136276,0.06978929787874222
1761396941868691000,6.06369091796875,-0.00030542362947016954,0.049173206090927124,0.08032641559839249
1761396941888067800,6.08306787109375,-0.05008947476744652,-0.008704573847353458,0.08948912471532822
1761396941907444700,6.10244482421875,-0.017409147694706917,0.007330167107284069,0.03771981969475746
1761396941926822000,6.12182177734375,0.008857285603880882,0.036192700266838074,-0.04856235533952713
1761396941946198800,6.14119873046875,0.0015271181473508477,0.003970507066696882,-0.06826218217611313
1761396941965575700,6.16057568359375,-0.036192700266838074,0.007482878863811493,0.012369656935334206
1761396941984952600,6.17995263671875,-0.023212196305394173,0.009620844386518002,0.04199574887752533
1761396942004329500,6.19932958984375,0.010842538438737392,0.0390942245721817,0.04184303805232048
1761396942023706400,6.218706298828125,0.024433890357613564,0.014965757727622986,0.055739812552928925
1761396942043083500,6.23808349609375,0.04077405482530594,-0.04413371533155441,0.008093725889921188
1761396942062460400,6.25746044921875,0.030847785994410515,-0.06688777357339859,-0.030847785994410515
1761396942081837300,6.27683740234375,-0.0012216945178806782,-0.03145863488316536,-0.015576604753732681
1761396942101214200,6.296214111328125,-0.006108472589403391,0.0012216945178806782,0.006261184345930815
1761396942120591000,6.315591064453125,-0.03634541109204292,0.016645587980747223,-0.009468132629990578
1761396942139968000,6.334968017578125,-0.07666133344173431,0.0068720318377017975,-0.0018325417768210173
1761396942159345000,6.354344970703125,-0.0791047215461731,0.04886778071522713,0.005955760832875967
1761396942178722000,6.37372216796875,-0.06520794332027435,0.043981000781059265,-0.018783552572131157
1761396942198099000,6.393098876953125,-0.091932512819767,0.03023693896830082,-0.0390942245721817
1761396942217475800,6.412475830078125,-0.07620319724082947,0.018783552572131157,-0.033596597611904144
1761396942236852700,6.431852783203125,0.001985253533348441,0.0198525357991457,-0.021532366052269936
1761396942256229600,6.451229736328125,0.06413896381855011,0.02473931387066841,0.0030542362947016954
1761396942275606500,6.4706064453125,0.06780404597520828,0.0006108472589403391,0.0397050715982914
1761396942294983700,6.489983642578125,0.011300674639642239,-0.008551862090826035,0.05008947476744652
1761396942314360600,6.509360595703125,-0.012216945178806782,-0.03237490355968475,0.021685076877474785
1761396942333737500,6.528737548828125,-0.00916270911693573,-0.08857285231351852,-0.05085303261876106
1761396942353114400,6.5481142578125,-0.043981000781059265,-0.10369132459163666,-0.07467607408761978
1761396942372491300,6.5674912109375,-0.05482354015111923,-0.04825693368911743,-0.0647498071193695
1761396942391868200,6.5868681640625,-0.06704048812389374,-0.0032069480512291193,-0.037567105144262314
1761396942411245000,6.6062451171875,-0.0528382882475853,0.05497625470161438,0.01954711228609085
1761396942430622200,6.625622314453125,-0.004581354558467865,0.060932014137506485,0.033443886786699295
1761396942449999000,6.6449990234375,0.011911521665751934,-0.0035123717971146107,-0.00015271181473508477
1761396942469376000,6.6643759765625,0.026724567636847496,-0.04062134400010109,-0.007635590620338917
1761396942488753000,6.6837529296875,0.05405998229980469,-0.018783552572131157,-0.01252236869186163
1761396942508129800,6.7031298828125,0.051463883370161057,-0.010842538438737392,-0.02641914412379265
1761396942527506700,6.722506591796875,-0.020463382825255394,-0.01252236869186163,-0.01038440316915512
1761396942546883800,6.7418837890625,-0.05803048983216286,-0.0012216945178806782,0.0015271181473508477
1761396942566260700,6.7612607421875,-0.02214321307837963,0.029626091942191124,-0.020310672000050545
1761396942585637600,6.7806376953125,0.009773556143045425,0.04291202127933502,-0.004734066314995289
1761396942605014500,6.8000146484375,0.0016798300202935934,0.01511846948415041,0.025655584409832954
1761396942624391400,6.819391357421875,0.004428642801940441,-0.02244863659143448,0.027793550863862038
1761396942643768300,6.838768310546875,0.012064233422279358,-0.024433890357613564,0.01175880990922451
1761396942663145200,6.858145263671875,-0.0022906772792339325,-0.031916771084070206,-0.008246437646448612
1761396942682522400,6.8775224609375,-0.016492875292897224,-0.02092151902616024,-0.02764083817601204
1761396942701899300,6.896899169921875,0.0016798300202935934,0.010231691412627697,-0.02107422985136509
1761396942721276200,6.916276123046875,0.024586603045463562,0.018019994720816612,-0.017714571207761765
1761396942740653000,6.935653076171875,0.0068720318377017975,-0.0068720318377017975,0.010537114925682545
1761396942760030000,6.955030029296875,0.009620844386518002,-0.009009997360408306,0.029473381116986275
1761396942779406800,6.97440673828125,0.020463382825255394,-0.0006108472589403391,-0.0038177953101694584
1761396942798784000,6.993783935546875,0.006108472589403391,-0.025350160896778107,-0.031916771084070206
1761396942818161000,7.013160888671875,0.0024433890357613564,-0.04169032722711563,-0.036039989441633224
1761396942837537800,7.032537841796875,0.03802524134516716,-0.00519220158457756,-0.028251685202121735
1761396942856914700,7.051914794921875,0.05894676223397255,0.007941014133393764,-0.0035123717971146107
1761396942876291600,7.07129150390625,0.03436015918850899,-0.005803049076348543,0.022906772792339325
1761396942895668500,7.09066845703125,-0.009620844386518002,-0.021685076877474785,0.012064233422279358
1761396942915045400,7.11004541015625,-0.0030542362947016954,-0.020310672000050545,-0.014660334214568138
1761396942934422500,7.129422607421875,0.004734066314995289,-0.0016798300202935934,-0.02367033064365387
1761396942953799400,7.14879931640625,-0.01435491070151329,0.014202198944985867,-0.0029015245381742716
1761396942973176300,7.16817626953125,-0.016798298805952072,0.011606098152697086,0.017409147694706917
1761396942992553200,7.18755322265625,-0.0009162708884105086,0.027182703837752342,0.014660334214568138
1761396943011930000,7.20693017578125,-0.014049487188458443,0.022601349279284477,0.014049487188458443
1761396943031307000,7.22630712890625,-0.02244863659143448,-0.0012216945178806782,0.017714571207761765
1761396943050684000,7.245683837890625,-0.016798298805952072,0.00916270911693573,0.0035123717971146107
1761396943070061000,7.26506103515625,-0.025197450071573257,0.03588727489113808,-0.015271181240677834
1761396943089438000,7.28443798828125,-0.04016320779919624,0.04825693368911743,-0.014660334214568138
1761396943108814800,7.30381494140625,-0.04321744292974472,0.03573456406593323,-0.011606098152697086
1761396943128191700,7.323191650390625,-0.031916771084070206,0.032222192734479904,-0.015576604753732681
1761396943147568600,7.342568603515625,-0.033596597611904144,0.01969982497394085,-0.011300674639642239
1761396943166945500,7.361945556640625,-0.03695625811815262,0.01847812905907631,-0.01588202826678753
1761396943186322400,7.381322509765625,-0.023364907130599022,0.021837789565324783,-0.03573456406593323
1761396943205699600,7.400699462890625,-0.017409147694706917,0.034665580838918686,-0.04153761267662048
1761396943225076500,7.420076416015625,-0.01511846948415041,0.021532366052269936,-0.031916771084070206
1761396943244453400,7.439453369140625,-0.01038440316915512,0.021226942539215088,0.007177455350756645
1761396943263830300,7.458830322265625,0.0035123717971146107,0.027182703837752342,0.03649812191724777
1761396943283207200,7.478207275390625,0.0065666078589856625,0.017867282032966614,0.03130592033267021
1761396943302584000,7.497583984375,0.0065666078589856625,0.006413896102458239,0.025655584409832954
1761396943321961200,7.516961181640625,-0.0015271181473508477,0.011606098152697086,0.001985253533348441
1761396943341338000,7.536338134765625,-0.026724567636847496,0.0010689827613532543,-0.020005248486995697
1761396943360715000,7.555715087890625,-0.03680354729294777,0.0024433890357613564,-0.02764083817601204
1761396943380092000,7.575091796875,-0.027029991149902344,0.021990500390529633,-0.03451287001371384
1761396943399468800,7.59446875,-0.01969982497394085,0.02504473738372326,-0.028251685202121735
1761396943418845700,7.613845703125,-0.02473931387066841,0.013133215717971325,0.001985253533348441
1761396943438222600,7.63322265625,-0.016340164467692375,0.01832541823387146,0.02351761981844902
1761396943457599700,7.652599853515625,0.010842538438737392,0.007941014133393764,0.023212196305394173
1761396943476976600,7.6719765625,0.0198525357991457,0.00015271181473508477,0.009620844386518002
1761396943496353500,7.691353515625,0.006719320081174374,-0.012827792204916477,-0.013133215717971325
1761396943515730400,7.71073046875,0.010537114925682545,-0.005803049076348543,-0.04459185153245926
1761396943535107300,7.730107421875,0.02626643143594265,0.007330167107284069,-0.05787777900695801
1761396943554484200,7.749484130859375,0.05467082932591438,0.009620844386518002,-0.055892523378133774
1761396943573861000,7.768861083984375,0.08735115826129913,0.02748812735080719,-0.03390202298760414
1761396943593238300,7.78823828125,0.12629267573356628,0.05925218388438225,0.018936265259981155
1761396943612615200,7.807615234375,0.09941539168357849,0.0656660795211792,0.07803573459386826
1761396943631992000,7.826991943359375,0.012216945178806782,0.028404397889971733,0.07238540053367615
1761396943651369000,7.846368896484375,-0.04932591691613197,-0.01572931744158268,0.013896775431931019
1761396943670745900,7.865745849609375,-0.04688252881169319,-0.0009162708884105086,-0.05329642444849014
1761396943690122800,7.885122802734375,-0.020005248486995697,0.02870982140302658,-0.07971556484699249
1761396943709499600,7.904499755859375,-0.031000498682260513,0.032222192734479904,-0.0844496339559555
1761396943728876800,7.923876708984375,-0.046729814261198044,0.018019994720816612,-0.07024743407964706
1761396943748253700,7.943253662109375,-0.04550812020897865,-0.014049487188458443,-0.019394399598240852
1761396943767630600,7.962630615234375,-0.009620844386518002,-0.004428642801940441,0.026877280324697495
1761396943787007500,7.982007568359375,0.02092151902616024,-0.0030542362947016954,0.06276455521583557
1761396943806384400,8.00138427734375,0.033291175961494446,-0.02733541466295719,0.08857285231351852
1761396943825761300,8.02076123046875,0.0325276181101799,-0.009315420873463154,0.0791047215461731
1761396943845138400,8.040138427734375,0.01954711228609085,-0.0029015245381742716,0.04077405482530594
1761396943864515300,8.059515380859375,0.0050394898280501366,-0.009315420873463154,-0.00015271181473508477
1761396943883892200,8.078892333984374,-0.014507622458040714,-0.017867282032966614,-0.0393996499478817
1761396943903269000,8.09826904296875,-0.008399149402976036,-0.02214321307837963,-0.04031591862440109
1761396943922646000,8.11764599609375,0.015271181240677834,0.004428642801940441,-0.0007635590736754239
1761396943942023000,8.13702294921875,0.013591351918876171,0.017714571207761765,0.02764083817601204
1761396943961399800,8.15639990234375,0.010078979656100273,-0.0012216945178806782,0.04459185153245926
1761396943980777000,8.17577685546875,0.022601349279284477,-0.010231691412627697,0.04611896723508835
1761396944000153900,8.19515380859375,0.03802524134516716,-0.012369656935334206,0.012216945178806782
1761396944019530800,8.21453076171875,0.05008947476744652,-0.014813045971095562,-0.017714571207761765
1761396944038907600,8.23390771484375,0.049020491540431976,-0.016340164467692375,-0.032222192734479904
1761396944058284500,8.253284423828125,0.0261137206107378,-0.025350160896778107,-0.038788799196481705
1761396944077661400,8.272661376953126,-0.017409147694706917,-0.02733541466295719,-0.021226942539215088
1761396944097038600,8.29203857421875,-0.024433890357613564,0.0012216945178806782,0.009315420873463154
1761396944116415500,8.31141552734375,0.00519220158457756,0.03787253051996231,0.020157959312200546
1761396944135792400,8.33079248046875,-0.005955760832875967,0.012216945178806782,0.024433890357613564
1761396944155169300,8.350169189453124,-0.01954711228609085,-0.0331384651362896,0.029320668429136276
1761396944174546200,8.369546142578125,0.016645587980747223,-0.021532366052269936,-0.0018325417768210173
1761396944193923000,8.388923095703126,0.020005248486995697,-0.011453386396169662,-0.0397050715982914
1761396944213300000,8.408300048828124,-0.018936265259981155,-0.019088976085186005,-0.031153209507465363
1761396944232677000,8.427677001953125,-0.02504473738372326,0.00519220158457756,-0.0007635590736754239
1761396944252054000,8.447053955078125,-0.004886778071522713,0.03420744836330414,0.004734066314995289
1761396944271431000,8.466430908203124,-0.003970507066696882,0.02367033064365387,-0.001374406274408102
1761396944290807800,8.485807861328125,-0.01038440316915512,-0.006413896102458239,-0.01252236869186163
1761396944310184700,8.505184814453125,-0.0009162708884105086,-0.017409147694706917,-0.024281177669763565
1761396944329561600,8.5245615234375,0.012827792204916477,-0.004886778071522713,-0.015576604753732681
1761396944348938500,8.5439384765625,0.01435491070151329,0.013896775431931019,0.004734066314995289
1761396944368315600,8.563315673828125,0.0004581354442052543,0.016645587980747223,0.028251685202121735
1761396944387692500,8.582692626953126,-0.018783552572131157,0.0012216945178806782,0.026571854948997498
1761396944407069400,8.6020693359375,-0.028251685202121735,-0.006719320081174374,0.001985253533348441
1761396944426446300,8.6214462890625,-0.019241688773036003,-0.006719320081174374,-0.020310672000050545
1761396944445823200,8.6408232421875,0.0035123717971146107,0.0016798300202935934,-0.023364907130599022
1761396944465200000,8.6602001953125,0.011606098152697086,0.016645587980747223,-0.009773556143045425
1761396944484577300,8.679577392578125,-0.004581354558467865,0.008551862090826035,0.0016798300202935934
1761396944503954200,8.6989541015625,-0.015576604753732681,-0.00259610079228878,0.001985253533348441
1761396944523331000,8.7183310546875,-0.013133215717971325,-0.00519220158457756,-0.0036650835536420345
1761396944542708000,8.7377080078125,-0.021837789565324783,-0.002748812548816204,0.010842538438737392
1761396944562084900,8.7570849609375,-0.0007635590736754239,0.001374406274408102,0.025350160896778107
1761396944581461800,8.776461669921876,0.013744063675403595,0.018630841746926308,0.001374406274408102
1761396944600838700,8.795838623046874,0.0035123717971146107,0.01175880990922451,-0.03680354729294777
1761396944620215800,8.8152158203125,-0.023823043331503868,0,-0.06123743951320648
1761396944639592700,8.8345927734375,-0.025197450071573257,-0.010078979656100273,-0.05024218559265137
1761396944658969600,8.853969482421874,-0.007330167107284069,0.017867282032966614,-0.0032069480512291193
1761396944678346500,8.873346435546875,0.0010689827613532543,0.018783552572131157,0.033443886786699295
1761396944697723400,8.892723388671875,0.009315420873463154,0.004886778071522713,0.03649812191724777
1761396944717100300,8.912100341796876,0.014202198944985867,0.005955760832875967,0.014049487188458443
1761396944736477400,8.9314775390625,0.005497625097632408,0.004275931045413017,-0.0010689827613532543
1761396944755854300,8.950854248046875,0.008857285603880882,-0.0009162708884105086,-0.021837789565324783
1761396944775231200,8.970231201171876,0.03436015918850899,0.014507622458040714,-0.02886253222823143
1761396944794608000,8.989608154296874,0.05726693198084831,0.031916771084070206,-0.0198525357991457
1761396944813985000,9.008985107421875,0.0647498071193695,0.02993151545524597,-0.004428642801940441
1761396944833362000,9.02836181640625,0.033596597611904144,-0.010842538438737392,0.0035123717971146107
1761396944852738800,9.04773876953125,-0.0021379655227065086,0.021532366052269936,0.014965757727622986
1761396944872116000,9.067115966796875,0.010231691412627697,0.04993676394224167,-0.0035123717971146107
1761396944891492900,9.086492919921875,-0.0068720318377017975,0.04734066128730774,-0.0038177953101694584
1761396944910869800,9.105869873046874,-0.023212196305394173,0.016492875292897224,-0.006108472589403391
1761396944930246700,9.12524658203125,-0.005344913341104984,0.0007635590736754239,-0.04611896723508835
1761396944949623600,9.14462353515625,0.004886778071522713,-0.029320668429136276,-0.08139539510011673
1761396944969000400,9.16400048828125,-0.004275931045413017,-0.009773556143045425,-0.06642963737249374
1761396944988377600,9.183377685546875,-0.00519220158457756,0.02107422985136509,-0.010995250195264816
1761396945007754500,9.20275439453125,-0.03268032893538475,0.013591351918876171,0.012369656935334206
1761396945027131400,9.22213134765625,-0.03665083646774292,0.012980503961443901,0.00259610079228878
1761396945046508300,9.24150830078125,-0.03298575058579445,0.013285927474498749,0.0032069480512291193
1761396945065885200,9.26088525390625,-0.03237490355968475,-0.0030542362947016954,0.004428642801940441
1761396945085262000,9.280261962890625,-0.027793550863862038,0.022906772792339325,-0.002748812548816204
1761396945104639000,9.299638916015626,-0.01435491070151329,0.05864133685827255,0.021532366052269936
1761396945124016000,9.31901611328125,-0.015271181240677834,0.03268032893538475,0.06184828653931618
1761396945143393000,9.33839306640625,-0.059710320085287094,0.003359660040587187,0.0647498071193695
1761396945162770000,9.35777001953125,-0.08857285231351852,-0.016798298805952072,0.09345962852239609
1761396945182146800,9.377146728515624,-0.08154810965061188,-0.017867282032966614,0.0859767496585846
1761396945201523700,9.396523681640625,-0.04352286830544472,0.014202198944985867,0.041384901851415634
1761396945220900600,9.415900634765626,-0.002748812548816204,0.046424392610788345,0.02107422985136509
1761396945240277500,9.435277587890624,0.023059483617544174,0.04306473210453987,0.00519220158457756
1761396945259654700,9.454654541015625,0.0030542362947016954,0.021379653364419937,-0.008246437646448612
1761396945279031600,9.474031494140625,-0.03420744836330414,-0.014965757727622986,-0.0024433890357613564
1761396945298408400,9.493408447265624,-0.01710372418165207,0.005955760832875967,-0.02092151902616024
1761396945317785300,9.512785400390625,0.008704573847353458,0.023975754156708717,-0.027029991149902344
1761396945337162200,9.532162353515625,0.01817270554602146,0.011453386396169662,-0.022601349279284477
1761396945356539100,9.5515390625,-0.002748812548816204,-0.018783552572131157,-0.023975754156708717
1761396945375916300,9.570916259765625,0.0009162708884105086,-0.0010689827613532543,-0.017714571207761765
1761396945395293200,9.590293212890625,0.03588727489113808,0.03176405653357506,-0.00992626789957285
1761396945414670000,9.609670166015626,0.020616095513105392,0.019394399598240852,-0.018019994720816612
1761396945434047000,9.629046875,-0.020310672000050545,0.0018325417768210173,-0.02764083817601204
1761396945453423900,9.648423828125,-0.012369656935334206,-0.005650337319821119,-0.04856235533952713
1761396945472800800,9.66780078125,0.010537114925682545,0.006108472589403391,-0.03436015918850899
1761396945492177700,9.687177734375,-0.00519220158457756,0.002748812548816204,0.00015271181473508477
1761396945511554800,9.706554931640625,-0.00519220158457756,0.0198525357991457,0.020157959312200546
1761396945530931700,9.725931640625,0.02473931387066841,0.029626091942191124,0.016798298805952072
1761396945550308600,9.74530859375,0.02733541466295719,-0.029778804630041122,0.008704573847353458
1761396945569685500,9.764685546875,0.010842538438737392,-0.047951508313417435,-0.016645587980747223
1761396945589062400,9.7840625,0.017561858519911766,0.008551862090826035,-0.04306473210453987
1761396945608439300,9.803439208984376,0.03558185324072838,0.04092676565051079,-0.029626091942191124
1761396945627816200,9.822816162109374,0.018019994720816612,0.022754060104489326,0.00015271181473508477
1761396945647193000,9.842193115234375,-0.028557108715176582,-0.008551862090826035,0.013896775431931019
1761396945666570200,9.8615703125,-0.03833066672086716,-0.02489202655851841,-0.010995250195264816
1761396945685947100,9.880947021484374,0.008704573847353458,0,-0.041232191026210785
1761396945705324000,9.900323974609375,0.02733541466295719,0.005650337319821119,-0.031000498682260513
1761396945724701000,9.919700927734375,0.011147962883114815,-0.0016798300202935934,0.012369656935334206
1761396945744077800,9.939077880859376,-0.007788302376866341,-0.0050394898280501366,0.030695075169205666
1761396945763454700,9.958454833984375,-0.01175880990922451,-0.004428642801940441,0.015271181240677834
1761396945782831900,9.977831787109375,-0.00259610079228878,0.01832541823387146,-0.021990500390529633
1761396945802208800,9.997208740234376,0.005650337319821119,0.022754060104489326,-0.03527642786502838
1761396945821585700,10.016585693359374,0.004734066314995289,0.008704573847353458,-0.029167955741286278
1761396945840962600,10.035962646484375,-0.015271181240677834,-0.0024433890357613564,-0.025808297097682953
1761396945860339500,10.05533935546875,-0.04016320779919624,-0.016187451779842377,0.0009162708884105086
1761396945879716400,10.07471630859375,-0.02641914412379265,-0.0009162708884105086,0.01175880990922451
1761396945899093200,10.09409326171875,0.03237490355968475,0.06826218217611313,-0.02901524491608143
1761396945918470400,10.113470458984375,0.03558185324072838,0.1698155403137207,-0.0662769302725792
1761396945957224200,10.15222412109375,-0.14064757525920868,-0.0029015245381742716,0.06749862432479858
1761396945976601000,10.17160107421875,-0.01832541823387146,0.03436015918850899,0.009468132629990578
1761396945995978000,10.19097802734375,0.07528692483901978,0.1360662281513214,-0.02214321307837963
1761396946015355000,10.21035498046875,0.1388150453567505,0.0713164210319519,-0.00030542362947016954
1761396946034731800,10.229731689453125,0.06032116711139679,0.011453386396169662,0.04092676565051079
