time,seconds_elapsed,z,y,x
1761396642379571500,0.149571533203125,9.142974853515625,3.556332588195801,-0.40797626972198486
1761396642398948600,0.168948486328125,9.19442081451416,3.6023945808410645,-0.30628129839897156
1761396642418326000,0.188325927734375,9.33021354675293,3.641875982284546,-0.24646073579788208
1761396642437703200,0.207703125,9.296713829040527,3.5395829677581787,-0.24646073579788208
1761396642457080300,0.227080322265625,9.367900848388672,3.476771354675293,-0.3200400173664093
1761396642476457500,0.24645751953125,9.67777156829834,3.5359935760498047,-0.2919243574142456
1761396642495834600,0.265834716796875,9.346364974975586,3.6053855419158936,-0.3116651475429535
1761396642515212000,0.2852119140625,8.802596092224121,3.607778310775757,-0.32123643159866333
1761396642534589200,0.304589111328125,8.62612533569336,3.4504501819610596,-0.27038896083831787
1761396642553966300,0.32396630859375,8.915657043457031,3.4139597415924072,-0.33379876613616943
1761396642573343700,0.34334375,9.354740142822266,3.648456335067749,-0.37866419553756714
1761396642592721000,0.362720947265625,9.4660062789917,3.6161532402038574,-0.2111666053533554
1761396642612098000,0.38209814453125,9.596415519714355,3.332005500793457,-0.1537388563156128
1761396642631475200,0.40147509765625,9.275178909301758,3.339782238006592,-0.22073788940906525
1761396642650852600,0.4208525390625,8.788239479064941,3.545564889907837,-0.2315055876970291
1761396642670229800,0.440229736328125,8.888139724731445,3.655634880065918,-0.32303106784820557
1761396642689607000,0.45960693359375,8.946166038513184,3.6191442012786865,-0.4001995921134949
1761396642708984000,0.478984130859375,8.955737113952637,3.6394832134246826,-0.41096729040145874
1761396642728361500,0.498361572265625,9.032905578613281,3.699902057647705,-0.28654050827026367
1761396642747738600,0.517738525390625,9.299705505371094,3.6747772693634033,-0.0687936544418335
1761396642767115800,0.53711572265625,9.632905960083008,3.7423746585845947,-0.016749758273363113
1761396642786493200,0.5564931640625,9.877572059631348,3.88594388961792,-0.18963119387626648
1761396642805870300,0.575870361328125,9.811769485473633,3.812962770462036,-0.12083754688501358
1761396642825247500,0.59524755859375,10.098908424377441,3.9948174953460693,0.3517449200153351
1761396642844624600,0.614624755859375,9.382257461547852,4.066003799438477,0.6352944374084473
1761396642864002000,0.634001953125,8.571090698242188,3.583850145339966,0.8380861282348633
1761396642883379200,0.653379150390625,9.712467193603516,3.964907169342041,-0.029312077909708023
1761396642902756400,0.67275634765625,8.925228118896484,3.7531423568725586,0.22492532432079315
1761396642922133500,0.692133544921875,9.34277629852295,2.5250260829925537,1.4620146751403809
1761396642941511000,0.711510986328125,9.81535816192627,3.2309088706970215,0.8171489238739014
1761396642960888000,0.73088818359375,7.909475326538086,3.6089746952056885,1.3010972738265991
1761396642980265200,0.75026513671875,5.946762561798096,3.9672999382019043,1.7102699279785156
1761396642999629000,0.769629150390625,5.267200946807861,3.132802963256836,2.118844509124756
1761396643019019800,0.789019775390625,7.066603660583496,2.352144718170166,2.802593469619751
1761396643038397000,0.80839697265625,9.215956687927246,2.595614433288574,2.5525436401367188
1761396643057760800,0.8277607421875,9.242876052856445,2.912663459777832,3.8638103008270264
1761396643077151200,0.847151123046875,9.46899700164795,2.5298118591308594,5.32403039932251
1761396643096528600,0.866528564453125,10.240084648132324,3.004786968231201,3.3511481285095215
1761396643115892200,0.885892333984375,11.646466255187988,3.008974552154541,1.2735798358917236
1761396643135283000,0.905282958984375,9.515657424926758,3.33858585357666,0.41874396800994873
1761396643154660400,0.924660400390625,5.108676433563232,4.190430641174316,0.7393822073936462
1761396643174024000,0.94402392578125,5.9509501457214355,5.149952411651611,1.358525037765503
1761396643193414700,0.96341455078125,7.2951178550720215,5.151148796081543,2.2085752487182617
1761396643212791800,0.982791748046875,6.956533432006836,4.649254322052002,1.5643078088760376
1761396643232155600,1.00215576171875,6.096911907196045,5.896512985229492,-0.9080761671066284
1761396643251546400,1.02154638671875,5.568098068237305,5.7511491775512695,-2.6877379417419434
1761396643270923500,1.040923583984375,7.685746192932129,4.900500774383545,-1.0301101207733154
1761396643290287400,1.060287353515625,8.483752250671387,4.905884742736816,1.262213945388794
1761396643309678000,1.079677978515625,11.025528907775879,5.738586902618408,1.0151549577713013
1761396643329055200,1.09905517578125,16.27358627319336,5.4526448249816895,2.5609183311462402
1761396643348419000,1.118419189453125,18.699909210205078,5.037489891052246,1.2735798358917236
1761396643367809800,1.137809814453125,18.311674118041992,5.2145586013793945,-0.6478567123413086
1761396643387187000,1.15718701171875,19.29631996154785,5.14157772064209,0.8045865893363953
1761396643406550500,1.176550537109375,19.767107009887695,4.566701889038086,2.5591237545013428
1761396643425941200,1.195941162109375,21.830917358398438,3.8608193397521973,1.6205391883850098
1761396643445318700,1.215318603515625,21.729820251464844,2.3330020904541016,1.9782661199569702
1761396643464682200,1.23468212890625,15.29611873626709,2.2031915187835693,2.3407788276672363
1761396643484073000,1.254072998046875,6.7902326583862305,3.424727439880371,3.9529430866241455
1761396643503450000,1.2734501953125,2.08713960647583,4.837090969085693,5.058426856994629
1761396643522814000,1.29281396484375,-0.006580262444913387,5.338985443115234,4.144967079162598
1761396643542204700,1.31220458984375,-1.2975081205368042,4.782055854797363,2.427518606185913
1761396643561581800,1.331581787109375,-2.6045875549316406,3.5814573764801025,-0.07836493849754333
1761396643580945700,1.350945556640625,-1.841277003288269,2.5052852630615234,-0.8111668825149536
1761396643600336400,1.37033642578125,0.4498506486415863,2.0033907890319824,-0.8057830333709717
1761396643619713500,1.389713623046875,2.1684954166412354,1.5272190570831299,-1.0109676122665405
1761396643639090700,1.409090576171875,2.6769702434539795,1.5134602785110474,-1.6977076530456543
1761396643658468000,1.428468017578125,2.1343977451324463,1.612762451171875,-1.8089739084243774
1761396643677845200,1.44784521484375,0.6717849373817444,1.0791629552841187,-1.1563315391540527
1761396643697208800,1.467208740234375,-1.0977073907852173,0.5611169338226318,-0.2913261651992798
1761396643716599600,1.486599609375,-1.4602199792861938,0.3032902777194977,1.6103696823120117
1761396643735976700,1.505976806640625,-1.841277003288269,0.1423729509115219,2.2438695430755615
1761396643755354000,1.52535400390625,-2.1876380443573,0.50907301902771,0.511465847492218
1761396643774731300,1.544731201171875,0.9224331378936768,1.9184455871582031,-1.0139585733413696
1761396643794108400,1.5641083984375,7.528418064117432,4.189234256744385,0.5144568681716919
1761396643813472300,1.58347216796875,20.018953323364258,8.193622589111328,3.892524242401123
1761396643832863000,1.602863037109375,33.7818717956543,11.091331481933594,6.87517786026001
1761396643852240100,1.622240234375,37.09114456176758,10.807183265686035,9.81117057800293
1761396643871604000,1.64160400390625,35.27439498901367,9.65803050994873,9.355937004089355
1761396643890994700,1.66099462890625,31.26761245727539,8.341978073120117,3.8865420818328857
1761396643910371800,1.680371826171875,23.635704040527344,7.676175117492676,-1.46500563621521
1761396643929735400,1.6997353515625,14.257634162902832,7.554739475250244,-3.82373046875
1761396643949126100,1.719126220703125,8.778668403625488,6.751348972320557,-3.8530426025390625
1761396643968503600,1.738503662109375,6.463014125823975,5.523830890655518,-1.6510475873947144
1761396643987867100,1.7578671875,3.191427230834961,4.435695171356201,0.8165507316589355
1761396644007257900,1.7772578125,-0.7974081635475159,2.754737138748169,2.6470601558685303
1761396644026635000,1.796635009765625,-3.3003005981445312,0.7734799385070801,4.164707660675049
1761396644045998800,1.815998779296875,-5.188836097717285,-0.6652047038078308,4.6372904777526855
1761396644065389600,1.8353896484375,-6.722036838531494,-1.6061822175979614,3.300898790359497
1761396644084766700,1.8547666015625,-7.21316385269165,-1.8873388767242432,1.4793626070022583
1761396644104130600,1.874130615234375,-6.665805816650391,-1.3148560523986816,-0.3810569941997528
1761396644123521300,1.893521240234375,-5.624329566955566,-0.7794619798660278,-1.1228320598602295
1761396644142898400,1.9128984375,-3.8943188190460205,-0.07417750358581543,-1.8999011516571045
1761396644162262000,1.932261962890625,-1.022931694984436,1.731805443763733,-2.8791637420654297
1761396644181653000,1.951653076171875,5.885745525360107,5.993422508239746,-2.8833513259887695
1761396644201030100,1.971030029296875,19.00977897644043,13.051651000976562,-4.6785664558410645
1761396644220393700,1.990393798828125,32.79423141479492,16.05583953857422,1.4350954294204712
1761396644239784400,2.009784423828125,38.70330810546875,13.86221981048584,7.448856830596924
1761396644259161600,2.02916162109375,37.839500427246094,11.391630172729492,5.279164791107178
1761396644278525400,2.048525390625,31.334609985351562,9.17707347869873,-0.5724828243255615
1761396644297916200,2.067916259765625,22.146770477294922,8.280961036682129,-4.203591346740723
1761396644317293300,2.087293212890625,13.63729476928711,6.597609996795654,-3.6293137073516846
1761396644336657200,2.1066572265625,7.071389198303223,4.594817638397217,-1.5541383028030396
1761396644356048000,2.1260478515625,0.18723836541175842,3.1304101943969727,1.9692929983139038
1761396644375425000,2.145425048828125,-6.654439926147461,1.031306505203247,5.117649555206299
1761396644394788900,2.164788818359375,-10.381260871887207,-1.334596872329712,5.534000396728516
1761396644414179600,2.1841796875,-9.592825889587402,-3.1489546298980713,3.2165517807006836
1761396644433556700,2.203556640625,-7.082755088806152,-3.851846218109131,0.11006984114646912
1761396644452920300,2.22292041015625,-5.631507873535156,-3.36969256401062,-3.0275187492370605
1761396644472311000,2.24231103515625,-4.5445685386657715,-2.155334949493408,-4.843072891235352
1761396644491688400,2.2616884765625,-1.0049854516983032,-0.9523434042930603,-3.4755749702453613
1761396644511052000,2.281052001953125,3.6394832134246826,0.7860422134399414,-1.1288141012191772
1761396644530442800,2.30044287109375,4.504488468170166,4.31306266784668,0.2111666053533554
1761396644549820000,2.31981982421875,6.781857490539551,7.645068168640137,-0.5240281820297241
1761396644569183700,2.339183837890625,16.555341720581055,11.239686012268066,-2.2618155479431152
1761396644588574500,2.358574462890625,28.53441047668457,13.01216983795166,-0.7316055297851562
1761396644607951600,2.37795166015625,35.47479248046875,9.947562217712402,2.878565549850464
1761396644627315500,2.3973154296875,41.49094772338867,6.937989234924316,3.132802963256836
1761396644646706200,2.4167060546875,37.108489990234375,6.888936519622803,0.7040880918502808
1761396644666083300,2.436083251953125,22.027128219604492,7.882555961608887,0.19202402234077454
1761396644685447000,2.455447021484375,4.1491546630859375,8.242077827453613,1.8735800981521606
1761396644704837600,2.474837646484375,-8.74337387084961,7.397411346435547,1.892722725868225
1761396644724215000,2.494215087890625,-11.370095252990723,5.116453170776367,1.7665013074874878
1761396644743578600,2.51357861328125,-9.32004451751709,2.1774685382843018,2.063211441040039
1761396644762969300,2.53296923828125,-6.585047721862793,-0.5886343717575073,1.0103694200515747
1761396644782346500,2.552346435546875,-4.091128349304199,-1.5451651811599731,-1.9866410493850708
1761396644801710300,2.57171044921875,-2.15653133392334,-1.3926228284835815,-3.635295867919922
1761396644821101000,2.59110107421875,-2.0961127281188965,-0.6681957244873047,-3.022733211517334
1761396644840478200,2.610478271484375,-1.4051851034164429,-0.0323031060397625,-0.7040880918502808
1761396644859842000,2.629842041015625,0.9014959335327148,1.8346967697143555,0.9128618240356445
1761396644879232800,2.649232666015625,4.377070903778076,4.097708702087402,1.5493526458740234
1761396644898610000,2.66860986328125,11.68295669555664,6.257829189300537,1.8711873292922974
1761396644917973500,2.687973388671875,21.54497528076172,8.85643482208252,2.386840581893921
1761396644937364200,2.7073642578125,26.772693634033203,10.799407005310059,3.1411778926849365
1761396644956741600,2.72674169921875,23.300708770751953,12.673584938049316,0.9493523836135864
1761396644976105200,2.746105224609375,19.44228172302246,13.171890258789062,-0.39601215720176697
1761396644995496000,2.765495849609375,18.15135383605957,12.486347198486328,0.2147558331489563
1761396645014873000,2.784873046875,17.989839553833008,11.266605377197266,0.20937198400497437
1761396645034237000,2.80423681640625,16.306488037109375,9.88415241241455,-0.0849452018737793
1761396645053627600,2.823627685546875,10.813763618469238,7.852047443389893,0.3924229145050049
1761396645073004800,2.8430048828125,3.909274101257324,5.535196781158447,0.4821537733078003
1761396645092368600,2.86236865234375,-1.3968101739883423,2.953939437866211,1.0342975854873657
1761396645111759400,2.88175927734375,-3.970889091491699,0.4061816334724426,2.3126630783081055
1761396645131136500,2.901136474609375,-4.214957237243652,-1.6378871202468872,1.9304096698760986
1761396645150500000,2.9205,-2.733201742172241,-2.4987051486968994,-0.12143574655056
1761396645169890800,2.939890869140625,-1.4446666240692139,-2.6608188152313232,-0.9110672473907471
1761396645189268200,2.959268310546875,-1.7353945970535278,-1.9304096698760986,-1.3250255584716797
1761396645208645400,2.978645263671875,-3.067598581314087,-1.1270195245742798,-0.8656035661697388
1761396645228022500,2.9980224609375,-2.815753936767578,-0.20877377688884735,-0.37088751792907715
1761396645247399700,3.017399658203125,-0.26440688967704773,1.2945170402526855,-1.1778669357299805
1761396645266763500,3.036763427734375,4.023531436920166,3.2721848487854004,0.12502498924732208
1761396645286154200,3.056154296875,10.374082565307617,5.819344520568848,1.9513468742370605
1761396645305531400,3.075531494140625,16.846668243408203,9.596415519714355,-2.0751755237579346
1761396645324895200,3.094895263671875,20.60100746154785,12.317652702331543,-3.717249870300293
1761396645344286000,3.114285888671875,23.140987396240234,13.546367645263672,-0.35832518339157104
1761396645363663000,3.1336630859375,25.30948257446289,12.599407196044922,3.008974552154541
1761396645383026700,3.153026611328125,27.114269256591797,11.531610488891602,3.844667673110962
1761396645402417400,3.17241748046875,24.20758819580078,10.292128562927246,3.7561333179473877
1761396645421794800,3.191794921875,15.372689247131348,9.068798065185547,2.7768707275390625
1761396645441158400,3.211158447265625,6.952944278717041,7.758129119873047,2.5010979175567627
1761396645460549000,3.230549072265625,1.378864049911499,6.357729911804199,2.50289249420166
1761396645479926300,3.24992626953125,-1.607378602027893,4.256831645965576,2.7116663455963135
1761396645499290000,3.2692900390625,-3.4372897148132324,2.337787628173828,2.39401912689209
1761396645518680800,3.288680908203125,-5.096114158630371,1.0857433080673218,1.929213285446167
1761396645538058000,3.30805810546875,-5.437689304351807,0.617946445941925,1.189831018447876
1761396645557435100,3.32743505859375,-4.158725738525391,0.6071787476539612,0.3643072545528412
1761396645576812500,3.3468125,-2.823530673980713,0.6735795736312866,-0.09092725813388824
1761396645596189700,3.366189697265625,-1.3645070791244507,0.914058268070221,0.12382857501506805
1761396645615553300,3.38555322265625,-0.7100701332092285,2.1236300468444824,-0.9074779748916626
1761396645634944000,3.404944091796875,0.9337990283966064,4.056432723999023,-0.8620143532752991
1761396645654321400,3.4243212890625,8.279764175415039,7.076773166656494,2.083550214767456
1761396645673685000,3.44368505859375,19.520048141479492,10.801201820373535,4.395017147064209
1761396645693075700,3.46307568359375,26.961727142333984,13.12523078918457,6.781259536743164
1761396645712452900,3.482452880859375,29.681169509887695,12.592827796936035,11.870195388793945
1761396645731816700,3.501816650390625,28.642087936401367,10.687541961669922,13.432109832763672
1761396645751207400,3.52120751953125,24.869203567504883,8.944969177246094,8.705686569213867
1761396645770584600,3.54058447265625,19.38724708557129,7.486543655395508,3.7974095344543457
1761396645789948200,3.5599482421875,12.612567901611328,6.392425537109375,1.3549357652664185
1761396645809339100,3.579339111328125,6.300302028656006,5.699105262756348,-0.4217349886894226
1761396645828716300,3.59871630859375,1.8424733877182007,5.019543647766113,0.3858426511287689
1761396645848080000,3.618079833984375,-2.555534601211548,3.882952928543091,3.10109806060791
1761396645867470600,3.637470703125,-6.190232276916504,2.830111026763916,4.705485820770264
1761396645886847700,3.65684765625,-7.491927623748779,2.0991036891937256,3.786043643951416
1761396645906211600,3.676211669921875,-6.784250259399414,1.7198412418365479,1.2831511497497559
1761396645925602300,3.695602294921875,-4.610371112823486,1.7599210739135742,-1.1407781839370728
1761396645944979500,3.7149794921875,-2.9210381507873535,2.050050735473633,-2.3641088008880615
1761396645964343300,3.73434326171875,-1.7682958841323853,2.8396823406219482,-2.4287149906158447
1761396645983734000,3.753734130859375,1.0247262716293335,4.296313285827637,-1.1545369625091553
1761396646003111200,3.773111083984375,6.077171325683594,6.756732940673828,1.0295119285583496
1761396646022475000,3.79247509765625,13.265210151672363,9.376873970031738,5.578866004943848
1761396646041865500,3.811865478515625,20.742780685424805,13.379467964172363,6.939185619354248
1761396646061243000,3.831242919921875,23.39402961730957,16.556537628173828,1.6378871202468872
1761396646080606500,3.8506064453125,26.93181800842285,13.84367561340332,5.1218366622924805
1761396646099997200,3.8699970703125,25.007389068603516,9.66102123260498,10.737792015075684
1761396646119374300,3.889374267578125,18.605392456054688,6.2105712890625,11.69013500213623
1761396646138738200,3.90873828125,13.531412124633789,4.070191383361816,8.45743179321289
1761396646158129000,3.92812890625,13.734203338623047,2.466402053833008,3.259622573852539
1761396646177506000,3.947506103515625,15.122040748596191,1.6301103830337524,-1.8478572368621826
1761396646196870000,3.966869873046875,12.87936782836914,1.069591760635376,-3.2380871772766113
1761396646216260600,3.986260498046875,8.325826644897461,-0.5653043389320374,-0.5635097622871399
1761396646235637800,4.0056376953125,2.3084757328033447,-1.9974087476730347,1.3106685876846313
1761396646255001300,4.02500146484375,-3.692723512649536,-2.709273338317871,0.6681957244873047
1761396646274392000,4.04439208984375,-6.918846607208252,-2.5525436401367188,-0.6897311210632324
1761396646293769500,4.06376953125,-7.777870178222656,-2.270190477371216,-1.0671988725662231
1761396646313133000,4.083133056640625,-6.999006271362305,-1.8610178232192993,-0.729810893535614
1761396646332523800,4.102523681640625,-6.283552169799805,-1.3758729696273804,-0.8225327730178833
1761396646351901000,4.12190087890625,-5.696114540100098,-0.7812566161155701,-1.0666006803512573
1761396646371264800,4.1412646484375,-3.8285162448883057,0.2476571500301361,-1.999801516532898
1761396646390655500,4.160655517578125,-0.1094716340303421,2.0793628692626953,-4.910071849822998
1761396646410032600,4.18003271484375,4.5714874267578125,5.908477306365967,-5.260620594024658
1761396646429396500,4.199396484375,11.612966537475586,9.817152976989746,0.46480581164360046
1761396646448787200,4.218787109375,23.406591415405273,9.147162437438965,10.1216402053833
1761396646468164400,4.238164306640625,37.24009704589844,6.7621169090271,14.358132362365723
1761396646487528000,4.25752783203125,42.63291931152344,7.804789066314697,5.828916072845459
1761396646506918700,4.276918701171875,37.98187255859375,9.152546882629395,2.2606191635131836
1761396646526296000,4.296296142578125,19.755741119384766,9.110671997070312,3.84765887260437
1761396646545659600,4.31565966796875,1.40279221534729,8.474181175231934,2.469393014907837
1761396646565050400,4.33505029296875,-6.555736064910889,5.099104881286621,3.5330026149749756
1761396646584427500,4.354427490234375,-7.392625331878662,1.1904292106628418,2.266003131866455
1761396646603791400,4.373791259765625,-7.518248558044434,-1.832902193069458,-0.4743770956993103
1761396646623182000,4.39318212890625,-7.475177764892578,-3.3846476078033447,-2.0135602951049805
1761396646642559200,4.412559326171875,-7.790432453155518,-3.463012456893921,-2.3192434310913086
1761396646661922800,4.4319228515625,-9.068798065185547,-3.3966116905212402,-1.441077470779419
1761396646681313500,4.4513134765625,-9.407382011413574,-3.3206396102905273,-0.41216370463371277
1761396646700691000,4.47069091796875,-8.030911445617676,-3.0179476737976074,-0.21595224738121033
1761396646720054500,4.490054443359375,-4.586442947387695,-2.352144718170166,-0.6083751320838928
1761396646739445200,4.5094453125,2.3856441974639893,-0.8398807644844055,1.2616157531738281
1761396646758822400,4.528822509765625,15.411572456359863,0.638883650302887,6.062216281890869
1761396646778186200,4.548186279296875,30.92125129699707,2.0991036891937256,11.194222450256348
1761396646797577000,4.567576904296875,39.33501434326172,3.3511481285095215,16.208980560302734
1761396646816954000,4.5869541015625,45.05984115600586,3.483949661254883,14.721840858459473
1761396646836318000,4.60631787109375,45.771705627441406,2.815753936767578,15.112469673156738
1761396646855708700,4.625708740234375,39.634117126464844,3.2452657222747803,11.298908233642578
1761396646875085800,4.6450859375,30.012577056884766,3.748356580734253,6.116054534912109
1761396646894449400,4.664449462890625,19.144973754882812,3.941577196121216,4.5206403732299805
1761396646913840000,4.683840087890625,7.35613489151001,3.8907296657562256,4.510470867156982
1761396646933217300,4.70321728515625,-1.0923235416412354,3.246462106704712,5.196014404296875
1761396646952581000,4.7225810546875,-5.255236625671387,2.1260228157043457,4.983651161193848
1761396646971971800,4.741971923828125,-6.949355125427246,1.2813565731048584,2.7517459392547607
1761396646991349000,4.761348876953125,-8.672785758972168,0.776470959186554,-0.004785645287483931
1761396647010712800,4.780712890625,-9.665806770324707,0.18903298676013947,-1.1838489770889282
1761396647030103600,4.800103515625,-9.981060981750488,-0.02392822690308094,-1.0277173519134521
1761396647049480700,4.819480712890625,-10.317253112792969,-0.08733802288770676,-0.08793623000383377
1761396647068857900,4.83885791015625,-9.632308006286621,-0.026919255033135414,0.1501496136188507
1761396647088235000,4.858235107421875,-6.505486488342285,-0.357128769159317,-0.5982056856155396
1761396647107612400,4.8776123046875,-0.0891326442360878,1.3794622421264648,-0.9421738982200623
1761396647126976000,4.89697607421875,6.358926296234131,4.167698860168457,0.5940182209014893
1761396647146366700,4.91636669921875,15.150754928588867,7.1820573806762695,9.017352104187012
1761396647165743900,4.935743896484375,32.92763137817383,9.017950057983398,21.059829711914062
1761396647185107700,4.955107666015625,52.04329299926758,7.550551891326904,27.37269401550293
1761396647204498400,4.97449853515625,59.520267486572266,4.059423446655273,21.866809844970703
1761396647223875600,4.99387548828125,47.09074783325195,4.387838363647461,10.907682418823242
1761396647243239400,5.013239501953125,29.188249588012695,4.825126647949219,6.961319446563721
1761396647262630000,5.0326298828125,12.417552947998047,5.267798900604248,7.23589563369751
1761396647282007300,5.05200732421875,-0.18065811693668365,4.641477584838867,8.159524917602539
1761396647301371000,5.071370849609375,-6.723233222961426,2.8695926666259766,7.444669246673584
1761396647320761600,5.09076171875,-9.847661972045898,0.3732803463935852,5.491528034210205
1761396647340138800,5.110138671875,-12.055638313293457,-2.1367905139923096,3.4845480918884277
1761396647359502600,5.129502685546875,-11.060822486877441,-4.447061061859131,1.4057832956314087
1761396647378893300,5.148893310546875,-6.702296257019043,-5.8713884353637695,-1.073180913925171
1761396647398270500,5.1682705078125,-3.3577284812927246,-6.986443996429443,-2.0823538303375244
1761396647417634300,5.18763427734375,-3.1375887393951416,-6.579065799713135,-3.472583770751953
1761396647437025000,5.20702490234375,-3.78544545173645,-4.96630334854126,-5.041079044342041
1761396647456402200,5.226402099609375,-2.2067806720733643,-2.0811574459075928,-5.7792649269104
1761396647475765800,5.245765869140625,0.052043892443180084,0.8350951075553894,-2.6662025451660156
1761396647495156500,5.265156494140625,6.601199626922607,3.704089403152466,1.4297115802764893
1761396647514533600,5.28453369140625,16.861024856567383,7.6977105140686035,3.3074791431427
1761396647533897500,5.3038974609375,20.218753814697266,10.517053604125977,3.3104701042175293
1761396647553288200,5.3232880859375,16.712669372558594,12.256037712097168,-1.7772690057754517
1761396647572665300,5.342665283203125,14.0715913772583,13.534402847290039,-5.633901119232178
1761396647592029200,5.362029296875,15.4360990524292,13.363914489746094,-4.680959224700928
1761396647611420000,5.381419921875,18.43968963623047,12.576077461242676,-4.919643402099609
1761396647630797000,5.400797119140625,20.419151306152344,11.050054550170898,-2.998805046081543
1761396647650160600,5.42016064453125,16.75454330444336,8.662615776062012,3.3122646808624268
1761396647669551400,5.43955126953125,7.715656757354736,6.223133563995361,5.49930477142334
1761396647688928800,5.4589287109375,-0.6203392744064331,4.082753658294678,2.3371894359588623
1761396647708292400,5.478292236328125,-4.6402812004089355,0.9684949517250061,0.6652047038078308
1761396647727683000,5.49768310546875,-4.165306091308594,-1.3872389793395996,0.35054850578308105
1761396647747060200,5.517060302734375,-1.2269197702407837,-2.2707886695861816,0.4378865361213684
1761396647766424000,5.536424072265625,0.9080761671066284,-2.8175487518310547,0.7495517134666443
1761396647785814800,5.555814697265625,0.9924231767654419,-2.3611178398132324,0.3936193287372589
1761396647805192000,5.57519189453125,0.3326023519039154,-0.6855437159538269,-1.0845468044281006
1761396647824555500,5.594555419921875,-1.0911271572113037,1.5810575485229492,-3.009572744369507
1761396647843946200,5.6139462890625,-1.6013965606689453,4.487739086151123,-4.285545349121094
1761396647863323600,5.63332373046875,0.9320043921470642,7.690532207489014,-3.868596076965332
1761396647882687200,5.652687255859375,8.203792572021484,10.00857925415039,0.8003991842269897
1761396647902078000,5.672077880859375,19.660627365112305,11.806785583496094,3.680161237716675
1761396647921455000,5.691455078125,25.156343460083008,14.187045097351074,-3.2757742404937744
1761396647940819000,5.71081884765625,25.345375061035156,13.778470993041992,-5.745167255401611
1761396647960209700,5.730209716796875,23.535802841186523,14.322239875793457,-4.748556613922119
1761396647979586800,5.7495869140625,19.63909149169922,14.503496170043945,-4.164109706878662
1761396647998950400,5.768950439453125,15.585650444030762,13.564312934875488,-3.418147087097168
1761396648018341400,5.78834130859375,11.328819274902344,10.738987922668457,-0.9625129103660583
1761396648037718500,5.807718505859375,8.812167167663574,9.904491424560547,0.1657029688358307
1761396648057082000,5.82708203125,3.1130621433258057,6.407381057739258,2.4185454845428467
1761396648076472800,5.846472900390625,-0.6215356588363647,3.300898790359497,2.2618155479431152
1761396648095850000,5.86585009765625,-0.6999006271362305,0.5706881880760193,2.4406790733337402
1761396648115213800,5.8852138671875,0.841675341129303,-1.0043872594833374,2.6111676692962646
1761396648134604500,5.9046044921875,1.0959128141403198,-1.6348960399627686,2.461616277694702
1761396648153981700,5.923981689453125,-0.014356935396790504,-1.2855439186096191,2.3222343921661377
1761396648173358800,5.94335888671875,-0.0323031060397625,-0.363709032535553,2.2510478496551514
1761396648192736300,5.962736328125,0.19920247793197632,1.043868899345398,1.098305583000183
1761396648212113400,5.982113525390625,-0.07178468257188797,3.469592809677124,-0.7250252366065979
1761396648231477000,6.00147705078125,0.2793620526790619,6.160920143127441,-0.6634100675582886
1761396648250867700,6.02086767578125,2.973680257797241,8.002197265625,2.111067771911621
1761396648270245000,6.0402451171875,8.256434440612793,11.529815673828125,1.609771490097046
1761396648289608700,6.059608642578125,11.148758888244629,14.66381549835205,-0.3002992272377014
1761396648308999400,6.07899951171875,10.429117202758789,15.612569808959961,-0.9858429431915283
1761396648328376600,6.09837646484375,7.0893354415893555,17.070995330810547,-5.2630133628845215
1761396648347740400,6.117740478515625,9.114859580993652,15.16032600402832,-6.4289164543151855
1761396648367131100,6.137131103515625,17.31865119934082,12.491132736206055,-4.701298236846924
1761396648386508300,6.15650830078125,20.301305770874023,9.325428009033203,0.4414757788181305
1761396648405871900,6.175871826171875,14.214563369750977,7.460821151733398,1.9597218036651611
1761396648425262600,6.1952626953125,6.034100532531738,5.964110374450684,0.4624129831790924
1761396648444640000,6.214639892578125,0.1417747437953949,4.194618225097656,0.6622136831283569
1761396648464003600,6.234003662109375,-3.2967114448547363,1.1718848943710327,1.932802438735962
1761396648483394300,6.253394287109375,-3.490530014038086,-1.0971091985702515,1.1527422666549683
1761396648502771500,6.272771484375,-1.5385849475860596,-2.847458839416504,1.2664014101028442
1761396648522135300,6.29213525390625,1.350150227546692,-4.144368648529053,0.7100701332092285
1761396648541526000,6.311526123046875,3.738187074661255,-4.764708042144775,0.4001995921134949
1761396648560903200,6.330903076171875,2.641077995300293,-4.542773723602295,0.15972091257572174
1761396648580267000,6.35026708984375,-0.007178467698395252,-3.3176486492156982,-1.0271191596984863
1761396648599657500,6.369657470703125,-1.8305093050003052,-1.643869161605835,-2.3736801147460938
1761396648619035000,6.389034912109375,-3.8494534492492676,0.9924231767654419,-3.9667017459869385
1761396648638398500,6.4083984375,-3.3302109241485596,3.379862070083618,-4.90408992767334
1761396648657789200,6.4277890625,4.6887359619140625,7.253841876983643,-5.7649078369140625
1761396648677166300,6.447166259765625,15.294921875,10.824531555175781,-3.5162527561187744
1761396648696530200,6.4665302734375,26.006393432617188,11.480164527893066,0.48035913705825806
1761396648715921000,6.4859208984375,39.13521194458008,9.247062683105469,6.953542709350586
1761396648735298000,6.505298095703125,49.95137023925781,7.331010341644287,10.317253112792969
1761396648754661600,6.52466162109375,41.069210052490234,10.234700202941895,4.598406791687012
1761396648774052400,6.54405224609375,23.10509490966797,11.82293701171875,1.7928223609924316
1761396648793429800,6.5634296875,9.231510162353516,12.07777214050293,2.7672994136810303
1761396648812793300,6.58279345703125,1.2532408237457275,10.313663482666016,6.111867427825928
1761396648832184000,6.60218408203125,-1.0055837631225586,7.398009300231934,9.356534957885742
1761396648851561200,6.621561279296875,-1.7497515678405762,4.048655986785889,9.714859962463379
1761396648870925000,6.640925048828125,-1.2394821643829346,0.6101697683334351,7.972286701202393
1761396648890315800,6.660315673828125,0.05623133108019829,-1.9609181880950928,5.601597785949707
1761396648909693000,6.67969287109375,0.19680966436862946,-4.025325775146484,2.761317253112793
1761396648929056500,6.699056396484375,-1.1395817995071411,-4.632504463195801,-0.16689938306808472
1761396648948447200,6.718447265625,-3.326023578643799,-4.800600528717041,-1.5912270545959473
1761396648967824600,6.73782470703125,-5.2115678787231445,-4.585246562957764,-2.2749760150909424
1761396648987188200,6.757188232421875,-6.578467845916748,-3.7220356464385986,-2.712862730026245
1761396649006579000,6.776578857421875,-5.9060845375061035,-2.7702903747558594,-2.9066812992095947
1761396649025956000,6.7959560546875,-3.731008768081665,-0.46839502453804016,-2.5639095306396484
1761396649045320000,6.81531982421875,2.9623143672943115,2.93001127243042,-1.5080764293670654
1761396649064710700,6.834710693359375,16.603796005249023,6.6729841232299805,0.35832518339157104
1761396649084087800,6.854087890625,27.281766891479492,8.469993591308594,4.752145767211914
1761396649103451400,6.873451416015625,41.798423767089844,0.877567708492279,14.627923011779785
1761396649122842000,6.892842041015625,62.74758529663086,-1.5906288623809814,8.531609535217285
1761396649142219500,6.912219482421875,51.985267639160156,3.2889347076416016,-3.3176486492156982
1761396649161583000,6.9315830078125,27.952953338623047,5.861817359924316,-2.954537868499756
1761396649180973800,6.950973876953125,5.1667022705078125,7.618747234344482,4.348955154418945
1761396649200351000,6.97035107421875,-9.974481582641602,8.178069114685059,8.022536277770996
1761396649219714800,6.98971484375,-15.604792594909668,5.183452129364014,8.316853523254395
1761396649239105500,7.00910546875,-13.977075576782227,1.2400803565979004,7.7461652755737305
1761396649258482700,7.028482666015625,-8.678169250488281,-2.018345832824707,5.842076301574707
1761396649277846300,7.04784619140625,-2.9485557079315186,-4.06540584564209,2.6225335597991943
1761396649297237000,7.067237060546875,0.6269195079803467,-4.350749969482422,-0.20817556977272034
1761396649316614400,7.086614501953125,1.0336993932724,-4.073182582855225,-0.6245267391204834
1761396649335978000,7.10597802734375,-0.20757736265659332,-2.569293260574341,-3.0029923915863037
1761396649355368700,7.12536865234375,-0.8458628058433533,-1.0408778190612793,-3.7800614833831787
1761396649374745900,7.144745849609375,-1.4279168844223022,0.6544370055198669,-2.087737798690796
1761396649394109700,7.164109619140625,0.10648060590028763,4.2550368309021,-2.8450660705566406
1761396649413500400,7.18350048828125,12.479766845703125,8.539983749389648,-0.1579262912273407
1761396649432877600,7.202877685546875,28.393831253051758,9.246464729309082,9.172286987304688
1761396649452241200,7.2222412109375,43.75515365600586,6.051448345184326,14.020146369934082
1761396649471632000,7.2416318359375,40.20001983642578,8.178668022155762,6.396613121032715
1761396649491009300,7.26100927734375,29.093732833862305,8.112865447998047,5.889334678649902
1761396649510372900,7.280372802734375,24.61376953125,6.595217227935791,7.578667640686035
1761396649529763600,7.299763671875,19.00140380859375,5.521438121795654,2.1948165893554688
1761396649549140700,7.319140625,11.094322204589844,4.259822368621826,-1.5451651811599731
1761396649568504600,7.338504638671875,2.8695926666259766,3.2548370361328125,-2.052443504333496
1761396649587895300,7.357895263671875,-1.8544375896453857,2.1780667304992676,0.06640082597732544
1761396649607272400,7.3772724609375,-3.4791641235351562,0.8123632669448853,1.8095721006393433
1761396649626636000,7.396635986328125,-4.168296813964844,-0.09631111472845078,0.973878800868988
1761396649646026800,7.41602685546875,-4.61276388168335,-1.841277003288269,0.7046862840652466
1761396649665404000,7.43540380859375,-4.121636867523193,-2.461616277694702,-0.6586244106292725
1761396649684767700,7.454767822265625,-2.847458839416504,-2.3682961463928223,-2.108076810836792
1761396649704158500,7.474158447265625,-1.9782661199569702,-1.7670994997024536,-3.2350962162017822
1761396649723535600,7.49353564453125,-0.7058826684951782,-0.8901300430297852,-3.393620729446411
1761396649742899500,7.5128994140625,-0.32243284583091736,0.6897311210632324,-2.368894338607788
1761396649762290200,7.532290283203125,-0.4007977843284607,2.4634108543395996,-0.35473597049713135
1761396649781667300,7.551667236328125,5.624329566955566,5.1768717765808105,1.3716856241226196
1761396649801031000,7.571031005859375,14.588441848754883,8.672187805175781,2.7798616886138916
1761396649820421600,7.590421630859375,31.375288009643555,10.88136100769043,2.179861545562744
1761396649839798800,7.609798828125,40.948970794677734,11.730215072631836,2.1104695796966553
1761396649859162600,7.62916259765625,32.20200729370117,13.441680908203125,2.203789710998535
1761396649878553300,7.64855322265625,19.720447540283203,15.90569019317627,2.3611178398132324
1761396649897930500,7.667930419921875,15.493526458740234,16.18206214904785,2.30069899559021
1761396649917294300,7.68729443359375,13.25264835357666,15.485750198364258,0.4456632137298584
1761396649936684800,7.706684814453125,7.899305820465088,13.395021438598633,-1.215553879737854
1761396649956062200,7.726062255859375,2.108675003051758,10.793424606323242,-1.3202399015426636
1761396649975425800,7.74542578125,0.33499518036842346,7.135396957397461,-0.15314064919948578
1761396649994816500,7.76481640625,0.9038887619972229,3.0723843574523926,2.345564365386963
1761396650014193700,7.784193603515625,0.4139583110809326,-0.10588239878416061,4.649852752685547
1761396650033557500,7.8035576171875,0.7519445419311523,-1.9256240129470825,4.1036906242370605
1761396650052948200,7.8229482421875,0.9607182741165161,-2.1230318546295166,1.033101201057434
1761396650072325400,7.842325439453125,-0.2512463629245758,-1.5290136337280273,-0.3032902777194977
1761396650091702500,7.86170263671875,-1.1748759746551514,-1.181456208229065,-0.2907279431819916
1761396650111079700,7.88107958984375,0.7262216806411743,-0.9134600162506104,0.49710890650749207
1761396650130457000,7.90045703125,2.2755744457244873,-0.3690928816795349,1.7623138427734375
1761396650149834200,7.919834228515625,2.782254457473755,0.3314059376716614,2.4466612339019775
1761396650169211400,7.93921142578125,3.201596736907959,1.731805443763733,1.088136076927185
1761396650188588500,7.958588623046875,4.809573650360107,4.144967079162598,-1.3441680669784546
1761396650207952400,7.977952392578125,6.918248653411865,6.906284332275391,-1.929213285446167
1761396650227343000,7.997343017578125,10.724631309509277,8.94676399230957,0.6885347366333008
1761396650246720300,8.01672021484375,13.932209968566895,10.953743934631348,1.5792629718780518
1761396650266083800,8.036083740234375,13.682159423828125,13.584053993225098,-1.0169496536254883
1761396650285474600,8.055474609375,8.449056625366211,15.328421592712402,-3.5204403400421143
1761396650304851700,8.074851806640625,4.990231513977051,17.566308975219727,-6.781259536743164
1761396650324215600,8.094215576171875,7.200601577758789,17.12303924560547,-7.914859294891357
1761396650343606300,8.113606201171875,13.348958969116211,15.209379196166992,-4.112663745880127
1761396650362983400,8.1329833984375,15.760326385498047,11.279168128967285,2.5674986839294434
1761396650382347300,8.15234716796875,13.7647123336792,7.6839518547058105,5.100899696350098
1761396650401738000,8.171738037109375,7.600203037261963,4.730011940002441,3.183650493621826
1761396650421115100,8.191115234375,2.7044878005981445,2.7667012214660645,-0.6574280261993408
1761396650440478700,8.210478759765625,1.0157532691955566,1.3663017749786377,-2.489133834838867
1761396650459869400,8.229869384765625,1.7724833488464355,-0.10408778488636017,-0.40319061279296875
1761396650479246600,8.24924658203125,1.3992030620574951,-0.6023930907249451,2.3916261196136475
1761396650498624000,8.2686240234375,1.6301103830337524,0.3086741268634796,2.647658348083496
1761396650518001200,8.288001220703125,1.2855439186096191,1.4333007335662842,1.628315806388855
1761396650537378300,8.30737841796875,1.872383713722229,2.3473589420318604,2.022533416748047
1761396650556742100,8.3267421875,4.059423446655273,2.713460922241211,1.571486234664917
1761396650576132600,8.346132568359375,5.836094379425049,3.057429075241089,0.1010967567563057
1761396650595510000,8.365510009765625,7.164111137390137,3.862015724182129,-0.28594231605529785
1761396650614873600,8.38487353515625,8.374878883361816,4.777868747711182,0.2392822653055191
1761396650634264300,8.404264404296875,8.715856552124023,6.50907564163208,-0.41096729040145874
1761396650653641500,8.423641357421875,8.270193099975586,8.854640007019043,0.024526432156562805
1761396650673005300,8.44300537109375,9.641280174255371,11.660224914550781,0.5730810165405273
1761396650692396000,8.46239599609375,8.154141426086426,13.506885528564453,0.8422735929489136
1761396650711773200,8.481773193359375,6.32363224029541,15.41336727142334,-1.2167502641677856
1761396650731136800,8.50113671875,9.288339614868164,15.340984344482422,-3.7986059188842773
1761396650750527500,8.520527587890625,16.00140380859375,15.122040748596191,-5.431109428405762
1761396650769904600,8.539904541015625,22.0343074798584,13.973485946655273,-3.7130625247955322
1761396650789268500,8.5592685546875,19.62473487854004,10.586445808410645,1.2065808773040771
1761396650808659200,8.5786591796875,10.245468139648438,7.410571575164795,3.2614171504974365
1761396650828036400,8.598036376953125,1.7001005411148071,5.504688262939453,0.8249256014823914
1761396650847400200,8.617400146484375,-1.6941183805465698,3.390629768371582,-1.184447169303894
1761396650866791000,8.636791015625,-1.2693923711776733,1.4554343223571777,-1.5595221519470215
1761396650886168000,8.65616796875,1.932802438735962,0.019740786403417587,-0.33080771565437317
1761396650905531600,8.67553173828125,6.181857109069824,-0.44327038526535034,0.631106972694397
1761396650924922400,8.69492236328125,6.308078765869141,0.3655036687850952,-0.3768695592880249
1761396650944299500,8.714299560546875,3.8811583518981934,1.3639088869094849,-0.8087740540504456
1761396650963663400,8.733663330078125,1.9124635457992554,2.963510751724243,-0.15134602785110474
1761396650983054000,8.75305419921875,1.602592945098877,4.2795634269714355,-0.3355933725833893
1761396651002431200,8.77243115234375,3.2656047344207764,5.742774486541748,-0.6783652305603027
1761396651021795000,8.791795166015625,7.612765312194824,6.671787738800049,0.5060819983482361
1761396651041185500,8.811185546875,8.633902549743652,7.87358283996582,1.1395817995071411
1761396651060563000,8.83056298828125,6.122036933898926,10.328021049499512,-0.9553344249725342
1761396651079926500,8.849926513671875,2.537588357925415,12.674182891845703,-2.376671075820923
1761396651099317200,8.869317138671875,1.6941183805465698,14.975480079650879,-3.5162527561187744
1761396651118694400,8.8886943359375,6.0538411140441895,14.971293449401855,-3.600599765777588
1761396651138058200,8.908058349609375,15.14477252960205,12.972687721252441,-3.7567315101623535
1761396651157449000,8.927448974609375,21.818952560424805,12.016157150268555,-2.4771697521209717
1761396651176826000,8.946826171875,17.365909576416016,9.443872451782227,3.955335855484009
1761396651196189700,8.966189697265625,8.338388442993164,6.756134510040283,4.295116424560547
1761396651215580400,8.985580322265625,-0.7405785918235779,5.111069202423096,-0.5934200286865234
1761396651234957600,9.00495751953125,-3.0903303623199463,4.377668857574463,-2.9485557079315186
1761396651254321400,9.0243212890625,0.42352959513664246,3.122633457183838,-2.3676979541778564
1761396651273712000,9.043712158203125,5.068596363067627,1.8418751955032349,-0.8255237936973572
1761396651293089300,9.06308935546875,6.320641040802002,1.2047861814498901,0.29730820655822754
1761396651312452900,9.082452880859375,4.179064750671387,0.8578268885612488,0.6508477330207825
1761396651331843600,9.101843505859375,0.07058826833963394,1.6456637382507324,1.4709876775741577
1761396651351221000,9.121220947265625,-0.47676992416381836,2.0859432220458984,2.578864574432373
1761396651370584600,9.14058447265625,1.3142578601837158,3.7148571014404297,2.386840581893921
1761396651389975300,9.159975341796875,2.0715861320495605,4.599005222320557,2.6039891242980957
1761396651409352400,9.1793525390625,4.890331268310547,5.563312530517578,2.1469600200653076
1761396651428716300,9.19871630859375,8.279764175415039,7.001399040222168,0.729810893535614
1761396651448107000,9.21810693359375,11.199007987976074,8.806783676147461,0.09032905846834183
1761396651467484200,9.237484130859375,11.091331481933594,10.112068176269531,2.447857618331909
1761396651486847700,9.25684765625,8.182855606079102,11.623734474182129,3.851846218109131
1761396651506238500,9.276238525390625,8.787641525268555,14.107483863830566,-2.1003000736236572
1761396651525615600,9.29561572265625,9.823135375976562,14.382060050964355,-4.4033918380737305
1761396651544979500,9.3149794921875,12.725030899047852,13.390235900878906,-0.2847459018230438
1761396651564370200,9.3343701171875,18.278173446655273,11.459227561950684,4.219742774963379
1761396651583747300,9.353747314453125,17.916259765625,9.452845573425293,5.355136871337891
1761396651603111200,9.373111083984375,12.120842933654785,8.193622589111328,2.496910333633423
1761396651622501600,9.392501708984375,6.8279194831848145,6.914659023284912,-1.124626636505127
1761396651641878800,9.411878662109375,2.768495798110962,6.085546016693115,-3.4618160724639893
1761396651661242600,9.43124267578125,4.252644062042236,4.502694129943848,-4.752744197845459
1761396651680633300,9.45063330078125,9.68076229095459,2.6811578273773193,-3.410968780517578
1761396651700010500,9.470010498046875,10.375877380371094,0.8428717851638794,0.30149564146995544
1761396651719374300,9.489374267578125,7.830512046813965,0.6059823632240295,2.9042885303497314
1761396651738765000,9.50876513671875,4.286741733551025,1.1718848943710327,3.13220477104187
1761396651758142200,9.52814208984375,1.521835207939148,1.9926230907440186,2.651247501373291
1761396651777505800,9.547505859375,-0.0029910283628851175,2.806781053543091,1.8532410860061646
1761396651796896500,9.566896484375,-0.6837490797042847,3.586242914199829,0.6783652305603027
1761396651816273700,9.586273681640625,1.6354942321777344,3.7160534858703613,-1.0360921621322632
1761396651835637500,9.605637451171875,6.637091636657715,4.2795634269714355,-1.140179991722107
1761396651855028200,9.6250283203125,7.248457908630371,4.907081127166748,1.2867404222488403
1761396651874405400,9.6444052734375,8.291728973388672,6.187839508056641,1.1479566097259521
1761396651893769000,9.66376904296875,11.656037330627441,8.356932640075684,1.7886348962783813
1761396651913159700,9.68315966796875,7.823333740234375,10.192228317260742,4.1347975730896
1761396651932537000,9.702537109375,-1.9459630250930786,12.07896900177002,3.940380573272705
1761396651951900700,9.721900634765625,10.480563163757324,12.588640213012695,-4.774279594421387
1761396651971291400,9.74129150390625,26.565715789794922,11.879766464233398,-8.660223007202148
1761396651990668500,9.76066845703125,22.36989974975586,10.848459243774414,-0.8847461938858032
1761396652010032400,9.780032470703125,9.55214786529541,11.749955177307129,4.1521453857421875
1761396652029422800,9.7994228515625,4.820341110229492,12.462418556213379,2.973680257797241
1761396652048800300,9.81880029296875,2.14935302734375,10.357333183288574,1.337587833404541
1761396652068163800,9.838163818359375,2.5944180488586426,7.22452974319458,0.0005982056609354913
1761396652087554600,9.857554443359374,5.425127029418945,4.556532382965088,-2.056631088256836
1761396652106931700,9.876931640625,6.650850772857666,3.1591241359710693,-3.243471145629883
1761396652126295600,9.896295654296875,5.727818965911865,2.26959228515625,-1.4273186922073364
1761396652145686300,9.915686279296875,6.500102519989014,1.7228323221206665,2.788236618041992
1761396652165063400,9.9350634765625,7.037291526794434,1.695314884185791,2.8139593601226807
1761396652184427000,9.954427001953125,5.591428279876709,1.9124635457992554,0.02273181453347206
1761396652203817700,9.973817626953124,5.127220630645752,2.162513494491577,-0.666999340057373
1761396652223195000,9.99319482421875,5.00997257232666,1.9172492027282715,1.643869161605835
1761396652242558700,10.012558837890625,3.6909289360046387,1.8921245336532593,1.8891334533691406
1761396652261949400,10.031949462890625,3.5880374908447266,2.493321180343628,-0.11006984114646912
1761396652281326600,10.05132666015625,5.216353416442871,3.3924243450164795,-2.255235433578491
1761396652300690400,10.0706904296875,7.889734268188477,3.5676984786987305,-1.358525037765503
1761396652320081000,10.090080810546874,10.339386940002441,4.820939540863037,-0.8201399445533752
1761396652339458300,10.109458251953125,7.109076023101807,7.429714202880859,-1.662413477897644
1761396652358822000,10.12882177734375,-4.535595417022705,7.846065521240234,4.329214572906494
1761396652378212600,10.148212646484374,-7.741977691650391,9.076574325561523,2.8217360973358154
1761396652397589800,10.16758984375,7.712067604064941,7.864011764526367,-7.6767730712890625
1761396652416953600,10.18695361328125,25.822145462036133,7.086942672729492,-10.499107360839844
1761396652436344300,10.20634423828125,25.72643280029297,6.588038921356201,-2.9700911045074463
1761396652455721500,10.225721435546875,12.723834037780762,7.518248558044434,-0.0005982056609354913
1761396652475085000,10.2450849609375,3.6329028606414795,8.094919204711914,-1.0791629552841187
1761396652494475800,10.264475830078124,4.265206336975098,7.478767395019531,-2.8109683990478516
1761396652513853000,10.28385302734375,8.963513374328613,6.183651924133301,-3.266801118850708
1761396652533216800,10.303216796875,10.725229263305664,5.072783946990967,0.1585244983434677
1761396652552607500,10.322607421875,10.799407005310059,4.820939540863037,0.9571290612220764
1761396652571984600,10.341984619140625,9.369695663452148,4.877170562744141,-1.0199406147003174
1761396652591348200,10.36134814453125,7.530212879180908,4.957928657531738,-2.2085752487182617
1761396652610739000,10.380739013671874,5.680561065673828,4.737788677215576,-1.9543378353118896
1761396652630116000,10.4001162109375,5.573482036590576,4.591826438903809,-0.8027920126914978
1761396652649493500,10.419493408203126,5.485546112060547,4.599603176116943,-0.6783652305603027
1761396652668870700,10.43887060546875,6.957729816436768,5.047060966491699,-2.2881367206573486
1761396652688247800,10.458247802734375,8.711668968200684,4.602594375610352,-1.8819550275802612
1761396652707611400,10.477611328125,8.771489143371582,4.811367988586426,-0.46360939741134644
1761396652727002400,10.49700244140625,7.875377655029297,5.023132801055908,0.6065805554389954
1761396652746379500,10.516379638671875,8.882157325744629,5.347360610961914,-0.5509474277496338
1761396652765743000,10.5357431640625,9.55753231048584,5.408975601196289,-1.4111671447753906
1761396652785133800,10.5551337890625,11.180463790893555,5.162514686584473,-1.1126625537872314
1761396652804511000,10.574510986328125,11.877971649169922,5.168497085571289,-1.0241280794143677
1761396652823888100,10.59388818359375,11.402398109436035,5.528018474578857,-0.6945167779922485
1761396652843265500,10.613265625,10.759326934814453,6.000002861022949,-0.9888339638710022
1761396652862642700,10.632642578125,8.912068367004395,6.154339790344238,-1.1365907192230225
1761396652882006300,10.65200634765625,6.4594244956970215,6.199803352355957,-1.428515076637268
1761396652901397000,10.67139697265625,5.691328525543213,5.84147834777832,-1.2741780281066895
1761396652920774100,10.690774169921875,6.15553617477417,5.5244293212890625,-0.5928218364715576
1761396652940138000,10.710137939453125,7.99800968170166,5.32403039932251,-0.5730810165405273
1761396652959528700,10.72952880859375,9.030512809753418,5.108676433563232,-0.5862415432929993
1761396652978905900,10.74890576171875,9.480362892150879,4.90109920501709,0.8847461938858032
1761396652998269400,10.76826953125,10.62233829498291,4.744967460632324,2.018345832824707
1761396653017660200,10.78766015625,10.97587776184082,4.925027370452881,1.134796142578125
1761396653037037300,10.807037353515625,10.016953468322754,5.155934810638428,-0.10648060590028763
1761396653056414500,10.82641455078125,9.157332420349121,5.278566837310791,0.09391828626394272
1761396653075792000,10.8457919921875,7.786244869232178,5.346762180328369,1.5026925802230835
1761396653095169000,10.8651689453125,6.189633846282959,5.519045352935791,1.4057832956314087
1761396653114546200,10.884546142578126,6.126224040985107,5.571089267730713,0.21954147517681122
1761396653133923300,10.90392333984375,6.31944465637207,5.580062389373779,0.11066804826259613
1761396653153300500,10.923300537109375,6.020341873168945,5.246861934661865,0.778863787651062
1761396653172678000,10.942677978515626,6.686144828796387,5.101497650146484,0.12861421704292297
1761396653192055000,10.962054931640624,7.435098171234131,4.817350387573242,0.5557330846786499
1761396653211432200,10.98143212890625,8.733802795410156,4.682754039764404,2.3096721172332764
1761396653230809300,11.000809326171876,8.194221496582031,5.050650596618652,1.2029916048049927
1761396653250186500,11.0201865234375,7.487142086029053,5.398806095123291,-0.0023928226437419653
1761396653269564000,11.03956396484375,7.287341594696045,5.700900077819824,-0.25782662630081177
1761396653288941000,11.058941162109376,7.219145774841309,5.672784328460693,0.5401797294616699
1761396653308318200,11.078318115234374,7.732406139373779,5.726622581481934,0.7740781307220459
1761396653327695400,11.0976953125,8.656036376953125,5.7272210121154785,0.16510476171970367
1761396653347072500,11.117072509765626,7.788039684295654,5.80917501449585,-0.06161518394947052
1761396653366450000,11.136449951171874,7.316653251647949,5.770890235900879,0.6831508874893188
1761396653385827000,11.1558271484375,8.144570350646973,5.861817359924316,-0.4043870270252228
1761396653405190700,11.175190673828125,6.375077724456787,5.9784674644470215,-1.5469598770141602
1761396653424581400,11.194581298828124,6.440282344818115,5.736792087554932,-0.5928218364715576
1761396653443958500,11.21395849609375,8.316853523254395,5.535795211791992,-0.3290131092071533
1761396653463335700,11.233335693359376,8.442476272583008,5.450251579284668,0.5676971673965454
1761396653482713000,11.252713134765624,7.558328628540039,5.302495002746582,0.049651071429252625
