time,seconds_elapsed,z,y,x
1761396642383295700,0.153295654296875,-0.005955760832875967,-0.10491301864385605,-0.06688777357339859
1761396642402673000,0.1726728515625,0.004886778071522713,-0.07971556484699249,-0.08903098851442337
1761396642422050000,0.192050048828125,0.020616095513105392,-0.018630841746926308,-0.08750387281179428
1761396642441427500,0.211427490234375,0.007330167107284069,0.014049487188458443,-0.08765657991170883
1761396642460804600,0.2308046875,0.0018325417768210173,0.04367557913064957,-0.0794101431965828
1761396642480181800,0.250181640625,0.011606098152697086,0.05864133685827255,0.005497625097632408
1761396642499559200,0.26955908203125,0.011606098152697086,-0.010231691412627697,0.0794101431965828
1761396642518936300,0.288936279296875,0.012980503961443901,-0.04169032722711563,0.04321744292974472
1761396642538313500,0.3083134765625,-0.010078979656100273,-0.020005248486995697,-0.062153708189725876
1761396642557690600,0.327690673828125,-0.02641914412379265,0.0018325417768210173,-0.13469181954860687
1761396642577068000,0.347068115234375,0.00916270911693573,-0.045355409383773804,-0.1253764033317566
1761396642596445200,0.366445068359375,0.03955236077308655,-0.0716218426823616,-0.04214845970273018
1761396642615822300,0.385822265625,0.010078979656100273,-0.10735640674829483,0.072232685983181
1761396642635199500,0.405199462890625,-0.02076880633831024,-0.08612946420907974,0.13179029524326324
1761396642654577000,0.424576904296875,-0.03924693539738655,-0.021226942539215088,0.08093725889921188
1761396642673954000,0.4439541015625,-0.038788799196481705,0.01252236869186163,0.02489202655851841
1761396642693331200,0.463331298828125,-0.03130592033267021,0.009773556143045425,-0.012827792204916477
1761396642712708600,0.48270849609375,-0.03390202298760414,-0.05635065957903862,-0.07482878863811493
1761396642732085800,0.502085693359375,-0.04321744292974472,-0.1047603040933609,-0.129499614238739
1761396642751463000,0.521462890625,-0.0653606578707695,-0.09773556143045425,-0.12247487902641296
1761396642770840000,0.540840087890625,-0.08063183724880219,-0.06902574002742767,-0.051616594195365906
1761396642790217500,0.560217529296875,-0.0594048947095871,-0.1322484314441681,0.037567105144262314
1761396642809594600,0.5795947265625,0.007635590620338917,-0.19333316385746002,0.09055810421705246
1761396642828971800,0.5989716796875,0.06184828653931618,-0.3365768492221832,0.1650814712047577
1761396642848349000,0.618348876953125,0.1298050433397293,-0.4416425824165344,0.24678228795528412
1761396642867726300,0.637726318359375,0.1951656937599182,-0.41018393635749817,0.15469707548618317
1761396642887103500,0.657103515625,0.3846810758113861,-0.2551814317703247,0.3092414140701294
1761396642906480600,0.676480712890625,0.5865660905838013,-0.16905197501182556,0.48577627539634705
1761396642925858000,0.695858154296875,0.568393349647522,-0.4614951014518738,0.47355934977531433
1761396642945235200,0.715235107421875,0.5012001991271973,-0.9805625677108765,0.4746283292770386
1761396642964612400,0.7346123046875,0.34971004724502563,-1.2342169284820557,0.4327852725982666
1761396642983976200,0.75397607421875,0.2079934924840927,-1.0564603805541992,0.08811471611261368
1761396643003366700,0.77336669921875,0.07711946964263916,-0.6009209752082825,-0.4175141155719757
1761396643022744000,0.792744140625,-0.11590826511383057,-0.2307475507259369,-0.7597413063049316
1761396643042121200,0.812121337890625,-0.27976804971694946,-0.6442911624908447,-0.7667660117149353
1761396643061498400,0.831498291015625,-0.3981196880340576,0.20051060616970062,-0.904817521572113
1761396643080875800,0.850875732421875,-0.7605048418045044,0.33978378772735596,-0.8713735938072205
1761396643100239400,0.8702392578125,-1.1028847694396973,0.4703523814678192,-0.4847072958946228
1761396643119630000,0.889630126953125,-0.9451334476470947,0.018783552572131157,0.16309621930122375
1761396643139007200,0.90900732421875,-0.4703523814678192,-0.388651579618454,0.5535803437232971
1761396643158371000,0.92837109375,-0.20661908388137817,-0.21959958970546722,0.06429167091846466
1761396643177761800,0.94776171875,-0.025502873584628105,-0.0594048947095871,-0.42423340678215027
1761396643197139000,0.967138916015625,0.08796200156211853,-0.26159533858299255,-0.3017585575580597
1761396643216516000,0.98651611328125,-0.03649812191724777,-0.5315898060798645,-0.14186927676200867
1761396643235893500,1.0058935546875,-0.14171656966209412,-0.4214846193790436,0.1169772520661354
1761396643255270700,1.025270751953125,0.2476985603570938,-0.20936790108680725,0.11270131915807724
1761396643274634500,1.044634521484375,0.6794148683547974,-0.3507790267467499,-0.15866757929325104
1761396643294025200,1.064025146484375,0.5813738703727722,0.05100574716925621,-0.1835595965385437
1761396643313402400,1.08340234375,0.42514967918395996,0.20020519196987152,-0.06169557198882103
1761396643332766000,1.102765869140625,-0.0397050715982914,-0.4095730781555176,0.43736663460731506
1761396643352156700,1.12215673828125,-0.4605788290500641,-1.03996741771698,1.1767972707748413
1761396643371534000,1.1415341796875,-0.15515519678592682,-0.6597150564193726,1.6143165826797485
1761396643390897700,1.160897705078125,0.28938889503479004,0.1438545286655426,1.9377602338790894
1761396643410288400,1.180288330078125,0.3243598937988281,0.5245651006698608,2.0582499504089355
1761396643429665500,1.19966552734375,0.40010493993759155,0.22433365881443024,2.1393399238586426
1761396643449029400,1.219029296875,0.669030487537384,0.004734066314995289,2.7289600372314453
1761396643468420000,1.238420166015625,0.9562813639640808,0.18004722893238068,3.142198324203491
1761396643487797200,1.25779736328125,0.8382351398468018,0.5653391480445862,2.5997660160064697
1761396643507161000,1.2771611328125,0.22586077451705933,0.8478559851646423,1.4816100597381592
1761396643526551800,1.2965517578125,-0.50196373462677,1.1273186206817627,0.42163732647895813
1761396643545929000,1.315928955078125,-1.0205730199813843,1.3832635879516602,-0.4503471553325653
1761396643565292500,1.33529248046875,-1.2099356651306152,1.32935631275177,-1.2820156812667847
1761396643584683300,1.354683349609375,-1.1523633003234863,0.9823951125144958,-2.068328857421875
1761396643604060700,1.374060791015625,-1.0501991510391235,0.621995210647583,-2.221651554107666
1761396643623424300,1.39342431640625,-0.8600729703903198,0.2648022770881653,-1.8016940355300903
1761396643642815000,1.41281494140625,-0.5685460567474365,-0.12934690713882446,-1.0524898767471313
1761396643662192000,1.432192138671875,-0.237008735537529,-0.7569924592971802,-0.3274141252040863
1761396643681556000,1.451555908203125,-0.03894151374697685,-1.3296617269515991,0.12354385852813721
1761396643700946700,1.47094677734375,0.072843536734581,-1.388761281967163,0.21364383399486542
1761396643720323800,1.49032373046875,-0.08124268800020218,-1.456565260887146,0.12552911043167114
1761396643739701200,1.509701171875,-0.5077667832374573,-1.6870074272155762,-0.07971556484699249
1761396643759078400,1.529078369140625,-0.6879667043685913,-1.6224102973937988,-0.5445703268051147
1761396643778455600,1.54845556640625,-0.5057815313339233,-1.3614258766174316,-1.0851701498031616
1761396643797819400,1.5678193359375,-0.27442312240600586,-1.6668494939804077,-1.382958173751831
1761396643817210000,1.587210205078125,-0.38697174191474915,-2.291746139526367,-1.5526210069656372
1761396643836587300,1.606587158203125,-0.5627430081367493,-1.611567735671997,-1.1392301321029663
1761396643855950800,1.625950927734375,-0.6908682584762573,-0.2339545041322708,-0.6772769093513489
1761396643875341600,1.645341552734375,-1.0570712089538574,1.288429617881775,-0.5257867574691772
1761396643894719000,1.664718994140625,-1.042868971824646,2.8651790618896484,0.007941014133393764
1761396643914082600,1.68408251953125,-0.6488724946975708,3.688906669616699,0.7036960124969482
1761396643933473300,1.703473388671875,-0.08933641016483307,3.894151210784912,0.8926005363464355
1761396643952850400,1.722850341796875,0.3996468186378479,3.2823877334594727,0.7385143637657166
1761396643972214300,1.74221435546875,0.6526902914047241,2.019155502319336,0.8399149775505066
1761396643991605000,1.76160498046875,0.6339067220687866,0.6771242022514343,1.1291511058807373
1761396644010982100,1.780982177734375,0.4214846193790436,-0.03955236077308655,1.2038272619247437
1761396644030346000,1.800345947265625,0.03161134570837021,-0.2011214643716812,1.1461021900177002
1761396644049736700,1.81973681640625,-0.5018110275268555,0.07925742864608765,1.0144646167755127
1761396644069113900,1.83911376953125,-0.966971218585968,0.6239804625511169,0.7487460374832153
1761396644088477400,1.8584775390625,-1.146865725517273,0.7777612805366516,0.3846810758113861
1761396644107868200,1.8778681640625,-1.098150610923767,0.30847787857055664,0.07757759839296341
1761396644127245600,1.89724560546875,-0.8900044560432434,-0.4937172830104828,-0.1629435122013092
1761396644146609200,1.916609130859375,-0.7040014863014221,-1.30476975440979,-0.31596073508262634
1761396644165999900,1.935999755859375,-0.29229041934013367,-1.8395664691925049,-0.5592306852340698
1761396644185377000,1.955376953125,-0.034665580838918686,-2.057333469390869,-0.8255600929260254
1761396644204740900,1.974740966796875,0.1779092699289322,-3.051945686340332,-1.1358704566955566
1761396644224131600,1.994131591796875,0.052990999072790146,-2.9400079250335693,-1.1548067331314087
1761396644243508700,2.0135087890625,-0.39888325333595276,-0.50196373462677,-1.0663865804672241
1761396644262872600,2.03287255859375,-0.8645015954971313,1.6758594512939453,-0.9164236187934875
1761396644282263300,2.05226318359375,-0.8058602213859558,2.7414824962615967,-0.3573456406593323
1761396644301640400,2.071640380859375,-0.35505497455596924,2.6634466648101807,0.5685460567474365
1761396644321004300,2.09100439453125,0.007788302376866341,1.2328424453735352,1.333326816558838
1761396644340395000,2.11039501953125,0.2423536479473114,0.08170082420110703,1.9527260065078735
1761396644359772200,2.129772216796875,0.2217375487089157,-0.2855710983276367,2.241503953933716
1761396644379135700,2.1491357421875,-0.32374903559684753,-0.25976279377937317,1.9047744274139404
1761396644398526500,2.1685263671875,-1.1094512939453125,-0.04734066128730774,1.0240854024887085
1761396644417903900,2.18790380859375,-1.6303513050079346,0.05543438717722893,0.275186687707901
1761396644437267500,2.207267333984375,-1.7206040620803833,-0.13530266284942627,0.018936265259981155
1761396644456658200,2.226658203125,-1.2988139390945435,-0.6145123243331909,0.0024433890357613564
1761396644476035300,2.246035400390625,-0.5325061082839966,-1.5094035863876343,-0.16187451779842377
1761396644495399200,2.265399169921875,0.11636640131473541,-2.352525472640991,-0.2764083743095398
1761396644514790000,2.284789794921875,0.429883748292923,-2.4583547115325928,0.09865183383226395
1761396644534167000,2.3041669921875,0.45049986243247986,-1.525896430015564,0.18737739324569702
1761396644553531000,2.32353076171875,0.27091076970100403,-0.18462859094142914,-0.6099309921264648
1761396644572921600,2.342921630859375,0.12430741637945175,-0.24556060135364532,-1.221083641052246
1761396644592298800,2.362298828125,-0.2910687327384949,-2.0324416160583496,-1.4629791975021362
1761396644611662300,2.381662353515625,-0.4243861436843872,-1.997775912284851,-1.614163875579834
1761396644631053000,2.401052978515625,-0.026724567636847496,0.837471604347229,-0.45111069083213806
1761396644650430500,2.420430419921875,0.41140562295913696,1.5907989740371704,1.8494927883148193
1761396644669794000,2.4397939453125,0.7081246972084045,0.2554868757724762,3.5514659881591797
1761396644689184800,2.459184814453125,0.5060869455337524,-0.4653128981590271,3.690891742706299
1761396644708562000,2.47856201171875,0.12323843687772751,-0.03145863488316536,2.1051323413848877
1761396644727925800,2.49792578125,-0.21120044589042664,0.5057815313339233,0.20249587297439575
1761396644747316500,2.51731640625,-0.6734591126441956,0.6236750483512878,-0.9063445925712585
1761396644766693600,2.536693603515625,-1.0795198678970337,0.3220692276954651,-1.3183610439300537
1761396644786057500,2.556057373046875,-0.9903361201286316,-0.10811996459960938,-1.134037971496582
1761396644805448200,2.5754482421875,-0.5299099683761597,-0.8509102463722229,-0.6449019908905029
1761396644824825300,2.594825439453125,-0.013133215717971325,-1.3456965684890747,-0.15744587779045105
1761396644844189200,2.614189208984375,0.19531841576099396,-1.651731014251709,-0.011300674639642239
1761396644863579600,2.63357958984375,0.08368607610464096,-1.802457571029663,-0.05238015204668045
1761396644882957000,2.65295703125,-0.01847812905907631,-1.50421142578125,-0.4828747510910034
1761396644902320600,2.672320556640625,-0.057114217430353165,-0.9940012097358704,-0.8359444737434387
1761396644921711400,2.69171142578125,-0.1898207813501358,-0.4563029110431671,-0.251974493265152
1761396644941088800,2.7110888671875,-0.5858024954795837,-0.33260634541511536,0.8547280430793762
1761396644960452400,2.730452392578125,-0.8622109293937683,-0.41232189536094666,1.1228899955749512
1761396644979843000,2.749843017578125,-0.6856760382652283,0.10460758954286575,0.5024218559265137
1761396644999220200,2.76922021484375,-0.48577627539634705,0.5164713859558105,-0.1588202863931656
1761396645018597600,2.78859765625,-0.39323291182518005,0.5415160655975342,-0.3946073353290558
1761396645037974800,2.807974853515625,-0.18585027754306793,0.6004628539085388,0.14629791676998138
1761396645057352000,2.82735205078125,-0.0784938707947731,0.5196782946586609,0.871526300907135
1761396645076715500,2.846715576171875,-0.12125317752361298,0.15469707548618317,1.0738694667816162
1761396645096106200,2.866106201171875,-0.12934690713882446,0.12613995373249054,0.7220214605331421
1761396645115483600,2.885483642578125,-0.29885703325271606,0.5493044257164001,0.1620272397994995
1761396645134847200,2.90484716796875,-0.5900784730911255,0.9706363081932068,-0.3038965165615082
1761396645154238000,2.924238037109375,-0.5909947156906128,1.0802834033966064,-0.3633013963699341
1761396645173615000,2.943614990234375,-0.4136963188648224,0.6983511447906494,-0.005955760832875967
1761396645192992500,2.962992431640625,-0.23593975603580475,-0.09437590092420578,0.39506545662879944
1761396645212369700,2.98236962890625,-0.11254860460758209,-0.9721634387969971,0.3561239540576935
1761396645231746800,3.001746826171875,-0.14843589067459106,-1.5860649347305298,-0.07437065243721008
1761396645251110700,3.021110595703125,-0.049020491540431976,-1.919282078742981,-0.610236406326294
1761396645270501400,3.04050146484375,0.1525591015815735,-1.757102131843567,-0.980715274810791
1761396645289878500,3.05987841796875,0.04077405482530594,-0.8729007244110107,-0.9405520558357239
1761396645309242400,3.079242431640625,0.14431266486644745,-0.20096874237060547,-0.5996993184089661
1761396645328632800,3.0986328125,0.6713211536407471,-1.0714260339736938,-0.7362236380577087
1761396645348010200,3.11801025390625,1.0344698429107666,-1.7126630544662476,-1.219098448753357
1761396645367373800,3.137373779296875,1.1822948455810547,-1.1787824630737305,-1.6253118515014648
1761396645386764500,3.1567646484375,1.3753225803375244,-0.2104368805885315,-1.3759334087371826
1761396645406142000,3.176141845703125,1.4487769603729248,0.7064448595046997,-0.3052709102630615
1761396645425505500,3.195505615234375,1.4046432971954346,0.930014967918396,0.5732801556587219
1761396645444896300,3.214896240234375,1.2389509677886963,0.6545228362083435,0.8477032780647278
1761396645464273400,3.2342734375,0.983005940914154,0.25533416867256165,0.7759287357330322
1761396645483637200,3.25363720703125,0.6653653979301453,-0.09391776472330093,0.5891621708869934
1761396645503028000,3.273028076171875,0.37918344140052795,-0.14858859777450562,0.4355340898036957
1761396645522405000,3.292405029296875,0.20402298867702484,0.14248012006282806,0.19027891755104065
1761396645541768700,3.311768798828125,0.09544488787651062,0.4172086715698242,-0.1188097894191742
1761396645561159400,3.331159423828125,0.051769305020570755,0.3271087110042572,-0.2408265322446823
1761396645580536800,3.350536865234375,0.08108997344970703,0.0594048947095871,-0.08108997344970703
1761396645599900400,3.369900390625,0.04978405311703682,-0.4243861436843872,0.20127417147159576
1761396645619291100,3.389291015625,0.12400199472904205,-1.0211838483810425,0.3414636254310608
1761396645638668300,3.408668212890625,0.4277457892894745,-1.7462595701217651,-0.09239064902067184
1761396645658032000,3.4280322265625,0.4781406819820404,-2.3413774967193604,-0.6931589245796204
1761396645677422800,3.4474228515625,0.5154023766517639,-1.9189766645431519,-0.672695517539978
1761396645696800000,3.466800048828125,0.6740699410438538,-1.5281871557235718,-0.5798467397689819
1761396645716163800,3.486163818359375,0.4277457892894745,-1.2372710704803467,-0.8863393664360046
1761396645735554600,3.505554443359375,-0.10246963053941727,0.323596328496933,-1.1047172546386719
1761396645754931700,3.524931640625,-0.2886253297328949,2.187291383743286,-1.0355387926101685
1761396645774295300,3.54429541015625,-0.21196399629116058,2.973146438598633,-0.48577627539634705
1761396645793686000,3.56368603515625,-0.19821994006633759,2.351456642150879,0.23303823173046112
1761396645813063400,3.5830634765625,-0.00015271181473508477,1.0549331903457642,0.7421793937683105
1761396645832427000,3.602427001953125,0.29595550894737244,-0.25289076566696167,1.0535588264465332
1761396645851817700,3.621817626953125,0.1635543555021286,-0.9956810474395752,1.1389247179031372
1761396645871195000,3.64119482421875,-0.40102121233940125,-1.058903694152832,0.7626428008079529
1761396645890558700,3.660558837890625,-1.0060654878616333,-0.5001311898231506,0.18554484844207764
1761396645909949400,3.679949462890625,-1.3235533237457275,0.284196674823761,-0.2680092453956604
1761396645929326600,3.69932666015625,-1.2960652112960815,0.550373375415802,-0.3509317636489868
1761396645948690400,3.7186904296875,-1.0784507989883423,0.13560809195041656,-0.16721943020820618
1761396645968081200,3.7380810546875,-0.8124268651008606,-0.7548545002937317,-0.0925433561205864
1761396645987458300,3.757458251953125,-0.6447492837905884,-1.7509936094284058,-0.22708246111869812
1761396646006822000,3.77682177734375,-0.6016845703125,-2.3569540977478027,-0.45141613483428955
1761396646026212600,3.796212646484375,-0.7032378911972046,-1.563463568687439,-0.3746020793914795
1761396646045590000,3.815590087890625,-1.398992896080017,-0.2582356929779053,-0.04978405311703682
1761396646064953600,3.83495361328125,-1.3545538187026978,0.03680354729294777,-0.5225798487663269
1761396646084344300,3.85434423828125,-0.7776085734367371,-1.1522105932235718,-1.1580137014389038
1761396646103721500,3.873721435546875,-0.5847335457801819,-1.5225367546081543,-1.5107779502868652
1761396646123085300,3.893085205078125,-0.5790832042694092,-0.12965233623981476,-1.8172706365585327
1761396646142476000,3.91247607421875,-0.9423846006393433,1.4961175918579102,-2.1368963718414307
1761396646161853200,3.931853271484375,-1.251473307609558,2.2586076259613037,-1.9515042304992676
1761396646181216800,3.951216796875,-0.9472714066505432,2.41009783744812,-0.7230904698371887
1761396646200607500,3.970607421875,-0.08674030750989914,2.1272754669189453,0.9523108601570129
1761396646219985000,3.98998486328125,0.38193225860595703,1.5430002212524414,2.412083148956299
1761396646239348500,4.009348388671875,0.305118203163147,1.1503781080245972,3.2878854274749756
1761396646258739200,4.0287392578125,0.1247655525803566,1.03828763961792,3.2555105686187744
1761396646278116400,4.048116455078125,0.22738789021968842,0.9935430884361267,2.606943368911743
1761396646297480200,4.067480224609375,0.39918869733810425,1.0080506801605225,1.8743847608566284
1761396646316871000,4.086870849609375,0.4506525695323944,0.5767925381660461,1.2395617961883545
1761396646336248000,4.106248046875,0.4159869849681854,0.016340164467692375,0.7441646456718445
1761396646355625200,4.125625244140625,0.3298575282096863,-0.34192174673080444,0.25472331047058105
1761396646375002600,4.145002685546875,0.2226538211107254,-0.4918847680091858,-0.25777754187583923
1761396646394379800,4.1643798828125,0.5183038711547852,-0.8602256774902344,-0.4543176591396332
1761396646413743400,4.183743408203125,1.1346487998962402,-1.6790664196014404,-0.6963658928871155
1761396646433134000,4.203134033203125,1.136786699295044,-2.6889495849609375,-1.537655234336853
1761396646452511500,4.222511474609375,0.6986565589904785,-3.6525611877441406,-3.3535513877868652
1761396646471875000,4.241875,0.5824428796768188,0.19348587095737457,-3.529017210006714
1761396646491265800,4.261265869140625,0.8206732869148254,3.310028553009033,-2.047559976577759
1761396646510643000,4.280642822265625,1.4229687452316284,2.873120069503784,0.6221479177474976
1761396646530006800,4.3000068359375,1.1270132064819336,1.2562073469161987,2.4493448734283447
1761396646549397500,4.3193974609375,0.8570187091827393,0.5648810267448425,2.0031208992004395
1761396646568774700,4.338774658203125,0.6088619828224182,1.259719729423523,0.660936713218689
1761396646588138500,4.358138427734375,0.15240639448165894,1.5488032102584839,-0.26067906618118286
1761396646607529000,4.377529052734375,0.13408097624778748,1.1149489879608154,-0.6606312990188599
1761396646626906400,4.39690625,0.4590517282485962,0.37918344140052795,-0.7421793937683105
1761396646646270000,4.41627001953125,0.9095515608787537,-0.5102101564407349,-0.7085828185081482
1761396646665660700,4.43566064453125,1.2276502847671509,-1.1702306270599365,-0.8538117408752441
1761396646685038000,4.4550380859375,1.3150014877319336,-1.584079623222351,-1.3441693782806396
1761396646704401700,4.474401611328125,1.3667707443237305,-1.8372758626937866,-2.036412000656128
1761396646723792400,4.49379248046875,1.674943208694458,-2.184847831726074,-2.8480753898620605
1761396646743169500,4.51316943359375,2.0182392597198486,-2.774315595626831,-3.83917498588562
1761396646762533400,4.532533447265625,2.0614566802978516,-2.46736478805542,-4.119095802307129
1761396646781924000,4.551924072265625,2.0440475940704346,-0.9556705355644226,-2.9810874462127686
1761396646801301200,4.57130126953125,1.3913573026657104,0.22754059731960297,-2.1274282932281494
1761396646820664800,4.590664794921875,1.063179612159729,0.18096350133419037,-1.570641040802002
1761396646840055600,4.6100556640625,0.9046648144721985,0.25655585527420044,-0.671015739440918
1761396646859433000,4.629432861328125,0.7968502640724182,1.4229687452316284,0.45416492223739624
1761396646878796500,4.648796630859375,1.0075925588607788,1.9689134359359741,1.5211623907089233
1761396646898187300,4.668187255859375,1.088987946510315,1.2278029918670654,2.3816933631896973
1761396646917564400,4.687564453125,1.0045382976531982,0.7585195899009705,2.5591444969177246
1761396646936928300,4.70692822265625,0.7965448498725891,1.3707412481307983,2.1222360134124756
1761396646956319000,4.726319091796875,0.3429907262325287,2.0489344596862793,1.629893183708191
1761396646975696100,4.745696044921875,-0.11270131915807724,1.704111099243164,1.3371446132659912
1761396646995060000,4.76506005859375,-0.2423536479473114,0.6537593007087708,1.207950472831726
1761396647014450700,4.78445068359375,-0.12094775587320328,-0.3968980014324188,0.9840749502182007
1761396647033827800,4.803827880859375,0.01695101149380207,-0.8709154725074768,0.7525638341903687
1761396647053191400,4.82319140625,-0.01954711228609085,-0.901915967464447,0.44301697611808777
1761396647072582100,4.84258203125,-0.23807771503925323,-1.290414810180664,-0.06016845628619194
1761396647091959600,4.86195947265625,-0.2713688910007477,-2.1799612045288086,-0.534338653087616
1761396647111323100,4.8813232421875,-0.09666658192873001,-2.534558057785034,-0.4859289824962616
1761396647130713900,4.9007138671875,0.27533939480781555,-2.4427781105041504,-0.21028417348861694
1761396647150091000,4.920091064453125,0.540905237197876,-2.7700395584106445,-0.9710944294929504
1761396647169454800,4.939454833984375,-0.23914669454097748,-1.2045907974243164,-1.7651958465576172
1761396647188845600,4.958845458984375,-1.2751436233520508,0.372464120388031,-1.4655753374099731
1761396647208222700,4.97822265625,-1.8401774168014526,1.7997087240219116,0.6117635369300842
1761396647227586300,4.99758642578125,-1.4188454151153564,2.435906171798706,3.095468521118164
1761396647246977000,5.01697705078125,-0.9611681699752808,1.7500773668289185,4.5314178466796875
1761396647266354400,5.0363544921875,-0.733474850654602,1.4785557985305786,5.088204860687256
1761396647285718000,5.055718017578125,-0.8629744648933411,1.4903146028518677,4.760943412780762
1761396647305108700,5.075108642578125,-1.2297883033752441,1.1254860162734985,4.102602958679199
1761396647324486000,5.09448583984375,-1.6770811080932617,0.5996993184089661,3.393867254257202
1761396647343849700,5.113849609375,-1.9881551265716553,0.3790307343006134,2.4378914833068848
1761396647363240400,5.133240478515625,-2.258760452270508,0.23746687173843384,1.2096302509307861
1761396647382617600,5.15261767578125,-2.216153860092163,0.18997350335121155,0.4178195297718048
1761396647401981200,5.171981201171875,-1.9783815145492554,0.41797223687171936,0.5065450668334961
1761396647421372200,5.1913720703125,-1.600114345550537,0.20463383197784424,0.7850914597511292
1761396647440749300,5.210749267578125,-1.0815050601959229,-0.6846070885658264,0.5042544007301331
1761396647460113000,5.23011279296875,-0.40361732244491577,-1.5764440298080444,-0.12552911043167114
1761396647479503600,5.249503662109375,-0.012675080448389053,-1.640277624130249,-1.0482138395309448
1761396647498880800,5.268880859375,-0.1582094430923462,-1.100441336631775,-1.8229209184646606
1761396647518244600,5.28824462890625,-0.5738909840583801,-0.12216944992542267,-1.3389772176742554
1761396647537635300,5.30763525390625,-1.1018157005310059,1.3011046648025513,-0.2489202618598938
1761396647557012500,5.327012451171875,-1.3230952024459839,1.9125627279281616,0.007024743594229221
1761396647576376300,5.346376220703125,-0.8990144729614258,0.6728482842445374,-0.8388460278511047
1761396647595767000,5.36576708984375,-0.4891359508037567,-0.6175665855407715,-1.7580183744430542
1761396647615144200,5.385144287109375,0.15240639448165894,-0.6187883019447327,-1.6738742589950562
1761396647634507800,5.4045078125,0.9775083065032959,-0.7418739795684814,-0.5031854510307312
1761396647653898500,5.4238984375,0.9694145917892456,-0.8502993583679199,1.2563600540161133
1761396647673276000,5.44327587890625,0.09712471067905426,-0.672695517539978,2.270824670791626
1761396647692639500,5.462639404296875,-0.474017471075058,-0.2779355049133301,1.9481446743011475
1761396647712030200,5.4820302734375,-0.5137225389480591,0.2582356929779053,0.7284353375434875
1761396647731407400,5.501407470703125,-0.46134239435195923,0.5914528369903564,-0.5537330508232117
1761396647750771200,5.520771240234375,-0.45202696323394775,0.7360709309577942,-1.2140588760375977
1761396647770162000,5.540161865234375,-0.5108210444450378,0.9124531149864197,-1.170383334159851
1761396647789539000,5.5595390625,-0.5841227173805237,0.9842276573181152,-0.8157865405082703
1761396647808902700,5.578902587890625,-0.6192464232444763,0.7896727919578552,-0.44393324851989746
1761396647828293400,5.59829345703125,-0.4593571424484253,0.474475622177124,-0.28282228112220764
1761396647847670800,5.6176708984375,-0.16248537600040436,-0.15378080308437347,-0.6175665855407715
1761396647867034400,5.637034423828125,0.08719844371080399,-1.094791054725647,-1.3814311027526855
1761396647886425000,5.656425048828125,-0.0393996499478817,-1.2430741786956787,-1.8936264514923096
1761396647905802200,5.67580224609375,-0.8076927661895752,-0.08383878320455551,-1.1668709516525269
1761396647925166000,5.695166015625,-0.797613799571991,0.6560499668121338,0.05497625470161438
1761396647944556800,5.714556884765625,-0.041232191026210785,-0.3443651497364044,0.7437065243721008
1761396647963934000,5.733933837890625,0.4921901822090149,-1.3647854328155518,1.113879919052124
1761396647983297500,5.753297607421875,0.9753703474998474,-1.1535850763320923,1.2155860662460327
1761396648002688300,5.772688232421875,1.5211623907089233,-0.09208522737026215,1.1606098413467407
1761396648022065700,5.792065673828125,1.6561596393585205,0.9956810474395752,1.2177239656448364
1761396648041429200,5.81142919921875,1.341115117073059,0.6707102656364441,1.3211098909378052
1761396648060820000,5.830820068359375,0.7233958840370178,0.23334364593029022,1.232537031173706
1761396648080197000,5.850197021484375,0.3793361485004425,0.41537612676620483,0.7362236380577087
1761396648099561000,5.86956103515625,0.28847262263298035,1.1238062381744385,0.3133646547794342
1761396648118951700,5.88895166015625,0.10323318839073181,1.2146698236465454,0.3139754831790924
1761396648138328800,5.908328857421875,-0.04337015375494957,0.8646543025970459,0.6062659025192261
1761396648157706000,5.9277060546875,-0.09116895496845245,0.5520532131195068,0.7870767116546631
1761396648177083100,5.947083251953125,-0.17439688742160797,0.33443886041641235,0.8648070096969604
1761396648196460500,5.96646044921875,-0.26403874158859253,-0.08857285231351852,0.9623898267745972
1761396648215824100,5.98582421875,-0.14431266486644745,-0.4947862923145294,0.7857022881507874
1761396648235214800,6.00521484375,0.11117420345544815,-0.5367820262908936,0.24846212565898895
1761396648254592000,6.024592041015625,-0.0024433890357613564,-0.16660858690738678,-0.25533416867256165
1761396648273955800,6.043955810546875,-0.42698222398757935,0.12705622613430023,-0.2351761907339096
1761396648293346600,6.0633466796875,-0.6969767212867737,0.13484452664852142,-0.07605048269033432
1761396648312723700,6.0827236328125,-1.1630531549453735,-0.3443651497364044,-0.22341738641262054
1761396648332087600,6.102087646484375,-1.0286667346954346,-1.0608890056610107,-1.4203726053237915
1761396648351478000,6.12147802734375,-0.23120568692684174,-1.1320526599884033,-2.996358633041382
1761396648370855400,6.14085546875,0.6969767212867737,-0.6442911624908447,-3.0479750633239746
1761396648390219000,6.160218994140625,0.7808154821395874,-0.24647687375545502,-1.3189719915390015
1761396648409609700,6.179609619140625,0.15744587779045105,-0.5241069197654724,0.4677563011646271
1761396648428987000,6.19898681640625,-0.19745637476444244,-1.0697462558746338,1.2294827699661255
1761396648448350700,6.218350830078125,-0.3155026137828827,-1.295607089996338,1.0578347444534302
1761396648467741400,6.237741455078125,-0.5680879354476929,-1.1441168785095215,0.377198189496994
1761396648487118600,6.25711865234375,-0.5296045541763306,-0.197609081864357,-0.4558447599411011
1761396648506482400,6.276482421875,-0.49295374751091003,0.4196520745754242,-0.9936957955360413
1761396648525873200,6.295873046875,-0.48959407210350037,0.7450809478759766,-1.060125470161438
1761396648545250300,6.315250244140625,-0.47920966148376465,0.8823688626289368,-0.4760027229785919
1761396648564627500,6.33462744140625,-0.5274665951728821,0.7221741676330566,0.16737215220928192
1761396648584004600,6.354004638671875,-0.5086830258369446,0.30374380946159363,0.3549022674560547
1761396648603381800,6.3733818359375,-0.3352024257183075,-0.35505497455596924,0.06368082761764526
1761396648622745600,6.39274560546875,-0.12293300777673721,-1.2461284399032593,-0.7783721089363098
1761396648642136300,6.41213623046875,0.31534990668296814,-1.386928677558899,-2.1358275413513184
1761396648661513500,6.431513427734375,0.8037222623825073,-1.2927055358886719,-3.0423247814178467
1761396648680877300,6.450877197265625,1.2244433164596558,-1.659213900566101,-3.4412081241607666
1761396648700268000,6.47026806640625,1.5572023391723633,-2.4866065979003906,-3.9358415603637695
1761396648719645200,6.489645263671875,1.7897825241088867,-1.871788740158081,-3.739912271499634
1761396648739008800,6.5090087890625,1.3415732383728027,0.47142136096954346,-0.9756757616996765
1761396648758399500,6.5283994140625,1.148698329925537,1.3055332899093628,2.310987949371338
1761396648777777000,6.54777685546875,1.12655508518219,0.1426328420639038,3.766178846359253
1761396648797140500,6.567140380859375,0.9736905097961426,-1.0940274000167847,3.4963369369506836
1761396648816531200,6.58653125,0.5954233407974243,-1.159998893737793,2.2931206226348877
1761396648835908400,6.605908447265625,-0.23334364593029022,-0.674680769443512,1.0045382976531982
1761396648855272200,6.625272216796875,-1.2734638452529907,-0.13316470384597778,0.055739812552928925
1761396648874663000,6.644662841796875,-2.2312722206115723,0.5354076027870178,-0.43171629309654236
1761396648894040000,6.6640400390625,-2.932677745819092,0.9801044464111328,-0.3246653079986572
1761396648913403600,6.683403564453125,-3.3132355213165283,0.833195686340332,0.1569877415895462
1761396648932794400,6.70279443359375,-3.3085014820098877,0.13591352105140686,0.5819846987724304
1761396648952171500,6.722171630859375,-3.042630195617676,-0.44546034932136536,0.719730794429779
1761396648971535400,6.741535400390625,-2.6923093795776367,-0.7447755336761475,0.4874561131000519
1761396648990926000,6.760926025390625,-2.248223304748535,-0.818840742111206,-0.043981000781059265
1761396649010303200,6.78030322265625,-1.708081603050232,-0.9721634387969971,-0.7351546883583069
1761396649029667000,6.7996669921875,-1.1567920446395874,-1.3078240156173706,-1.4864968061447144
1761396649049057500,6.8190576171875,-0.8150229454040527,-2.2034788131713867,-2.440945625305176
1761396649068435000,6.83843505859375,-0.7395833134651184,-3.1857211589813232,-3.1264688968658447
1761396649087798500,6.857798583984375,-0.6529957056045532,-4.012960910797119,-4.332128524780273
1761396649107189200,6.877189208984375,-0.9474241137504578,-2.054279327392578,-5.62437629699707
1761396649126566400,6.89656640625,-1.2389509677886963,2.1187236309051514,-2.218139171600342
1761396649145930200,6.91593017578125,-0.32665055990219116,2.1653008460998535,2.6402344703674316
1761396649165321000,6.935321044921875,0.5286883115768433,-0.2635805904865265,5.455018520355225
1761396649184698000,6.954697998046875,0.2948864996433258,-1.951351523399353,5.637814998626709
1761396649204062000,6.97406201171875,-0.7721109390258789,-1.947075605392456,3.94057559967041
1761396649223452700,6.99345263671875,-1.9548639059066772,-1.4138059616088867,1.4825263023376465
1761396649242829800,7.012829833984375,-3.1869428157806396,-1.2847645282745361,-0.6757497787475586
1761396649262193400,7.032193359375,-4.2655463218688965,-1.40449059009552,-1.9127154350280762
1761396649281584000,7.051584228515625,-4.891359329223633,-1.8206303119659424,-2.0923044681549072
1761396649300961500,7.07096142578125,-4.750101089477539,-2.1736998558044434,-1.46511709690094
1761396649320325000,7.0903251953125,-4.407110214233398,-2.163315534591675,-0.5969504714012146
1761396649339715800,7.1097158203125,-3.8350517749786377,-2.2407405376434326,-0.029320668429136276
1761396649359093000,7.129093017578125,-2.9988019466400146,-2.340766668319702,0.2354816198348999
1761396649378456800,7.148456787109375,-2.395437479019165,-2.366575002670288,0.1119377613067627
1761396649397847600,7.16784765625,-1.9047744274139404,-2.5444841384887695,-0.7727217674255371
1761396649417224700,7.187224609375,-1.1610679626464844,-3.3830249309539795,-1.937912940979004
1761396649436588300,7.20658837890625,-1.2259705066680908,-3.1666321754455566,-1.9678444862365723
1761396649455979000,7.22597900390625,-1.9579181671142578,-2.024653196334839,-0.4039227366447449
1761396649475356200,7.245356201171875,-1.9455485343933105,-1.8575865030288696,0.9947647452354431
1761396649494720000,7.264719970703125,-1.3278292417526245,-2.013352632522583,0.5691569447517395
1761396649514110700,7.28411083984375,-1.4457226991653442,-0.3686463236808777,0.5544965863227844
1761396649533487900,7.30348779296875,-1.5911043882369995,0.14202198386192322,1.3400461673736572
1761396649552851500,7.3228515625,-1.4822208881378174,-0.7756233215332031,2.001746416091919
1761396649572242200,7.3422421875,-1.254069447517395,-1.7497719526290894,1.9143953323364258
1761396649591619600,7.36161962890625,-1.211920976638794,-2.033968687057495,1.3343958854675293
1761396649610983200,7.380983154296875,-1.5704883337020874,-1.96708083152771,0.8017370104789734
1761396649630374000,7.400373779296875,-1.984642744064331,-1.6802880764007568,0.3658975064754486
1761396649649751000,7.4197509765625,-2.3193869590759277,-1.301868200302124,-0.05024218559265137
1761396649669115000,7.439114990234375,-2.502183198928833,-1.050046443939209,-0.4227063059806824
1761396649688505600,7.458505615234375,-2.427201509475708,-0.9846857786178589,-0.5789304971694946
1761396649707882800,7.4778828125,-2.0871124267578125,-0.9263498783111572,-0.5589252710342407
1761396649727246300,7.497246337890625,-1.6179816722869873,-1.007897973060608,-0.446529358625412
1761396649746637000,7.516636962890625,-1.2059651613235474,-1.4579397439956665,-0.478751540184021
1761396649766014500,7.536014404296875,-1.0112576484680176,-1.7494665384292603,-1.1784770488739014
1761396649785378000,7.5553779296875,-0.9184088706970215,-1.7726787328720093,-2.0180866718292236
1761396649804768800,7.574768798828125,-0.9422318935394287,-1.2198619842529297,-2.2350900173187256
1761396649824146000,7.59414599609375,-1.057223916053772,-1.537349820137024,-1.09219491481781
1761396649843509800,7.613509765625,-1.0320264101028442,-1.9577654600143433,1.656312346458435
1761396649862900500,7.632900390625,-0.8689302206039429,-2.108339309692383,3.097759246826172
1761396649882277600,7.652277587890625,-0.2635805904865265,-0.6511631608009338,2.3421411514282227
1761396649901641200,7.67164111328125,0.04367557913064957,0.5671716928482056,1.2155860662460327
1761396649921032000,7.691031982421875,0.15423893928527832,0.80937260389328,0.9976662993431091
1761396649940409300,7.710409423828125,0.19806721806526184,0.6878139972686768,1.0188932418823242
1761396649959773000,7.72977294921875,0.15316994488239288,0.3817795515060425,0.5413633584976196
1761396649979163600,7.74916357421875,0.091321662068367,0.08872556686401367,-0.16706672310829163
1761396649998540800,7.768540771484375,-0.05757235363125801,0.2907632887363434,-0.45767730474472046
1761396650017904600,7.787904541015625,-0.5522059202194214,1.1807677745819092,-0.37796175479888916
1761396650037295400,7.80729541015625,-1.1363285779953003,1.744579792022705,0.00916270911693573
1761396650056672500,7.826672607421875,-1.372726559638977,1.1230427026748657,0.4746283292770386
1761396650076036000,7.8460361328125,-1.298661231994629,-0.2585411071777344,0.5551074743270874
1761396650095426800,7.8654267578125,-1.1651911735534668,-1.1215155124664307,0.10155335813760757
1761396650114804000,7.884803955078125,-0.9810206890106201,-0.9384140968322754,-0.2489202618598938
1761396650134167800,7.904167724609375,-0.9556705355644226,-0.21272756159305573,-0.2516690790653229
1761396650153558500,7.92355859375,-1.209324836730957,0.3295520842075348,-0.15683503448963165
1761396650172935700,7.942935791015625,-1.4396142959594727,0.3058817684650421,-0.09498675167560577
1761396650192299500,7.962299560546875,-1.3040062189102173,-0.06688777357339859,-0.046577103435993195
1761396650211690000,7.98168994140625,-0.8066238164901733,-0.11651911586523056,0.06169557198882103
1761396650231067400,8.0010673828125,-0.6264238357543945,-0.0018325417768210173,0.3897205591201782
1761396650250431000,8.020430908203124,-0.8982508778572083,0.11270131915807724,0.9881981611251831
1761396650269821700,8.03982177734375,-1.0865445137023926,0.17057909071445465,1.5390297174453735
1761396650289198800,8.05919873046875,-0.9877400398254395,-0.2648022770881653,0.9492566585540771
1761396650308562700,8.078562744140624,-0.5086830258369446,-0.5384618639945984,-0.7473716139793396
1761396650327953400,8.097953369140624,0.4234698712825775,-0.8124268651008606,-2.520355701446533
1761396650347330600,8.11733056640625,1.298966646194458,-0.9596410393714905,-3.011324167251587
1761396650366694400,8.1366943359375,1.2534586191177368,-0.545181155204773,-2.2170701026916504
1761396650386084900,8.1560849609375,0.44484952092170715,-0.008246437646448612,-0.9031376838684082
1761396650405462300,8.175462158203125,-0.34039464592933655,0.11774080991744995,-0.03680354729294777
1761396650424825900,8.194825927734374,-0.545181155204773,-0.43477052450180054,0.07391251623630524
1761396650444216600,8.214216552734374,-0.1985253542661667,-0.9979717135429382,-0.1626380831003189
1761396650463593700,8.23359375,0.08154810965061188,-0.9868237376213074,-0.1181989461183548
1761396650482957600,8.25295751953125,-0.01954711228609085,-0.32726141810417175,0.05085303261876106
1761396650502348300,8.272348388671874,-0.3095468580722809,0.20066332817077637,0.19592925906181335
1761396650521725400,8.291725341796875,-0.4343124032020569,0.22815145552158356,0.18279604613780975
1761396650541089000,8.311089111328124,-0.6158867478370667,-0.08658760040998459,-0.009315420873463154
1761396650560479700,8.330479736328124,-0.9362761378288269,-0.6401679515838623,0.028404397889971733
1761396650579857200,8.349857177734375,-0.9953756332397461,-0.8040276765823364,0.30633988976478577
1761396650599220700,8.369220703125,-0.8425110578536987,-0.40712970495224,0.7204943299293518
1761396650618611500,8.388611572265624,-0.753480076789856,-0.15530791878700256,1.1506835222244263
1761396650637988600,8.407988525390625,-0.6079457402229309,-0.251974493265152,1.4936742782592773
1761396650657352400,8.4273525390625,-0.3736858069896698,0.2226538211107254,1.4825263023376465
1761396650676743000,8.446742919921874,-0.4695888161659241,0.69651859998703,1.3301198482513428
1761396650696120300,8.466120361328125,-0.9558232426643372,0.2848075330257416,0.7415685653686523
1761396650715484000,8.48548388671875,-1.3539429903030396,-0.2591519355773926,-0.7319477200508118
1761396650734874600,8.50487451171875,-1.1160179376602173,-0.26602399349212646,-2.184084415435791
1761396650754251800,8.524251708984375,-0.45737189054489136,0.09651386737823486,-2.686964273452759
1761396650773615600,8.54361572265625,0.37292224168777466,0.284654825925827,-1.5043641328811646
1761396650793006300,8.56300634765625,0.441795289516449,-0.16156910359859467,0.4225535988807678
1761396650812383500,8.582383544921875,-0.2157817929983139,-1.0721896886825562,1.5303250551223755
1761396650831747000,8.6017470703125,-0.6505523324012756,-1.2371183633804321,1.359745979309082
1761396650851138000,8.621137939453124,-0.5639647245407104,-0.7828007340431213,0.5728220343589783
1761396650870515200,8.64051513671875,-0.4039227366447449,-0.532353401184082,-0.2486148327589035
1761396650889878800,8.659878662109374,-0.3080197274684906,-0.363454133272171,-0.578472375869751
1761396650909269500,8.67926953125,-0.4372139275074005,-0.61481773853302,-0.05635065957903862
1761396650928646700,8.698646728515625,-0.4683671295642853,-0.8335011005401611,0.7379034757614136
1761396650948010500,8.718010498046874,-0.3171824514865875,-0.39292749762535095,1.1900831460952759
1761396650967401200,8.737401123046874,-0.33535513281822205,-0.2241809368133545,1.2082558870315552
1761396650986778400,8.7567783203125,-0.4262186884880066,-0.5493044257164001,0.9069554805755615
1761396651006142000,8.776141845703124,-0.29091599583625793,-0.5369347333908081,0.5627430081367493
1761396651025532700,8.79553271484375,-0.2790044844150543,-0.26006820797920227,0.7798992395401001
1761396651044910000,8.81491015625,-0.5172349214553833,-0.20875705778598785,1.3473763465881348
1761396651064273700,8.834273681640624,-0.7076665759086609,-0.598783016204834,1.498408317565918
1761396651083664400,8.853664306640624,-0.7568397521972656,-1.10532808303833,0.6992673873901367
1761396651103041500,8.87304150390625,-0.592216432094574,-0.8458707332611084,-0.8971819281578064
1761396651122405400,8.8924052734375,-0.25380703806877136,-0.36696648597717285,-2.299687147140503
1761396651141795800,8.9117958984375,0.16798299551010132,-0.4990622103214264,-2.6312246322631836
1761396651161173200,8.93117333984375,0.7360709309577942,-1.0410364866256714,-1.1538904905319214
1761396651180536800,8.950536865234374,0.6311579346656799,-0.9642223715782166,0.6151232123374939
1761396651199927600,8.969927490234374,-0.04718795046210289,-1.1251806020736694,1.440835952758789
1761396651219304700,8.9893046875,-0.16462333500385284,-1.1592353582382202,0.8347227573394775
1761396651238668500,9.00866845703125,0.2605263590812683,-0.6206207871437073,-0.45645561814308167
1761396651258059300,9.028059326171874,0.61481773853302,-0.2527380585670471,-1.2355912923812866
1761396651277436400,9.0474365234375,0.7146912813186646,0.03008422814309597,-1.0602781772613525
1761396651296800000,9.066800048828124,0.6731536984443665,0.5558710098266602,-0.2727433145046234
1761396651316190700,9.086190673828124,0.6305471062660217,0.4790569543838501,0.49982577562332153
1761396651335568000,9.10556787109375,0.4981459379196167,-0.15897299349308014,0.4569137394428253
1761396651354945300,9.1249453125,0.19409671425819397,-0.22937314212322235,0.10094250738620758
1761396651374322400,9.144322509765624,-0.07589777559041977,-0.03527642786502838,-0.11651911586523056
1761396651393699600,9.163699462890625,-0.26846736669540405,0.43202173709869385,-0.3715478479862213
1761396651413063200,9.183063232421874,-0.3617742955684662,0.5369347333908081,-0.47386476397514343
1761396651432454000,9.202453857421874,-0.3127537965774536,0.17363333702087402,-0.38941511511802673
1761396651451831300,9.221831298828125,-0.06581879407167435,-0.004581354558467865,0.0922379344701767
1761396651471195000,9.24119482421875,-0.0725381150841713,0.2360924631357193,0.7385143637657166
1761396651490585600,9.260585693359374,-0.6801784038543701,-0.012827792204916477,0.3345915973186493
1761396651509962800,9.279962646484375,-0.6969767212867737,-0.17393875122070312,-0.6835380792617798
1761396651529340000,9.29933984375,0.1588202863931656,-0.03924693539738655,-1.7036529779434204
1761396651548717300,9.31871728515625,0.7082774043083191,0.10521844029426575,-2.670776844024658
1761396651568094500,9.338094482421875,0.511431872844696,0.2898470163345337,-2.3586339950561523
1761396651587458000,9.3574580078125,-0.23303823173046112,0.5674771070480347,-1.2470446825027466
1761396651606848800,9.376848876953124,-0.832584798336029,0.668419599533081,-0.37979426980018616
1761396651626226000,9.396225830078125,-1.0091196298599243,-0.1656923145055771,-0.11270131915807724
1761396651645589800,9.41558984375,-0.9153546094894409,-1.4529001712799072,-0.6691831946372986
1761396651664980500,9.43498046875,-0.3064926266670227,-1.0587509870529175,-1.3910518884658813
1761396651684357600,9.454357666015625,0.4396573007106781,0.07727217674255371,-1.0216420888900757
1761396651703721500,9.473721435546874,0.6894938349723816,0.30313295125961304,-0.09727742522954941
1761396651723112000,9.49311181640625,0.42331716418266296,-0.07803573459386826,0.6786513328552246
1761396651742489300,9.5124892578125,0.01695101149380207,-0.4459185004234314,1.0726478099822998
1761396651761853000,9.53185302734375,-0.2919849753379822,-0.241742804646492,1.087613582611084
1761396651781243600,9.55124365234375,-0.5010474920272827,0.011300674639642239,0.8774821162223816
1761396651800620800,9.570620849609375,-0.7146912813186646,-0.25319617986679077,0.42606595158576965
1761396651819984600,9.589984619140624,-0.6534538269042969,-0.3158080279827118,-0.027029991149902344
1761396651839375400,9.609375244140624,-0.1835595965385437,0.0975828468799591,0.3623851239681244
1761396651858752500,9.62875244140625,-0.07666133344173431,0.091321662068367,0.8388460278511047
1761396651878116000,9.6481162109375,-0.03268032893538475,0.15439164638519287,0.8942803740501404
1761396651897506800,9.6675068359375,0.14935214817523956,0.3180987238883972,1.498713731765747
1761396651916884000,9.686884033203125,-0.36314868927001953,-0.0713164210319519,1.8398720026016235
1761396651936247800,9.706247802734374,-1.3163758516311646,-0.2895416021347046,-0.4605788290500641
1761396651955638500,9.725638427734374,-1.1850436925888062,0.5813738703727722,-2.4192605018615723
1761396651975015700,9.745015625,0.1459924876689911,0.35474956035614014,-0.8551861643791199
1761396651994379300,9.764379150390624,0.6678087711334229,-1.082115888595581,1.1677871942520142
1761396652013770000,9.78377001953125,0.39353835582733154,-1.2166550159454346,1.0744802951812744
1761396652033147400,9.8031474609375,0.08063183724880219,-0.5505260825157166,0.1889045089483261
1761396652052511000,9.822510986328124,-0.07513421028852463,0.02473931387066841,-0.8220477104187012
1761396652071901700,9.841901611328124,-0.22967857122421265,0.30603447556495667,-1.6485240459442139
1761396652091278800,9.86127880859375,-0.14736689627170563,0.35169529914855957,-1.8423153162002563
1761396652110642700,9.880642578125,0.24433889985084534,0.5595360994338989,-1.4642008543014526
1761396652130033400,9.900033447265624,0.5926745533943176,0.5769452452659607,-1.1609152555465698
1761396652149410600,9.91941064453125,0.291374146938324,0.20493926107883453,-0.8641961812973022
1761396652168787700,9.93878759765625,-0.1563768982887268,0.20616094768047333,-0.35597124695777893
1761396652188164900,9.958164794921874,-0.22097399830818176,0.17684027552604675,0.011911521665751934
1761396652207542000,9.9775419921875,0.005497625097632408,0.39170581102371216,0.23899398744106293
1761396652226905900,9.99690576171875,-0.08521319180727005,0.3683409094810486,0.545181155204773
1761396652246296600,10.016296630859374,-0.43645036220550537,0.23288552463054657,0.6554391384124756
1761396652265673700,10.035673828125,-0.4671454429626465,0.6568135023117065,0.5819846987724304
1761396652285037300,10.055037353515624,-0.17118994891643524,0.7970029711723328,0.5686988234519958
1761396652304428000,10.074427978515626,0.06429167091846466,0.6128324866294861,0.7287407517433167
1761396652323805400,10.093805419921875,0.13621893525123596,0.629172682762146,1.3760861158370972
1761396652343169000,10.1131689453125,0.275186687707901,0.448361873626709,2.0328996181488037
1761396652362559700,10.132559814453124,-0.425607830286026,-0.42362257838249207,0.904817521572113
1761396652381937000,10.15193701171875,-1.5404040813446045,0.41827765107154846,-2.3932995796203613
1761396652401300700,10.17130078125,-1.2154333591461182,1.5118470191955566,-4.097105503082275
1761396652420691200,10.190691162109376,0.0024433890357613564,0.46073153614997864,-2.5145528316497803
1761396652440068600,10.210068603515625,0.362995982170105,-1.0355387926101685,0.1895153671503067
1761396652459432200,10.22943212890625,0.08780929446220398,-1.0476030111312866,1.1390774250030518
1761396652478823000,10.248822998046874,-0.11086877435445786,-0.41736137866973877,0.29885703325271606
1761396652498200000,10.268199951171875,0.015576604753732681,-0.0847550556063652,-0.7545490860939026
1761396652517564000,10.28756396484375,0.3107685446739197,-0.19180603325366974,-0.9596410393714905
1761396652536954400,10.306954345703126,0.3533751368522644,-0.3570402264595032,-0.5969504714012146
1761396652556331800,10.326331787109375,0.023823043331503868,-0.2692309319972992,-0.1901262104511261
1761396652575695400,10.3456953125,0.011911521665751934,-0.013438640162348747,0.1898207813501358
1761396652595086000,10.365086181640624,0.13362284004688263,-0.08353336155414581,0.36284327507019043
1761396652614463200,10.384463134765625,0.23288552463054657,-0.21532365679740906,0.2564031481742859
1761396652633827000,10.4038271484375,0.20142687857151031,0.10323318839073181,0.14110571146011353
1761396652653217800,10.4232177734375,0.037414394319057465,0.2898470163345337,-0.0647498071193695
1761396652672595000,10.442594970703125,0.019241688773036003,-0.0015271181473508477,-0.16660858690738678
1761396652691958500,10.46195849609375,0.08582404255867004,-0.4080459773540497,-0.10109522193670273
1761396652711349200,10.481349365234376,0.05115845799446106,-0.5135698318481445,0.06154286116361618
1761396652730726400,10.500726318359375,-0.18340688943862915,-0.26312246918678284,-0.13576079905033112
1761396652750103800,10.520103759765625,-0.31657159328460693,-0.06673506647348404,-0.33917292952537537
1761396652769481000,10.53948095703125,-0.2504473626613617,-0.02733541466295719,-0.5146388411521912
1761396652788858000,10.558858154296875,-0.19821994006633759,-0.20600824058055878,-0.488219678401947
1761396652808235300,10.5782353515625,-0.10323318839073181,-0.26403874158859253,-0.20936790108680725
1761396652827612400,10.5976123046875,-0.05375456064939499,-0.20784078538417816,0.12843063473701477
1761396652846989600,10.616989501953125,-0.017409147694706917,-0.19837264716625214,0.4984513521194458
1761396652866353400,10.636353515625,-0.015271181240677834,-0.3106158375740051,0.7942541241645813
1761396652885744000,10.655744140625,0.005344913341104984,-0.3164188861846924,0.7027797698974609
1761396652905121300,10.675121337890625,0.014813045971095562,-0.3170297145843506,0.34909921884536743
1761396652924498400,10.69449853515625,0.014507622458040714,-0.14706148207187653,-0.033596597611904144
1761396652943875800,10.713875732421876,0.03145863488316536,-0.027029991149902344,-0.23105297982692719
1761396652963253000,10.7332529296875,0.14095300436019897,-0.16645587980747223,-0.29320669174194336
1761396652982616600,10.752616455078124,0.17714570462703705,-0.09116895496845245,-0.333064466714859
1761396653002007300,10.77200732421875,0.013591351918876171,0.13835690915584564,-0.24540787935256958
1761396653021384400,10.791384521484375,-0.1241547018289566,0.13576079905033112,-0.00259610079228878
1761396653040761600,10.81076171875,-0.06658235192298889,0.04321744292974472,0.22463907301425934
1761396653060139000,10.830138916015626,0.055892523378133774,-0.09926267713308334,0.4089622497558594
1761396653079516200,10.84951611328125,-0.039857782423496246,-0.23593975603580475,0.5079194903373718
1761396653098879700,10.868879638671874,-0.20035789906978607,-0.13576079905033112,0.35413870215415955
1761396653118270500,10.8882705078125,-0.20005246996879578,-0.08047912269830704,0.1363716572523117
1761396653137647600,10.907647705078125,-0.11575555801391602,-0.06459710001945496,0.017561858519911766
1761396653157025000,10.92702490234375,-0.12843063473701477,0.038483377546072006,-0.16935740411281586
1761396653176402200,10.946402099609376,-0.11422843486070633,-0.02733541466295719,-0.32939937710762024
1761396653195779300,10.965779296875,-0.0022906772792339325,-0.01511846948415041,-0.3915531039237976
1761396653215156500,10.985156494140625,-0.19119518995285034,-0.05100574716925621,-0.23227466642856598
1761396653234533600,11.00453369140625,-0.35383328795433044,-0.09086353331804276,-0.025350160896778107
1761396653253910800,11.023910888671875,-0.3029802441596985,-0.0021379655227065086,-0.006719320081174374
1761396653273288200,11.0432880859375,-0.1698155403137207,0.15927842259407043,-0.08032641559839249
1761396653292665300,11.062665283203126,-0.16783028841018677,0.047798797488212585,-0.18844637274742126
1761396653312042500,11.08204248046875,-0.23868857324123383,0.06398624926805496,-0.2473931461572647
1761396653331419600,11.101419677734375,-0.2725905776023865,0.09391776472330093,-0.10979979485273361
1761396653350796800,11.120796875,-0.21562908589839935,0.1901262104511261,-0.02244863659143448
1761396653370174000,11.140174072265625,-0.31321191787719727,0.28541839122772217,-0.058183200657367706
1761396653389537800,11.159537841796874,-0.3918585181236267,0.18218518793582916,0.05329642444849014
1761396653408928500,11.178928466796876,-0.26067906618118286,-0.09559759497642517,0.03771981969475746
1761396653428305700,11.1983056640625,-0.14049486815929413,0.02886253222823143,-0.21807247400283813
1761396653447669500,11.21766943359375,-0.1322484314441681,0.05467082932591438,-0.197609081864357
1761396653467060000,11.23706005859375,-0.24724042415618896,-0.14751961827278137,-0.013591351918876171
1761396653486437000,11.25643701171875,-0.38544461131095886,-0.1823379099369049,0.0456608310341835
