time,seconds_elapsed,z,y,x
1761396642383295700,0.153295654296875,-0.004734066314995289,-0.10216420143842697,-0.062306419014930725
1761396642402673000,0.1726728515625,0.006108472589403391,-0.07696675509214401,-0.0844496339559555
1761396642422050000,0.192050048828125,0.021990500390529633,-0.01572931744158268,-0.08276980370283127
1761396642441427500,0.211427490234375,0.008704573847353458,0.016798298805952072,-0.08307522535324097
1761396642460804600,0.2308046875,0.0032069480512291193,0.046424392610788345,-0.07467607408761978
1761396642480181800,0.250181640625,0.012827792204916477,0.06139015033841133,0.010078979656100273
1761396642499559200,0.26955908203125,0.012827792204916477,-0.007482878863811493,0.08399149775505066
1761396642518936300,0.288936279296875,0.014202198944985867,-0.03894151374697685,0.047798797488212585
1761396642538313500,0.3083134765625,-0.008704573847353458,-0.01710372418165207,-0.05757235363125801
1761396642557690600,0.327690673828125,-0.02504473738372326,0.004581354558467865,-0.12995775043964386
1761396642577068000,0.347068115234375,0.010537114925682545,-0.042453885078430176,-0.12079504877328873
1761396642596445200,0.366445068359375,0.04077405482530594,-0.06887302547693253,-0.037567105144262314
1761396642615822300,0.385822265625,0.011453386396169662,-0.10460758954286575,0.07681404054164886
1761396642635199500,0.405199462890625,-0.019394399598240852,-0.08322793990373611,0.1363716572523117
1761396642654577000,0.424576904296875,-0.03787253051996231,-0.01832541823387146,0.08551861345767975
1761396642673954000,0.4439541015625,-0.037414394319057465,0.015271181240677834,0.029473381116986275
1761396642693331200,0.463331298828125,-0.02993151545524597,0.01252236869186163,-0.008246437646448612
1761396642712708600,0.48270849609375,-0.0325276181101799,-0.05344913527369499,-0.07024743407964706
1761396642732085800,0.502085693359375,-0.04199574887752533,-0.10185877978801727,-0.12491826713085175
1761396642751463000,0.521462890625,-0.06398624926805496,-0.09498675167560577,-0.1178935244679451
1761396642770840000,0.540840087890625,-0.07925742864608765,-0.0662769302725792,-0.04688252881169319
1761396642790217500,0.560217529296875,-0.058183200657367706,-0.129499614238739,0.04214845970273018
1761396642809594600,0.5795947265625,0.008857285603880882,-0.19058434665203094,0.09513945877552032
1761396642828971800,0.5989716796875,0.06306997686624527,-0.33382803201675415,0.16966283321380615
1761396642848349000,0.618348876953125,0.13117945194244385,-0.4387410581111908,0.2513636350631714
1761396642867726300,0.637726318359375,0.19654010236263275,-0.40728241205215454,0.15927842259407043
1761396642887103500,0.657103515625,0.3859027624130249,-0.252432644367218,0.31382277607917786
1761396642906480600,0.676480712890625,0.587940514087677,-0.16615045070648193,0.4903576374053955
1761396642925858000,0.695858154296875,0.5696150660514832,-0.45859357714653015,0.4781406819820404
1761396642945235200,0.715235107421875,0.5024218559265137,-0.977813720703125,0.47920966148376465
1761396642964612400,0.7346123046875,0.3509317636489868,-1.2314680814743042,0.43736663460731506
1761396642983976200,0.75397607421875,0.2092151790857315,-1.0537115335464478,0.09269607067108154
1761396643003366700,0.77336669921875,0.07834116369485855,-0.5981721878051758,-0.4127800464630127
1761396643022744000,0.792744140625,-0.11468657106161118,-0.22784602642059326,-0.7551599144935608
1761396643042121200,0.812121337890625,-0.27839362621307373,-0.6415423154830933,-0.7620319724082947
1761396643061498400,0.831498291015625,-0.3967452943325043,0.20341213047504425,-0.9002361297607422
1761396643080875800,0.850875732421875,-0.7592831254005432,0.34253260493278503,-0.8667922616004944
1761396643100239400,0.8702392578125,-1.1015102863311768,0.47325390577316284,-0.4799732267856598
1761396643119630000,0.889630126953125,-0.9439117312431335,0.021532366052269936,0.16767756640911102
1761396643139007200,0.90900732421875,-0.4691306948661804,-0.3859027624130249,0.5581616759300232
1761396643158371000,0.92837109375,-0.20524467527866364,-0.2166980654001236,0.06887302547693253
1761396643177761800,0.94776171875,-0.024128466844558716,-0.05650337040424347,-0.4196520745754242
1761396643197139000,0.967138916015625,0.08918370306491852,-0.2588465213775635,-0.2970244884490967
1761396643216516000,0.98651611328125,-0.03527642786502838,-0.5288410186767578,-0.13713520765304565
1761396643235893500,1.0058935546875,-0.14034216105937958,-0.4187358021736145,0.12155860662460327
1761396643255270700,1.025270751953125,0.2489202618598938,-0.20661908388137817,0.1172826737165451
1761396643274634500,1.044634521484375,0.6806365847587585,-0.3480302393436432,-0.15393351018428802
1761396643294025200,1.064025146484375,0.582748293876648,0.05390727147459984,-0.17882554233074188
1761396643313402400,1.08340234375,0.42637139558792114,0.20310671627521515,-0.057114217430353165
1761396643332766000,1.102765869140625,-0.03833066672086716,-0.4068242609500885,0.4421007037162781
1761396643352156700,1.12215673828125,-0.45920443534851074,-1.037218689918518,1.1813786029815674
1761396643371534000,1.1415341796875,-0.15378080308437347,-0.6569662094116211,1.6188979148864746
1761396643390897700,1.160897705078125,0.29061058163642883,0.14660334587097168,1.9423415660858154
1761396643410288400,1.180288330078125,0.32573428750038147,0.5273138880729675,2.062831163406372
1761396643429665500,1.19966552734375,0.4014793634414673,0.22708246111869812,2.144073963165283
1761396643449029400,1.219029296875,0.670404851436615,0.007482878863811493,2.733541488647461
1761396643468420000,1.238420166015625,0.957503080368042,0.18279604613780975,3.1467795372009277
1761396643487797200,1.25779736328125,0.8394568562507629,0.5680879354476929,2.6045000553131104
1761396643507161000,1.2771611328125,0.22723518311977386,0.8507575392723083,1.4861913919448853
1761396643526551800,1.2965517578125,-0.5005893111228943,1.1300674676895142,0.4262186884880066
1761396643545929000,1.315928955078125,-1.0191986560821533,1.3860124349594116,-0.44576579332351685
1761396643565292500,1.33529248046875,-1.2085613012313843,1.332257866859436,-1.2774343490600586
1761396643584683300,1.354683349609375,-1.1509889364242554,0.9851438999176025,-2.0637474060058594
1761396643604060700,1.374060791015625,-1.0489774942398071,0.6247440576553345,-2.2170701026916504
1761396643623424300,1.39342431640625,-0.8586985468864441,0.26755109429359436,-1.7969598770141602
1761396643642815000,1.41281494140625,-0.5671716928482056,-0.12659808993339539,-1.0479084253311157
1761396643662192000,1.432192138671875,-0.23563432693481445,-0.7542436718940735,-0.3226800560951233
1761396643681556000,1.451555908203125,-0.03771981969475746,-1.3269129991531372,0.12812520563602448
1761396643700946700,1.47094677734375,0.07406523078680038,-1.385859727859497,0.21822518110275269
1761396643720323800,1.49032373046875,-0.08002099394798279,-1.45366370677948,0.1301104724407196
1761396643739701200,1.509701171875,-0.5065450668334961,-1.6841058731079102,-0.07513421028852463
1761396643759078400,1.529078369140625,-0.6867450475692749,-1.6195087432861328,-0.5399889945983887
1761396643778455600,1.54845556640625,-0.5044071078300476,-1.3585243225097656,-1.0805888175964355
1761396643797819400,1.5678193359375,-0.27320143580436707,-1.6641006469726562,-1.378376841545105
1761396643817210000,1.587210205078125,-0.38575005531311035,-2.2889974117279053,-1.5478869676589966
1761396643836587300,1.606587158203125,-0.5615213513374329,-1.6088190078735352,-1.1346487998962402
1761396643855950800,1.625950927734375,-0.6894938349723816,-0.23120568692684174,-0.672695517539978
1761396643875341600,1.645341552734375,-1.0558494329452515,1.2911783456802368,-0.5212054252624512
1761396643894719000,1.664718994140625,-1.041494607925415,2.8680806159973145,0.01252236869186163
1761396643914082600,1.68408251953125,-0.6474980711936951,3.691655397415161,0.7082774043083191
1761396643933473300,1.703473388671875,-0.08811471611261368,3.896900177001953,0.897334635257721
1761396643952850400,1.722850341796875,0.40102121233940125,3.2852892875671387,0.7432484030723572
1761396643972214300,1.74221435546875,0.6540647149085999,2.021904468536377,0.8444963097572327
1761396643991605000,1.76160498046875,0.6351284384727478,0.679872989654541,1.133732557296753
1761396644010982100,1.780982177734375,0.4227063059806824,-0.03680354729294777,1.2084085941314697
1761396644030346000,1.800345947265625,0.03298575058579445,-0.19837264716625214,1.1506835222244263
1761396644049736700,1.81973681640625,-0.5005893111228943,0.08200624585151672,1.0190459489822388
1761396644069113900,1.83911376953125,-0.9657495021820068,0.626882016658783,0.7533273696899414
1761396644088477400,1.8584775390625,-1.1456440687179565,0.7805100679397583,0.3892624080181122
1761396644107868200,1.8778681640625,-1.0967762470245361,0.31137940287590027,0.08215895295143127
1761396644127245600,1.89724560546875,-0.8887827396392822,-0.4909684956073761,-0.1582094430923462
1761396644146609200,1.916609130859375,-0.7027797698974609,-1.3020209074020386,-0.31137940287590027
1761396644165999900,1.935999755859375,-0.29091599583625793,-1.836817741394043,-0.554649293422699
1761396644185377000,1.955376953125,-0.033291175961494446,-2.0544321537017822,-0.8209787011146545
1761396644204740900,1.974740966796875,0.17913095653057098,-3.049044132232666,-1.1312891244888306
1761396644224131600,1.994131591796875,0.054365407675504684,-2.9371063709259033,-1.150072693824768
1761396644243508700,2.0135087890625,-0.3975088596343994,-0.49921491742134094,-1.061805248260498
1761396644262872600,2.03287255859375,-0.8632798790931702,1.6786082983016968,-0.9116895198822021
1761396644282263300,2.05226318359375,-0.8044858574867249,2.7443840503692627,-0.3527642786502838
1761396644301640400,2.071640380859375,-0.35383328795433044,2.6661956310272217,0.5731274485588074
1761396644321004300,2.09100439453125,0.009009997360408306,1.2355912923812866,1.3379082679748535
1761396644340395000,2.11039501953125,0.24372805655002594,0.0844496339559555,1.9573073387145996
1761396644359772200,2.129772216796875,0.22311195731163025,-0.2826695740222931,2.2460854053497314
1761396644379135700,2.1491357421875,-0.3223746418952942,-0.2570139765739441,1.909355878829956
1761396644398526500,2.1685263671875,-1.1080769300460815,-0.04443913698196411,1.0286667346954346
1761396644417903900,2.18790380859375,-1.6289769411087036,0.058335911482572556,0.27976804971694946
1761396644437267500,2.207267333984375,-1.7193822860717773,-0.1325538605451584,0.02351761981844902
1761396644456658200,2.226658203125,-1.2974395751953125,-0.6117635369300842,0.007024743594229221
1761396644476035300,2.246035400390625,-0.5311316847801208,-1.5066547393798828,-0.1572931706905365
1761396644495399200,2.265399169921875,0.11774080991744995,-2.3497767448425293,-0.2718270421028137
1761396644514790000,2.284789794921875,0.43110546469688416,-2.455605983734131,0.10323318839073181
1761396644534167000,2.3041669921875,0.4518742561340332,-1.5231475830078125,0.19195875525474548
1761396644553531000,2.32353076171875,0.2721324563026428,-0.18187977373600006,-0.6053496599197388
1761396644572921600,2.342921630859375,0.1256818175315857,-0.24281178414821625,-1.21650230884552
1761396644592298800,2.362298828125,-0.28969430923461914,-2.0296926498413086,-1.4583978652954102
1761396644611662300,2.381662353515625,-0.4230117201805115,-1.9950271844863892,-1.609582543373108
1761396644631053000,2.401052978515625,-0.025350160896778107,0.8402203917503357,-0.446529358625412
1761396644650430500,2.420430419921875,0.4127800464630127,1.5935478210449219,1.8540741205215454
1761396644669794000,2.4397939453125,0.7094991207122803,0.2583884000778198,3.556047201156616
1761396644689184800,2.459184814453125,0.5074613690376282,-0.462564080953598,3.6954731941223145
1761396644708562000,2.47856201171875,0.12461283802986145,-0.028557108715176582,2.1097137928009033
1761396644727925800,2.49792578125,-0.2098260372877121,0.50853031873703,0.20722992718219757
1761396644747316500,2.51731640625,-0.6720846891403198,0.6265766024589539,-0.9017632603645325
1761396644766693600,2.536693603515625,-1.0782980918884277,0.3248180150985718,-1.3137797117233276
1761396644786057500,2.556057373046875,-0.9891144037246704,-0.1053711548447609,-1.129456639289856
1761396644805448200,2.5754482421875,-0.5286883115768433,-0.8480086922645569,-0.6401679515838623
1761396644824825300,2.594825439453125,-0.011911521665751934,-1.3427950143814087,-0.15271180868148804
1761396644844189200,2.614189208984375,0.1966928243637085,-1.6489821672439575,-0.006719320081174374
1761396644863579600,2.63357958984375,0.08490777015686035,-1.799556016921997,-0.047798797488212585
1761396644882957000,2.65295703125,-0.01710372418165207,-1.5014625787734985,-0.47829338908195496
1761396644902320600,2.672320556640625,-0.055739812552928925,-0.9910996556282043,-0.8313631415367126
1761396644921711400,2.69171142578125,-0.18844637274742126,-0.45355409383773804,-0.2473931461572647
1761396644941088800,2.7110888671875,-0.5844281315803528,-0.32970482110977173,0.8593093752861023
1761396644960452400,2.730452392578125,-0.8609892129898071,-0.409420371055603,1.1274713277816772
1761396644979843000,2.749843017578125,-0.6843016147613525,0.10735640674829483,0.5070032477378845
1761396644999220200,2.76922021484375,-0.48455458879470825,0.5192201733589172,-0.15423893928527832
1761396645018597600,2.78859765625,-0.39201122522354126,0.5442649126052856,-0.3900259733200073
1761396645037974800,2.807974853515625,-0.1844758689403534,0.6032116413116455,0.15087927877902985
1761396645057352000,2.82735205078125,-0.07711946964263916,0.5224271416664124,0.8761076927185059
1761396645076715500,2.846715576171875,-0.11987877637147903,0.1575985997915268,1.0784507989883423
1761396645096106200,2.866106201171875,-0.12797249853610992,0.12888877093791962,0.7266027927398682
1761396645115483600,2.885483642578125,-0.29748260974884033,0.5520532131195068,0.16660858690738678
1761396645134847200,2.90484716796875,-0.5888567566871643,0.9733850955963135,-0.2993151545524597
1761396645154238000,2.924238037109375,-0.5897729992866516,1.0831849575042725,-0.358720064163208
1761396645173615000,2.943614990234375,-0.41232189536094666,0.7012526392936707,-0.0012216945178806782
1761396645192992500,2.962992431640625,-0.2345653474330902,-0.0916270911693573,0.3996468186378479
1761396645212369700,2.98236962890625,-0.11117420345544815,-0.9694145917892456,0.36070531606674194
1761396645231746800,3.001746826171875,-0.14721418917179108,-1.5831633806228638,-0.06963659077882767
1761396645251110700,3.021110595703125,-0.047646086663007736,-1.9165332317352295,-0.6055023670196533
1761396645270501400,3.04050146484375,0.15393351018428802,-1.7543532848358154,-0.9759812355041504
1761396645289878500,3.05987841796875,0.04199574887752533,-0.8699992299079895,-0.9359707236289978
1761396645309242400,3.079242431640625,0.14553436636924744,-0.19806721806526184,-0.5951179265975952
1761396645328632800,3.0986328125,0.6725428104400635,-1.068677306175232,-0.7314895987510681
1761396645348010200,3.11801025390625,1.0358442068099976,-1.7097615003585815,-1.2145171165466309
1761396645367373800,3.137373779296875,1.1836693286895752,-1.1760337352752686,-1.6207305192947388
1761396645386764500,3.1567646484375,1.3765443563461304,-0.20768806338310242,-1.3713520765304565
1761396645406142000,3.176141845703125,1.4499987363815308,0.709346354007721,-0.30068957805633545
1761396645425505500,3.195505615234375,1.4060176610946655,0.9327637553215027,0.577861487865448
1761396645444896300,3.214896240234375,1.2403253316879272,0.6574243903160095,0.8522846102714539
1761396645464273400,3.2342734375,0.9842276573181152,0.2582356929779053,0.7805100679397583
1761396645483637200,3.25363720703125,0.6667397618293762,-0.09116895496845245,0.5938962697982788
1761396645503028000,3.273028076171875,0.38040512800216675,-0.14583978056907654,0.44011545181274414
1761396645522405000,3.292405029296875,0.20524467527866364,0.1453816443681717,0.1948602795600891
1761396645541768700,3.311768798828125,0.09666658192873001,0.42011019587516785,-0.11422843486070633
1761396645561159400,3.331159423828125,0.053143709897994995,0.33001023530960083,-0.2360924631357193
1761396645580536800,3.350536865234375,0.08231166750192642,0.062306419014930725,-0.07650861889123917
1761396645599900400,3.369900390625,0.05115845799446106,-0.42163732647895813,0.20600824058055878
1761396645619291100,3.389291015625,0.12522368133068085,-1.018282413482666,0.3461976945400238
1761396645638668300,3.408668212890625,0.4291202127933502,-1.7435108423233032,-0.08765657991170883
1761396645658032000,3.4280322265625,0.47951510548591614,-2.3386287689208984,-0.6884248852729797
1761396645677422800,3.4474228515625,0.5166240930557251,-1.9162278175354004,-0.668114185333252
1761396645696800000,3.466800048828125,0.6752916574478149,-1.5254383087158203,-0.5752654075622559
1761396645716163800,3.486163818359375,0.4289674758911133,-1.2345223426818848,-0.881605327129364
1761396645735554600,3.505554443359375,-0.10124793648719788,0.32634514570236206,-1.1001359224319458
1761396645754931700,3.524931640625,-0.28725093603134155,2.190040111541748,-1.0309574604034424
1761396645774295300,3.54429541015625,-0.21058958768844604,2.9758951663970947,-0.4811949133872986
1761396645793686000,3.56368603515625,-0.19684553146362305,2.354205369949341,0.2376195788383484
1761396645813063400,3.5830634765625,0.0010689827613532543,1.0576820373535156,0.746913492679596
1761396645832427000,3.602427001953125,0.2973299026489258,-0.24998924136161804,1.0581401586532593
1761396645851817700,3.621817626953125,0.1647760421037674,-0.9929322004318237,1.1436587572097778
1761396645871195000,3.64119482421875,-0.39979952573776245,-1.0561549663543701,0.7673768401145935
1761396645890558700,3.660558837890625,-1.0046910047531128,-0.49738237261772156,0.1901262104511261
1761396645909949400,3.679949462890625,-1.322178840637207,0.28694549202919006,-0.26342788338661194
1761396645929326600,3.69932666015625,-1.294690728187561,0.5531222224235535,-0.34635040163993835
1761396645948690400,3.7186904296875,-1.0772291421890259,0.13835690915584564,-0.16248537600040436
1761396645968081200,3.7380810546875,-0.8110524415969849,-0.752105712890625,-0.08780929446220398
1761396645987458300,3.757458251953125,-0.6433748602867126,-1.7482448816299438,-0.22250111401081085
1761396646006822000,3.77682177734375,-0.6003101468086243,-2.3540525436401367,-0.4468347728252411
1761396646026212600,3.796212646484375,-0.7020162343978882,-1.5607147216796875,-0.37002071738243103
1761396646045590000,3.815590087890625,-1.3976185321807861,-0.25533416867256165,-0.04504998400807381
1761396646064953600,3.83495361328125,-1.3531793355941772,0.0397050715982914,-0.5178457498550415
1761396646084344300,3.85434423828125,-0.7763868570327759,-1.1494618654251099,-1.1534323692321777
1761396646103721500,3.873721435546875,-0.5835118293762207,-1.5197880268096924,-1.5061966180801392
1761396646123085300,3.893085205078125,-0.5777087807655334,-0.12690351903438568,-1.812689185142517
1761396646142476000,3.91247607421875,-0.9411629438400269,1.4988664388656616,-2.13216233253479
1761396646161853200,3.931853271484375,-1.2500989437103271,2.2613565921783447,-1.9469228982925415
1761396646181216800,3.951216796875,-0.946049690246582,2.412846565246582,-0.7183563709259033
1761396646200607500,3.970607421875,-0.0853659063577652,2.1300244331359863,0.9568922519683838
1761396646219985000,3.98998486328125,0.3831539452075958,1.5457489490509033,2.4168171882629395
1761396646239348500,4.009348388671875,0.3064926266670227,1.1531269550323486,3.292466640472412
1761396646258739200,4.0287392578125,0.125987246632576,1.0410364866256714,3.260091781616211
1761396646278116400,4.048116455078125,0.22876229882240295,0.9962918758392334,2.611677408218384
1761396646297480200,4.067480224609375,0.40041038393974304,1.0109522342681885,1.878966212272644
1761396646316871000,4.086870849609375,0.4518742561340332,0.5795413255691528,1.2441431283950806
1761396646336248000,4.106248046875,0.4172086715698242,0.019088976085186005,0.7487460374832153
1761396646355625200,4.125625244140625,0.3312319219112396,-0.33917292952537537,0.25945737957954407
1761396646375002600,4.145002685546875,0.22402822971343994,-0.4891359508037567,-0.2530434727668762
1761396646394379800,4.1643798828125,0.5196782946586609,-0.8574768304824829,-0.44958359003067017
1761396646413743400,4.183743408203125,1.1360231637954712,-1.6761648654937744,-0.6917845010757446
1761396646433134000,4.203134033203125,1.1381611824035645,-2.6862008571624756,-1.533073902130127
1761396646452511500,4.222511474609375,0.7000309824943542,-3.6498124599456787,-3.3488173484802246
1761396646471875000,4.241875,0.5836645364761353,0.19623468816280365,-3.5242831707000732
1761396646491265800,4.261265869140625,0.8220477104187012,3.312777280807495,-2.0429787635803223
1761396646510643000,4.280642822265625,1.4243431091308594,2.875868797302246,0.6267293095588684
1761396646530006800,4.3000068359375,1.1283875703811646,1.2589561939239502,2.4539260864257812
1761396646549397500,4.3193974609375,0.858393132686615,0.5676298141479492,2.00785493850708
1761396646568774700,4.338774658203125,0.6100836992263794,1.2624685764312744,0.6655181050300598
1761396646588138500,4.358138427734375,0.15362808108329773,1.5515520572662354,-0.2560977041721344
1761396646607529000,4.377529052734375,0.13545538485050201,1.1176977157592773,-0.6558972597122192
1761396646626906400,4.39690625,0.460273414850235,0.38193225860595703,-0.7375980615615845
1761396646646270000,4.41627001953125,0.9109259843826294,-0.5074613690376282,-0.7040014863014221
1761396646665660700,4.43566064453125,1.2290246486663818,-1.167481780052185,-0.8492304086685181
1761396646685038000,4.4550380859375,1.3163758516311646,-1.5811781883239746,-1.3395880460739136
1761396646704401700,4.474401611328125,1.3679924011230469,-1.8345270156860352,-2.0318307876586914
1761396646723792400,4.49379248046875,1.676317572593689,-2.1819465160369873,-2.843493938446045
1761396646743169500,4.51316943359375,2.019461154937744,-2.77156662940979,-3.8345937728881836
1761396646762533400,4.532533447265625,2.062831163406372,-2.464616060256958,-4.114361763000488
1761396646781924000,4.551924072265625,2.045422077178955,-0.9527690410614014,-2.976505994796753
1761396646801301200,4.57130126953125,1.3925790786743164,0.23028941452503204,-2.122846841812134
1761396646820664800,4.590664794921875,1.0645540952682495,0.18371231853961945,-1.5660597085952759
1761396646840055600,4.6100556640625,0.9060391783714294,0.25945737957954407,-0.6662816405296326
1761396646859433000,4.629432861328125,0.7980719208717346,1.4257174730300903,0.4587462842464447
1761396646878796500,4.648796630859375,1.0089669227600098,1.9716622829437256,1.5257437229156494
1761396646898187300,4.668187255859375,1.090362310409546,1.230551838874817,2.386274814605713
1761396646917564400,4.687564453125,1.0059127807617188,0.7612683773040771,2.5638787746429443
1761396646936928300,4.70692822265625,0.7977665066719055,1.3734900951385498,2.126817464828491
1761396646956319000,4.726319091796875,0.3443651497364044,2.051683187484741,1.634474515914917
1761396646975696100,4.745696044921875,-0.11147962510585785,1.7068599462509155,1.3417259454727173
1761396646995060000,4.76506005859375,-0.24097923934459686,0.6565080881118774,1.2125318050384521
1761396647014450700,4.78445068359375,-0.11957334727048874,-0.39414918422698975,0.9886562824249268
1761396647033827800,4.803827880859375,0.01832541823387146,-0.8681666851043701,0.7572978734970093
1761396647053191400,4.82319140625,-0.01817270554602146,-0.8991671800613403,0.44759833812713623
1761396647072582100,4.84258203125,-0.2367033064365387,-1.2876659631729126,-0.055587101727724075
1761396647091959600,4.86195947265625,-0.2701472043991089,-2.1772122383117676,-0.5297572612762451
1761396647111323100,4.8813232421875,-0.09544488787651062,-2.531809091567993,-0.4811949133872986
1761396647130713900,4.9007138671875,0.27656111121177673,-2.4400293827056885,-0.20570281147956848
1761396647150091000,4.920091064453125,0.5422796607017517,-2.7672908306121826,-0.9665130972862244
1761396647169454800,4.939454833984375,-0.23777230083942413,-1.2016892433166504,-1.7606145143508911
1761396647188845600,4.958845458984375,-1.2737692594528198,0.3752129375934601,-1.4609938859939575
1761396647208222700,4.97822265625,-1.8388029336929321,1.802457571029663,0.6164975762367249
1761396647227586300,4.99758642578125,-1.41762375831604,2.438654899597168,3.1000497341156006
1761396647246977000,5.01697705078125,-0.9599464535713196,1.75282621383667,4.535998821258545
1761396647266354400,5.0363544921875,-0.7322531342506409,1.48130464553833,5.0927863121032715
1761396647285718000,5.055718017578125,-0.8616000413894653,1.4930634498596191,4.765524864196777
1761396647305108700,5.075108642578125,-1.2285665273666382,1.12823486328125,4.107184410095215
1761396647324486000,5.09448583984375,-1.6757067441940308,0.6024481058120728,3.398601531982422
1761396647343849700,5.113849609375,-1.9869334697723389,0.3817795515060425,2.4426255226135254
1761396647363240400,5.133240478515625,-2.2573859691619873,0.24036839604377747,1.2142115831375122
1761396647382617600,5.15261767578125,-2.2147793769836426,0.19272230565547943,0.42240089178085327
1761396647401981200,5.171981201171875,-1.977159857749939,0.42072105407714844,0.5111264586448669
1761396647421372200,5.1913720703125,-1.5987399816513062,0.20738264918327332,0.7898254990577698
1761396647440749300,5.210749267578125,-1.0802834033966064,-0.681858241558075,0.5089884996414185
1761396647460113000,5.23011279296875,-0.402395635843277,-1.573542594909668,-0.12079504877328873
1761396647479503600,5.249503662109375,-0.011300674639642239,-1.6375287771224976,-1.0436325073242188
1761396647498880800,5.268880859375,-0.15683503448963165,-1.0976924896240234,-1.8183395862579346
1761396647518244600,5.28824462890625,-0.5725166201591492,-0.11942064017057419,-1.3343958854675293
1761396647537635300,5.30763525390625,-1.1005940437316895,1.3038535118103027,-0.24433889985084534
1761396647557012500,5.327012451171875,-1.3217207193374634,1.915311574935913,0.011606098152697086
1761396647576376300,5.346376220703125,-0.8977927565574646,0.675597071647644,-0.8341119289398193
1761396647595767000,5.36576708984375,-0.48791423439979553,-0.61481773853302,-1.7532843351364136
1761396647615144200,5.385144287109375,0.15362808108329773,-0.6160394549369812,-1.6692928075790405
1761396647634507800,5.4045078125,0.9788827300071716,-0.7391251921653748,-0.49860408902168274
1761396647653898500,5.4238984375,0.9706363081932068,-0.8475505709648132,1.2610942125320435
1761396647673276000,5.44327587890625,0.09834641218185425,-0.6699467301368713,2.2754061222076416
1761396647692639500,5.462639404296875,-0.4727957844734192,-0.27503398060798645,1.9527260065078735
1761396647712030200,5.4820302734375,-0.5125008225440979,0.26098448038101196,0.733169436454773
1761396647731407400,5.501407470703125,-0.4599680006504059,0.5943543910980225,-0.5491516590118408
1761396647750771200,5.520771240234375,-0.45080527663230896,0.7388197779655457,-1.2094775438308716
1761396647770162000,5.540161865234375,-0.5094466209411621,0.9152019023895264,-1.165802001953125
1761396647789539000,5.5595390625,-0.5829010009765625,0.9869764447212219,-0.8110524415969849
1761396647808902700,5.578902587890625,-0.6180247068405151,0.7924215793609619,-0.439351886510849
1761396647828293400,5.59829345703125,-0.4581354558467865,0.4772244095802307,-0.2782409191131592
1761396647847670800,5.6176708984375,-0.16126367449760437,-0.1510319858789444,-0.6129852533340454
1761396647867034400,5.637034423828125,0.08842013776302338,-1.0920422077178955,-1.3768497705459595
1761396647886425000,5.656425048828125,-0.03802524134516716,-1.2403253316879272,-1.8890451192855835
1761396647905802200,5.67580224609375,-0.8064711093902588,-0.08108997344970703,-1.1621369123458862
1761396647925166000,5.695166015625,-0.7962393760681152,0.6587987542152405,0.059557609260082245
1761396647944556800,5.714556884765625,-0.040010496973991394,-0.34161633253097534,0.7482879161834717
1761396647963934000,5.733933837890625,0.49356457591056824,-1.3620367050170898,1.1186140775680542
1761396647983297500,5.753297607421875,0.9767447710037231,-1.1506835222244263,1.2203201055526733
1761396648002688300,5.772688232421875,1.5225367546081543,-0.08933641016483307,1.1651911735534668
1761396648022065700,5.792065673828125,1.657381296157837,0.9984298348426819,1.222305417060852
1761396648041429200,5.81142919921875,1.3424896001815796,0.6734591126441956,1.3258439302444458
1761396648060820000,5.830820068359375,0.7246175408363342,0.23624517023563385,1.2372710704803467
1761396648080197000,5.850197021484375,0.3805578351020813,0.4181249439716339,0.7409577369689941
1761396648099561000,5.86956103515625,0.2898470163345337,1.12655508518219,0.3180987238883972
1761396648118951700,5.88895166015625,0.10460758954286575,1.2175712585449219,0.31855684518814087
1761396648138328800,5.908328857421875,-0.04214845970273018,0.8674030900001526,0.6108472347259521
1761396648157706000,5.9277060546875,-0.08979454636573792,0.5548020005226135,0.7916580438613892
1761396648177083100,5.947083251953125,-0.17302247881889343,0.33718767762184143,0.8693883419036865
1761396648196460500,5.96646044921875,-0.26281702518463135,-0.08582404255867004,0.966971218585968
1761396648215824100,5.98582421875,-0.14309096336364746,-0.4918847680091858,0.7902836203575134
1761396648235214800,6.00521484375,0.11254860460758209,-0.5340332388877869,0.2530434727668762
1761396648254592000,6.024592041015625,-0.0012216945178806782,-0.16370706260204315,-0.2507528066635132
1761396648273955800,6.043955810546875,-0.42576053738594055,0.12995775043964386,-0.23059484362602234
1761396648293346600,6.0633466796875,-0.6957550048828125,0.1375933438539505,-0.07146912813186646
1761396648312723700,6.0827236328125,-1.1616787910461426,-0.34161633253097534,-0.21883602440357208
1761396648332087600,6.102087646484375,-1.0274450778961182,-1.0581401586532593,-1.4156385660171509
1761396648351478000,6.12147802734375,-0.2298312783241272,-1.1291511058807373,-2.991777181625366
1761396648370855400,6.14085546875,0.6981984376907349,-0.6415423154830933,-3.043393850326538
1761396648390219000,6.160218994140625,0.7821899056434631,-0.24372805655002594,-1.3143905401229858
1761396648409609700,6.179609619140625,0.1588202863931656,-0.5213581323623657,0.47233763337135315
1761396648428987000,6.19898681640625,-0.1960819661617279,-1.0669974088668823,1.2340642213821411
1761396648448350700,6.218350830078125,-0.31412819027900696,-1.2928582429885864,1.0624160766601562
1761396648467741400,6.237741455078125,-0.5667135715484619,-1.1413681507110596,0.38193225860595703
1761396648487118600,6.25711865234375,-0.5282301902770996,-0.1948602795600891,-0.4512633979320526
1761396648506482400,6.276482421875,-0.49173203110694885,0.42240089178085327,-0.9891144037246704
1761396648525873200,6.295873046875,-0.488219678401947,0.7478297352790833,-1.0555440187454224
1761396648545250300,6.315250244140625,-0.47798797488212585,0.8851176500320435,-0.47142136096954346
1761396648564627500,6.33462744140625,-0.5262449383735657,0.7250757217407227,0.1719534993171692
1761396648584004600,6.354004638671875,-0.5073086619377136,0.3064926266670227,0.35948359966278076
1761396648603381800,6.3733818359375,-0.3339807391166687,-0.35230615735054016,0.06826218217611313
1761396648622745600,6.39274560546875,-0.12155860662460327,-1.2433795928955078,-0.7737907767295837
1761396648642136300,6.41213623046875,0.31657159328460693,-1.3841798305511475,-2.1310932636260986
1761396648661513500,6.431513427734375,0.8050966858863831,-1.2898039817810059,-3.037590742111206
1761396648680877300,6.450877197265625,1.2258176803588867,-1.656312346458435,-3.436626672744751
1761396648700268000,6.47026806640625,1.5585768222808838,-2.4838576316833496,-3.931260347366333
1761396648719645200,6.489645263671875,1.7910041809082031,-1.8690398931503296,-3.7353310585021973
1761396648739008800,6.5090087890625,1.3429477214813232,0.47417017817497253,-0.9710944294929504
1761396648758399500,6.5283994140625,1.1499199867248535,1.3084348440170288,2.3155691623687744
1761396648777777000,6.54777685546875,1.127929449081421,0.14553436636924744,3.7707600593566895
1761396648797140500,6.567140380859375,0.9749122262001038,-1.0912786722183228,3.500918388366699
1761396648816531200,6.58653125,0.5966450572013855,-1.157250165939331,2.2978546619415283
1761396648835908400,6.605908447265625,-0.23196925222873688,-0.6719319820404053,1.0091196298599243
1761396648855272200,6.625272216796875,-1.2722420692443848,-0.13026317954063416,0.06032116711139679
1761396648874663000,6.644662841796875,-2.230050563812256,0.5381564497947693,-0.42698222398757935
1761396648894040000,6.6640400390625,-2.9314560890197754,0.9828532338142395,-0.32008397579193115
1761396648913403600,6.683403564453125,-3.311861038208008,0.8359444737434387,0.16156910359859467
1761396648932794400,6.70279443359375,-3.3072798252105713,0.13866232335567474,0.5865660905838013
1761396648952171500,6.722171630859375,-3.0414085388183594,-0.44271156191825867,0.7243121266365051
1761396648971535400,6.741535400390625,-2.690934896469116,-0.742026686668396,0.49203747510910034
1761396648990926000,6.760926025390625,-2.2470016479492188,-0.8160919547080994,-0.0393996499478817
1761396649010303200,6.78030322265625,-1.7068599462509155,-0.9694145917892456,-0.730573296546936
1761396649029667000,6.7996669921875,-1.1555702686309814,-1.3050751686096191,-1.4819154739379883
1761396649049057500,6.8190576171875,-0.813648521900177,-2.2007298469543457,-2.43636417388916
1761396649068435000,6.83843505859375,-0.7382088899612427,-3.1828196048736572,-3.121887683868408
1761396649087798500,6.857798583984375,-0.6516213417053223,-4.010059356689453,-4.327547550201416
1761396649107189200,6.877189208984375,-0.946049690246582,-2.051530599594116,-5.619794845581055
1761396649126566400,6.89656640625,-1.2377293109893799,2.1214725971221924,-2.213405132293701
1761396649145930200,6.91593017578125,-0.3252761662006378,2.1680495738983154,2.6449687480926514
1761396649165321000,6.935321044921875,0.530062735080719,-0.2608317732810974,5.45959997177124
1761396649184698000,6.954697998046875,0.296108216047287,-1.9486027956008911,5.642395973205566
1761396649204062000,6.97406201171875,-0.7708892226219177,-1.9443268775939941,3.945157051086426
1761396649223452700,6.99345263671875,-1.9534895420074463,-1.4110571146011353,1.4871076345443726
1761396649242829800,7.012829833984375,-3.1857211589813232,-1.2818629741668701,-0.671015739440918
1761396649262193400,7.032193359375,-4.264172077178955,-1.4017417430877686,-1.90813410282135
1761396649281584000,7.051584228515625,-4.890137672424316,-1.817881464958191,-2.0877232551574707
1761396649300961500,7.07096142578125,-4.748879432678223,-2.1709511280059814,-1.4605357646942139
1761396649320325000,7.0903251953125,-4.405735969543457,-2.160566806793213,-0.5923691391944885
1761396649339715800,7.1097158203125,-3.833677291870117,-2.2379915714263916,-0.02473931387066841
1761396649359093000,7.129093017578125,-2.997427463531494,-2.3380179405212402,0.24021568894386292
1761396649378456800,7.148456787109375,-2.3940632343292236,-2.363826274871826,0.11651911586523056
1761396649397847600,7.16784765625,-1.903552770614624,-2.5417354106903076,-0.7679877281188965
1761396649417224700,7.187224609375,-1.1598461866378784,-3.3801233768463135,-1.9331789016723633
1761396649436588300,7.20658837890625,-1.2245960235595703,-3.1638834476470947,-1.9632630348205566
1761396649455979000,7.22597900390625,-1.9566965103149414,-2.021751642227173,-0.3993414044380188
1761396649475356200,7.245356201171875,-1.9441741704940796,-1.8546849489212036,0.999346137046814
1761396649494720000,7.264719970703125,-1.3264548778533936,-2.010451078414917,0.5737382769584656
1761396649514110700,7.28411083984375,-1.4443483352661133,-0.36574479937553406,0.5590779781341553
1761396649533487900,7.30348779296875,-1.5897300243377686,0.1447708010673523,1.3446274995803833
1761396649552851500,7.3228515625,-1.4808465242385864,-0.7727217674255371,2.0063278675079346
1761396649572242200,7.3422421875,-1.2526949644088745,-1.7468703985214233,1.9189766645431519
1761396649591619600,7.36161962890625,-1.210546612739563,-2.031219959259033,1.3389772176742554
1761396649610983200,7.380983154296875,-1.5692665576934814,-1.964332103729248,0.8063184022903442
1761396649630374000,7.400373779296875,-1.9832683801651,-1.6775392293930054,0.37047886848449707
1761396649649751000,7.4197509765625,-2.3180127143859863,-1.298966646194458,-0.0456608310341835
1761396649669115000,7.439114990234375,-2.5009613037109375,-1.0472975969314575,-0.41797223687171936
1761396649688505600,7.458505615234375,-2.4259798526763916,-0.9817842841148376,-0.5741963982582092
1761396649707882800,7.4778828125,-2.085890769958496,-0.9236010313034058,-0.5543438792228699
1761396649727246300,7.497246337890625,-1.6166073083877563,-1.0051491260528564,-0.4419479966163635
1761396649746637000,7.516636962890625,-1.204743504524231,-1.455190896987915,-0.47417017817497253
1761396649766014500,7.536014404296875,-1.0098832845687866,-1.7467176914215088,-1.1738957166671753
1761396649785378000,7.5553779296875,-0.9171871542930603,-1.7699298858642578,-2.013505220413208
1761396649804768800,7.574768798828125,-0.9410101771354675,-1.2171131372451782,-2.230508804321289
1761396649824146000,7.59414599609375,-1.0558494329452515,-1.5346009731292725,-1.087613582611084
1761396649843509800,7.613509765625,-1.0308047533035278,-1.9550166130065918,1.6608936786651611
1761396649862900500,7.632900390625,-0.8677085041999817,-2.105437755584717,3.1024932861328125
1761396649882277600,7.652277587890625,-0.26220619678497314,-0.6484143733978271,2.346722364425659
1761396649901641200,7.67164111328125,0.04504998400807381,0.5700731873512268,1.2201673984527588
1761396649921032000,7.691031982421875,0.15561333298683167,0.8121214509010315,1.0024003982543945
1761396649940409300,7.710409423828125,0.19944162666797638,0.6905628442764282,1.0234745740890503
1761396649959773000,7.72977294921875,0.15439164638519287,0.38452833890914917,0.5459447503089905
1761396649979163600,7.74916357421875,0.0925433561205864,0.09147437661886215,-0.16248537600040436
1761396649998540800,7.768540771484375,-0.05619794875383377,0.29351210594177246,-0.453095942735672
1761396650017904600,7.787904541015625,-0.5508314967155457,1.1835166215896606,-0.3733803927898407
1761396650037295400,7.80729541015625,-1.1349542140960693,1.747481346130371,0.013744063675403595
1761396650056672500,7.826672607421875,-1.3713520765304565,1.1257915496826172,0.47920966148376465
1761396650076036000,7.8460361328125,-1.2974395751953125,-0.2557922899723053,0.559841513633728
1761396650095426800,7.8654267578125,-1.1638166904449463,-1.1187667846679688,0.10613471269607544
1761396650114804000,7.884803955078125,-0.9797990322113037,-0.9356653094291687,-0.24433889985084534
1761396650134167800,7.904167724609375,-0.9542961120605469,-0.20997874438762665,-0.24708771705627441
1761396650153558500,7.92355859375,-1.2081031799316406,0.33230090141296387,-0.1522536724805832
1761396650172935700,7.942935791015625,-1.4382398128509521,0.3086305856704712,-0.09025268256664276
1761396650192299500,7.962299560546875,-1.3026317358016968,-0.06398624926805496,-0.04184303805232048
1761396650211690000,7.98168994140625,-0.8052493929862976,-0.11377029865980148,0.0662769302725792
1761396650231067400,8.0010673828125,-0.6252021789550781,0.0010689827613532543,0.39445462822914124
1761396650250431000,8.020430908203124,-0.8968765139579773,0.11545012891292572,0.9927794933319092
1761396650269821700,8.03982177734375,-1.0853228569030762,0.17332790791988373,1.5436110496520996
1761396650289198800,8.05919873046875,-0.9865183234214783,-0.2620534598827362,0.9538379907608032
1761396650308562700,8.078562744140624,-0.5073086619377136,-0.5357130169868469,-0.7427902817726135
1761396650327953400,8.097953369140624,0.4246915578842163,-0.8096780180931091,-2.5157744884490967
1761396650347330600,8.11733056640625,1.3003411293029785,-0.9568922519683838,-3.0067429542541504
1761396650366694400,8.1366943359375,1.2548329830169678,-0.5424323678016663,-2.212488889694214
1761396650386084900,8.1560849609375,0.4462239146232605,-0.005344913341104984,-0.8985562920570374
1761396650405462300,8.175462158203125,-0.3390202224254608,0.12064233422279358,-0.032222192734479904
1761396650424825900,8.194825927734374,-0.5439594984054565,-0.43202173709869385,0.0784938707947731
1761396650444216600,8.214216552734374,-0.1973036676645279,-0.9952229261398315,-0.15805672109127045
1761396650463593700,8.23359375,0.08276980370283127,-0.9840749502182007,-0.11361759155988693
1761396650482957600,8.25295751953125,-0.01817270554602146,-0.3245126008987427,0.05543438717722893
1761396650502348300,8.272348388671874,-0.30817243456840515,0.20341213047504425,0.20051060616970062
1761396650521725400,8.291725341796875,-0.4330907166004181,0.23090025782585144,0.18737739324569702
1761396650541089000,8.311089111328124,-0.6145123243331909,-0.08368607610464096,-0.004734066314995289
1761396650560479700,8.330479736328124,-0.9350544214248657,-0.6372663974761963,0.03298575058579445
1761396650579857200,8.349857177734375,-0.9940012097358704,-0.8011261820793152,0.31092125177383423
1761396650599220700,8.369220703125,-0.8412894010543823,-0.40422818064689636,0.7250757217407227
1761396650618611500,8.388611572265624,-0.7522584199905396,-0.1525591015815735,1.155417561531067
1761396650637988600,8.407988525390625,-0.6065713167190552,-0.2492256760597229,1.4982556104660034
1761396650657352400,8.4273525390625,-0.37231141328811646,0.22540263831615448,1.4871076345443726
1761396650676743000,8.446742919921874,-0.4682144224643707,0.6992673873901367,1.3347012996673584
1761396650696120300,8.466120361328125,-0.9544488191604614,0.2877090573310852,0.7461498975753784
1761396650715484000,8.48548388671875,-1.3527212142944336,-0.2564031481742859,-0.7273663878440857
1761396650734874600,8.50487451171875,-1.1147962808609009,-0.2632751762866974,-2.1795029640197754
1761396650754251800,8.524251708984375,-0.4559974670410156,0.09926267713308334,-2.6823830604553223
1761396650773615600,8.54361572265625,0.3742966651916504,0.2874036431312561,-1.499782681465149
1761396650793006300,8.56300634765625,0.44301697611808777,-0.15866757929325104,0.4271349310874939
1761396650812383500,8.582383544921875,-0.21440738439559937,-1.0694408416748047,1.5350592136383057
1761396650831747000,8.6017470703125,-0.6491779088973999,-1.2342169284820557,1.364327311515808
1761396650851138000,8.621137939453124,-0.5625903010368347,-0.7800519466400146,0.5775560736656189
1761396650870515200,8.64051513671875,-0.40254834294319153,-0.5296045541763306,-0.24403348565101624
1761396650889878800,8.659878662109374,-0.30664533376693726,-0.3605526089668274,-0.5738909840583801
1761396650909269500,8.67926953125,-0.43583953380584717,-0.6120689511299133,-0.051769305020570755
1761396650928646700,8.698646728515625,-0.4671454429626465,-0.8305995464324951,0.7424848675727844
1761396650948010500,8.718010498046874,-0.3158080279827118,-0.3901786804199219,1.194664478302002
1761396650967401200,8.737401123046874,-0.3339807391166687,-0.2214321345090866,1.2128372192382812
1761396650986778400,8.7567783203125,-0.4249969720840454,-0.5464028716087341,0.9116895198822021
1761396651006142000,8.776141845703124,-0.2895416021347046,-0.5341859459877014,0.5674771070480347
1761396651025532700,8.79553271484375,-0.277630090713501,-0.2573194205760956,0.7844805717468262
1761396651044910000,8.81491015625,-0.5160132050514221,-0.20600824058055878,1.3519576787948608
1761396651064273700,8.834273681640624,-0.7064448595046997,-0.5960342288017273,1.502989649772644
1761396651083664400,8.853664306640624,-0.7554653286933899,-1.1024266481399536,0.7040014863014221
1761396651103041500,8.87304150390625,-0.5909947156906128,-0.8431219458580017,-0.8926005363464355
1761396651122405400,8.8924052734375,-0.252432644367218,-0.3642176687717438,-2.2951059341430664
1761396651141795800,8.9117958984375,0.1692046970129013,-0.4963133931159973,-2.626643180847168
1761396651161173200,8.93117333984375,0.7374453544616699,-1.03828763961792,-1.1493091583251953
1761396651180536800,8.950536865234374,0.6325323581695557,-0.9614735841751099,0.61970454454422
1761396651199927600,8.969927490234374,-0.04581354558467865,-1.1224318742752075,1.4454172849655151
1761396651219304700,8.9893046875,-0.1632489264011383,-1.1564866304397583,0.8393041491508484
1761396651238668500,9.00866845703125,0.26190075278282166,-0.617719292640686,-0.4518742561340332
1761396651258059300,9.028059326171874,0.6160394549369812,-0.24998924136161804,-1.2310099601745605
1761396651277436400,9.0474365234375,0.7159129977226257,0.0328330397605896,-1.055696725845337
1761396651296800000,9.066800048828124,0.6745280623435974,0.5587725043296814,-0.26816195249557495
1761396651316190700,9.086190673828124,0.6319214701652527,0.4819584786891937,0.5045598149299622
1761396651335568000,9.10556787109375,0.49952033162117004,-0.1560714691877365,0.4614951014518738
1761396651354945300,9.1249453125,0.1954711228609085,-0.22662433981895447,0.10552386194467545
1761396651374322400,9.144322509765624,-0.07452336698770523,-0.0325276181101799,-0.1119377613067627
1761396651393699600,9.163699462890625,-0.2670929729938507,0.43477052450180054,-0.3668137788772583
1761396651413063200,9.183063232421874,-0.36039987206459045,0.5398362874984741,-0.4691306948661804
1761396651432454000,9.202453857421874,-0.31137940287590027,0.1763821393251419,-0.38483378291130066
1761396651451831300,9.221831298828125,-0.06444438546895981,-0.0016798300202935934,0.09681928902864456
1761396651471195000,9.24119482421875,-0.0713164210319519,0.23899398744106293,0.7432484030723572
1761396651490585600,9.260585693359374,-0.6789567470550537,-0.00992626789957285,0.33917292952537537
1761396651509962800,9.279962646484375,-0.6957550048828125,-0.1710372269153595,-0.6789567470550537
1761396651529340000,9.29933984375,0.16019469499588013,-0.03649812191724777,-1.6990716457366943
1761396651548717300,9.31871728515625,0.7096518278121948,0.10796725004911423,-2.6661956310272217
1761396651568094500,9.338094482421875,0.5126535892486572,0.2927485406398773,-2.3540525436401367
1761396651587458000,9.3574580078125,-0.23181653022766113,0.5702258944511414,-1.2424633502960205
1761396651606848800,9.376848876953124,-0.8313631415367126,0.6711684465408325,-0.3752129375934601
1761396651626226000,9.396225830078125,-1.0077452659606934,-0.16279079020023346,-0.10796725004911423
1761396651645589800,9.41558984375,-0.9141329526901245,-1.4499987363815308,-0.6646018028259277
1761396651664980500,9.43498046875,-0.3052709102630615,-1.0558494329452515,-1.3864705562591553
1761396651684357600,9.454357666015625,0.4408790171146393,0.08002099394798279,-1.01706063747406
1761396651703721500,9.473721435546874,0.6908682584762573,0.30603447556495667,-0.09269607067108154
1761396651723112000,9.49311181640625,0.4246915578842163,-0.07528692483901978,0.6832326650619507
1761396651742489300,9.5124892578125,0.01817270554602146,-0.4431696832180023,1.0772291421890259
1761396651761853000,9.53185302734375,-0.2907632887363434,-0.23899398744106293,1.09219491481781
1761396651781243600,9.55124365234375,-0.49982577562332153,0.014049487188458443,0.8820634484291077
1761396651800620800,9.570620849609375,-0.7134696245193481,-0.2504473626613617,0.4306473135948181
1761396651819984600,9.589984619140624,-0.6520794630050659,-0.31290650367736816,-0.02244863659143448
1761396651839375400,9.609375244140624,-0.18218518793582916,0.10033166408538818,0.36696648597717285
1761396651858752500,9.62875244140625,-0.07528692483901978,0.09407047927379608,0.8435800671577454
1761396651878116000,9.6481162109375,-0.03130592033267021,0.15714046359062195,0.8988617658615112
1761396651897506800,9.6675068359375,0.1507265567779541,0.3208475112915039,1.5032950639724731
1761396651916884000,9.686884033203125,-0.36192700266838074,-0.06856760382652283,1.8444533348083496
1761396651936247800,9.706247802734374,-1.3150014877319336,-0.2867927849292755,-0.4559974670410156
1761396651955638500,9.725638427734374,-1.1838220357894897,0.5841227173805237,-2.4146792888641357
1761396651975015700,9.745015625,0.14736689627170563,0.3574983477592468,-0.8506048321723938
1761396651994379300,9.764379150390624,0.6691831946372986,-1.0792144536972046,1.1725213527679443
1761396652013770000,9.78377001953125,0.3949127495288849,-1.213906168937683,1.0792144536972046
1761396652033147400,9.8031474609375,0.08185353130102158,-0.5477772951126099,0.19348587095737457
1761396652052511000,9.822510986328124,-0.07391251623630524,0.02748812735080719,-0.8173136115074158
1761396652071901700,9.841901611328124,-0.22845686972141266,0.30878329277038574,-1.6437900066375732
1761396652091278800,9.86127880859375,-0.1459924876689911,0.35444411635398865,-1.8377339839935303
1761396652110642700,9.880642578125,0.24571330845355988,0.5622848868370056,-1.4596195220947266
1761396652130033400,9.900033447265624,0.5940489768981934,0.5796940326690674,-1.1563338041305542
1761396652149410600,9.91941064453125,0.29259583353996277,0.20768806338310242,-0.8596147894859314
1761396652168787700,9.93878759765625,-0.15515519678592682,0.2089097648859024,-0.3512371778488159
1761396652188164900,9.958164794921874,-0.21959958970546722,0.17974179983139038,0.016492875292897224
1761396652207542000,9.9775419921875,0.0068720318377017975,0.3946073353290558,0.24372805655002594
1761396652226905900,9.99690576171875,-0.08399149775505066,0.3710896968841553,0.5497625470161438
1761396652246296600,10.016296630859374,-0.435075968503952,0.23563432693481445,0.6601731777191162
1761396652265673700,10.035673828125,-0.46577104926109314,0.659562349319458,0.5865660905838013
1761396652285037300,10.055037353515624,-0.1698155403137207,0.7997517585754395,0.5732801556587219
1761396652304428000,10.074427978515626,0.0656660795211792,0.6155813336372375,0.7333221435546875
1761396652323805400,10.093805419921875,0.1375933438539505,0.6319214701652527,1.3806675672531128
1761396652343169000,10.1131689453125,0.2764083743095398,0.45111069083213806,2.0374810695648193
1761396652362559700,10.132559814453124,-0.42423340678215027,-0.420873761177063,0.9093988537788391
1761396652381937000,10.15193701171875,-1.5390297174453735,0.42102646827697754,-2.3887181282043457
1761396652401300700,10.17130078125,-1.2142115831375122,1.5145957469940186,-4.09252405166626
1761396652420691200,10.190691162109376,0.0036650835536420345,0.4634803533554077,-2.5099713802337646
1761396652440068600,10.210068603515625,0.3643703758716583,-1.0326372385025024,0.19409671425819397
1761396652459432200,10.22943212890625,0.08918370306491852,-1.0448542833328247,1.1438114643096924
1761396652478823000,10.248822998046874,-0.10949437320232391,-0.4146125912666321,0.3035911023616791
1761396652498200000,10.268199951171875,0.016798298805952072,-0.08200624585151672,-0.7498149871826172
1761396652517564000,10.28756396484375,0.312142938375473,-0.18905723094940186,-0.9550597071647644
1761396652536954400,10.306954345703126,0.35474956035614014,-0.3542914092540741,-0.592216432094574
1761396652556331800,10.326331787109375,0.02504473738372326,-0.26632940769195557,-0.18554484844207764
1761396652575695400,10.3456953125,0.013285927474498749,-0.010689826682209969,0.19440214335918427
1761396652595086000,10.365086181640624,0.13499724864959717,-0.08078455179929733,0.3674246370792389
1761396652614463200,10.384463134765625,0.23410721123218536,-0.21257483959197998,0.26098448038101196
1761396652633827000,10.4038271484375,0.2026485800743103,0.10598199814558029,0.145687073469162
1761396652653217800,10.4232177734375,0.038636088371276855,0.29259583353996277,-0.06016845628619194
1761396652672595000,10.442594970703125,0.020616095513105392,0.0012216945178806782,-0.1620272397994995
1761396652691958500,10.46195849609375,0.08719844371080399,-0.4052971601486206,-0.09651386737823486
1761396652711349200,10.481349365234376,0.05238015204668045,-0.5108210444450378,0.06612421572208405
1761396652730726400,10.500726318359375,-0.1820324808359146,-0.26037365198135376,-0.13117945194244385
1761396652750103800,10.520103759765625,-0.3151971995830536,-0.06398624926805496,-0.3345915973186493
1761396652769481000,10.53948095703125,-0.24907296895980835,-0.024586603045463562,-0.5099047422409058
1761396652788858000,10.558858154296875,-0.1969982385635376,-0.20310671627521515,-0.483485609292984
1761396652808235300,10.5782353515625,-0.10185877978801727,-0.26128992438316345,-0.2047865390777588
1761396652827612400,10.5976123046875,-0.05238015204668045,-0.20509196817874908,0.13301199674606323
1761396652846989600,10.616989501953125,-0.016034740954637527,-0.19562382996082306,0.5030327439308167
1761396652866353400,10.636353515625,-0.013896775431931019,-0.30786702036857605,0.7989882230758667
1761396652885744000,10.655744140625,0.006719320081174374,-0.3136700689792633,0.707361102104187
1761396652905121300,10.675121337890625,0.016034740954637527,-0.3142809271812439,0.3536805510520935
1761396652924498400,10.69449853515625,0.01572931744158268,-0.1441599577665329,-0.02901524491608143
1761396652943875800,10.713875732421876,0.03268032893538475,-0.024128466844558716,-0.22647161781787872
1761396652963253000,10.7332529296875,0.1423274129629135,-0.1635543555021286,-0.28847262263298035
1761396652982616600,10.752616455078124,0.1785201132297516,-0.08842013776302338,-0.32848310470581055
1761396653002007300,10.77200732421875,0.014965757727622986,0.14110571146011353,-0.2408265322446823
1761396653021384400,10.791384521484375,-0.12278030067682266,0.1385096162557602,0.001985253533348441
1761396653040761600,10.81076171875,-0.06520794332027435,0.0459662564098835,0.2292204350233078
1761396653060139000,10.830138916015626,0.057114217430353165,-0.09636115282773972,0.41354358196258545
1761396653079516200,10.84951611328125,-0.038483377546072006,-0.23319093883037567,0.5126535892486572
1761396653098879700,10.868879638671874,-0.19898349046707153,-0.13301199674606323,0.358720064163208
1761396653118270500,10.8882705078125,-0.19867807626724243,-0.07773031294345856,0.14095300436019897
1761396653137647600,10.907647705078125,-0.11438114941120148,-0.06169557198882103,0.02214321307837963
1761396653157025000,10.92702490234375,-0.12720894813537598,0.041232191026210785,-0.16462333500385284
1761396653176402200,10.946402099609376,-0.11285403370857239,-0.024433890357613564,-0.3246653079986572
1761396653195779300,10.965779296875,-0.0009162708884105086,-0.012369656935334206,-0.3868190348148346
1761396653215156500,10.985156494140625,-0.1898207813501358,-0.04810422286391258,-0.2276933193206787
1761396653234533600,11.00453369140625,-0.35261157155036926,-0.08811471611261368,-0.02076880633831024
1761396653253910800,11.023910888671875,-0.3017585575580597,0.0007635590736754239,-0.0021379655227065086
1761396653273288200,11.0432880859375,-0.16844113171100616,0.16217994689941406,-0.07574506103992462
1761396653292665300,11.062665283203126,-0.16645587980747223,0.050547610968351364,-0.183865025639534
1761396653312042500,11.08204248046875,-0.2373141646385193,0.06673506647348404,-0.24281178414821625
1761396653331419600,11.101419677734375,-0.27121618390083313,0.09681928902864456,-0.10521844029426575
1761396653350796800,11.120796875,-0.21425467729568481,0.19287502765655518,-0.017714571207761765
1761396653370174000,11.140174072265625,-0.3118375241756439,0.28816720843315125,-0.05360184609889984
1761396653389537800,11.159537841796874,-0.3906368315219879,0.18493400514125824,0.05787777900695801
1761396653408928500,11.178928466796876,-0.2593046724796295,-0.09284878522157669,0.04230117425322533
1761396653428305700,11.1983056640625,-0.13927318155765533,0.03161134570837021,-0.21333840489387512
1761396653447669500,11.21766943359375,-0.13087402284145355,0.05741964280605316,-0.19302773475646973
1761396653467060000,11.23706005859375,-0.24586601555347443,-0.14461809396743774,-0.009009997360408306
1761396653486437000,11.25643701171875,-0.3840702176094055,-0.17958909273147583,0.05024218559265137
