time,seconds_elapsed,z,y,x
1761299124417101600,0.0831015625,-0.4175602261602878,-0.13892068717330694,-0.28337818488143385
1761299124437224700,0.103224609375,-0.3754074300855398,-0.13203034313768147,-0.26195262634651734
1761299124457348600,0.1233486328125,-0.30686405521333215,-0.09737170221060513,-0.22967286164630202
1761299124477471500,0.143471435546875,-0.340921223115921,-0.03850567174404859,-0.18996881043054162
1761299124497594600,0.1635947265625,-0.1679383996039629,0.040000294215977186,-0.291944791566208
1761299124517717500,0.183717529296875,0.13337678931057453,0.07776333089917897,-0.3550623419973999
1761299124537840600,0.203840576171875,0.20266192246079442,0.05132891295999288,-0.35276056786105037
1761299124557964500,0.223964599609375,0.1691752479225397,0.08747574661821127,-0.38089360641166564
1761299124578087700,0.244087646484375,0.3615215280741453,0.10186199936717748,-0.3951213441306725
1761299124598210600,0.26421044921875,0.4638981989651918,0.1634802511513233,-0.21491096225166692
1761299124618333700,0.284333740234375,0.2638508429169655,0.45047699185609813,0.007434963173186406
1761299124638456600,0.30445654296875,0.3281821530520916,0.597551759390533,0.2406792992312461
1761299124658580500,0.32458056640625,0.4338789082765579,0.4979965756610036,0.26187472053840755
1761299124678703600,0.34470361328125,0.2840197707206011,0.3261962399318814,0.17093191886413842
1761299124698826500,0.364826416015625,0.17956512451171874,0.3108630617216229,0.09593051782581023
1761299124718949600,0.38494970703125,0.2500631405830383,0.1722907495945692,0.1432145941080991
1761299124739072500,0.405072509765625,0.18963292953968047,0.054064183142781254,0.10604860086943954
1761299124759196400,0.425196533203125,-0.17638415638804433,0.01198708265274763,0.1384786607605405
1761299124779319600,0.445319580078125,-0.540517912787199,-0.020446867962181568,0.16577870081942528
1761299124799442400,0.4654423828125,-0.5210258613318205,0.10208470220714808,0.18248187047494574
1761299124819565600,0.485565673828125,-0.30661972506344315,0.1862497168421745,0.3077875632664189
1761299124839689700,0.505689697265625,-0.0007885200291872024,0.22653175060898065,0.502120560255833
1761299124859812900,0.525812744140625,0.16272504886984823,0.15137830994725227,0.5873236492343247
1761299124879935700,0.545935791015625,0.23711773429214952,-0.08766220910102128,0.43384836700782176
1761299124900058600,0.56605859375,0.20432664080262183,-0.35243601208180186,0.2957201088538393
1761299124920181800,0.586181640625,0.1616501131147146,-0.37367169233411546,0.278395574163273
1761299124940305700,0.6063056640625,0.1769482200115919,-0.24852701705694197,0.47211299653761085
1761299124960428800,0.6264287109375,0.18272446532547473,-0.07670914567112923,0.747842127970606
1761299124980551700,0.6465517578125,0.13679273523390292,-0.04746376196444034,0.8958425589825958
1761299125000674800,0.6666748046875,-0.07823708589076996,-0.21224165171086787,0.7012531030140817
1761299125020797700,0.686797607421875,-0.16974457224309444,-0.47858898761868474,0.35482243229430166
1761299125040921600,0.706921630859375,-0.2428881343871355,-0.6274646670952438,0.1751294801518321
1761299125061044700,0.727044677734375,-0.41293256635963915,-0.598974777930975,0.1201592058816459
1761299125081167600,0.747167724609375,-0.5960282030850649,-0.5092562208220363,0.053001033723563885
1761299125101290800,0.767290771484375,-0.5819967551231384,-0.36719606657922266,0.06244990313558373
1761299125121414700,0.78741455078125,-0.5588368288099765,-0.16737229015380142,0.13199810310220345
1761299125141537800,0.807537841796875,-0.5989806231498718,-0.03690466628819704,0.046917946383636444
1761299125161660700,0.82766064453125,-0.36475627221167084,-0.0282139948323369,-0.08516399907711893
1761299125181783600,0.847783447265625,0.023696517407894132,0.0034662148058414457,-0.01843054143739864
1761299125201906700,0.86790673828125,0.21893676543533802,0.1824582156047225,0.10942948461254126
1761299125222030600,0.888030517578125,0.3945955301582813,0.27596856621205806,0.22535631362143901
1761299125242153700,0.90815380859375,0.42992052603960035,0.3005237462759018,0.22726974602732805
1761299125262276600,0.928276611328125,0.5788058501273393,0.21405980704873798,-0.04150299039650708
1761299125282399700,0.948399658203125,0.7287830611050129,-0.11474836894720793,-0.2944742735112086
1761299125302522600,0.968522705078125,0.5405541531443595,-0.32846476938575503,-0.5625145674746483
1761299125322646500,0.988646484375,0.05360124180614948,-0.17770985203385353,-0.5115904724558815
1761299125342769700,1.008769775390625,-0.35245559356510636,-0.10931523798257112,-0.30230522286519407
1761299125362892500,1.028892578125,-0.5878858131617307,-0.07706921115517616,-0.31803689887374637
1761299125383015700,1.049015625,-0.6337602601081133,-0.10842179627418518,-0.3244720464877784
1761299125403139600,1.0691396484375,-0.2582984694868326,-0.10157704494595526,-0.3284923149798065
1761299125423262700,1.0892626953125,-0.05622282248139381,-0.12725012312382458,-0.33385764140523966
1761299125443385600,1.109385498046875,-0.23326339695155618,-0.18361644572913646,-0.32587369344662875
1761299125463508500,1.129508544921875,-0.4997866739481687,-0.11602964092940092,-0.2632235230651684
1761299125483631600,1.149631591796875,-0.692601740655303,-0.03847703017145395,-0.24285658847140146
1761299125503755500,1.169755615234375,-0.46397535585463046,0.02701806304603815,-0.3450494089618325
1761299125523878700,1.189878662109375,-0.15261574278771878,0.009136369396746159,-0.4526221871912479
1761299125544001500,1.21000146484375,-0.06112813017964363,0.02104278802871704,-0.38757622598074376
1761299125564124700,1.230124755859375,-0.03750760061740875,0.13255465927273033,-0.27317259708428754
1761299125584247600,1.25024755859375,0.2212678387314081,0.2673892461761832,-0.06885830430658534
1761299125604371500,1.270371337890625,0.3094973263263702,0.29372692574262615,0.08127838981542736
1761299125624494600,1.29049462890625,0.13358604814708233,0.3123877870708704,-0.011637374165933578
1761299125644617500,1.310617431640625,0.5455974080085754,0.33748803379684683,-0.3032851007480174
1761299125664740600,1.33074072265625,1.2991823174148798,0.2094496829047799,-0.3566013516003266
1761299125684864500,1.350864501953125,1.7243857518047094,0.16413228531926868,-0.07408304408439434
1761299125704987600,1.370987548828125,1.4597095639795064,-0.08882131600826979,0.1468060335956514
1761299125725110500,1.391110595703125,0.7642039185762405,-0.10867547877430915,0.17023635608172044
1761299125745233400,1.4112333984375,-0.029400282007455824,0.06004968729317188,0.28808678269749505
1761299125765356500,1.4313564453125,-0.6421317826122045,0.11717150444090366,0.26091621423717587
1761299125785480700,1.451480712890625,-0.9092512719362974,0.12745032187104224,0.424381852341257
1761299125805603800,1.471603759765625,-1.115573470470309,0.15322890625,0.6391364001885056
1761299125825726700,1.491726806640625,-1.1081705007374285,0.14789280591905116,0.7327983611609786
1761299125845849900,1.511849853515625,-0.6939046399474144,0.0689671532422304,0.71604559847638
1761299125865972700,1.53197265625,-0.3184592159390449,-0.06377484529614448,0.8007735076911747
1761299125886096600,1.5520966796875,-0.371667659035325,-0.100512630584836,0.7800137013223022
1761299125906219800,1.5722197265625,-0.7912590987622737,-0.07437690333127975,0.8551442725650966
1761299125926342700,1.5923427734375,-0.9449708200931548,0.0363029010027647,0.6886578253351151
1761299125946465800,1.6124658203125,-0.555973256072402,0.08106295696645975,0.6546046760205179
1761299125966588700,1.632588623046875,0.20041209770739077,0.0008574936121702193,0.5802792471481487
1761299125986712600,1.652712646484375,0.7204553777426481,-0.14889438417702913,0.3186507199231535
1761299126006835700,1.672835693359375,0.8488006026268005,-0.21242226897478103,0.0782174861411564
1761299126026958600,1.69295849609375,0.7185515899479389,-0.007374328160285949,0.009658329177927225
1761299126047081700,1.713081787109375,0.731270786267519,0.21826193491369483,-0.07333835406377912
1761299126067205600,1.73320556640625,0.8466711893826723,0.15205927794873714,-0.23391650883173568
1761299126087328800,1.753328857421875,0.5787362920224667,0.028413901318609713,-0.22406757071884348
1761299126107451600,1.77345166015625,0.04603343690037727,0.21655600777864456,-0.17706625690069047
1761299126127574800,1.79357470703125,-0.241954652929306,0.5584338009670377,-0.33363333113007243
1761299126147697700,1.81369775390625,-0.41926878364384174,0.514935727763176,-0.4445488804487511
1761299126167821600,1.833821533203125,-0.6335270358741283,0.17577771492749453,-0.6395211617223918
1761299126187944700,1.85394482421875,-0.8411322599560022,-0.01938917560279369,-0.545648188347742
1761299126208067600,1.874067626953125,-0.5888958669871092,-0.05284399369806051,-0.4843946051575243
1761299126228190700,1.894190673828125,0.22741876257658003,-0.1591366689890623,-0.40354364697393025
1761299126248313600,1.914313720703125,0.6030623395055532,-0.3696656715631485,-0.299821662421152
1761299126268437500,1.9344375,0.509995348751545,-0.4180725595965981,-0.16888042969442904
1761299126288560600,1.954560546875,0.3405243327528238,-0.31288989137411116,0.010842424395959824
1761299126308683500,1.97468359375,0.056420390880107876,-0.22667408168911932,0.10923031791178509
1761299126328806700,1.994806640625,-0.1666612192749977,-0.14921996286958455,-0.010375427938718347
1761299126348929500,2.014929443359375,-0.3486638000667095,-0.19233342067003248,-0.22038356671016662
1761299126369053700,2.0350537109375,-0.3877116158634424,-0.16851006201207636,-0.2539405482719652
1761299126389176600,2.055176513671875,-0.45068332808315753,-0.016226327657699584,-0.13104964327095076
1761299126409299700,2.0752998046875,-0.5465449179917573,0.10309797090291976,-0.04130072755636647
1761299126429422600,2.095422607421875,-0.4464233325511217,0.1066714454755187,-0.01314883817480877
1761299126449546500,2.11554638671875,-0.14864099393785,0.09649667294174433,0.13602962364060803
1761299126469669600,2.135669677734375,0.17002105109691618,0.12359861487895249,0.27916100557781753
1761299126489792500,2.15579248046875,0.32975977763235564,0.05961684883385896,0.2157939556312747
1761299126509915600,2.17591552734375,0.3514554766118526,-0.0661418666884303,0.12433994389870204
1761299126530038500,2.19603857421875,0.36700317435562607,-0.051368368187546726,0.11642760900473222
1761299126550162400,2.216162353515625,0.3400099534898996,-0.04446925632357597,0.16934148960122838
1761299126570285600,2.23628564453125,0.26221008997261525,-0.13230711425244807,-0.01633291157102212
1761299126590408400,2.256408447265625,0.026711481314897537,-0.22134382657706736,0.002661583892069757
1761299126610531600,2.276531494140625,-0.12544891892075538,-0.07562222721725702,0.05759741703653708
1761299126630654200,2.296654296875,-0.11947159807682037,-0.023757015423476694,0.17611213451363145
1761299126650778000,2.316778076171875,-0.1318389122188091,0.01435205821841955,0.2171586498469114
1761299126670901000,2.33690087890625,-0.3027402532815933,0.04703530741930008,0.1360270480910316
1761299126691024100,2.357024169921875,-0.4679764081895351,-0.006832184107601642,0.0025953411222901196
1761299126711147000,2.37714697265625,-0.2443786652058363,-0.018935878877341748,-0.02781267488929443
1761299126731270100,2.397270263671875,0.21302549556493758,0.06941431248784065,0.07833042673002928
1761299126751394000,2.41739404296875,0.32706220911145206,0.2007350460514426,0.29139764254484324
1761299126771517000,2.437516845703125,0.3485691075205803,0.2473255323126912,0.4146515356393531
1761299126791640000,2.45764013671875,0.5999807401031255,0.17056874810755251,0.51216454601679
1761299126811763000,2.477762939453125,0.6880214271277189,0.10769318973869085,0.6070466233687475
1761299126831887400,2.497887451171875,0.6662298665583133,0.11460369977951049,0.6052111150372773
1761299126852010200,2.51801025390625,0.6028133331805468,-0.005557634127140045,0.650676323595643
1761299126872133400,2.53813330078125,0.2436626258909702,-0.1328171096011996,0.6327260216895491
1761299126892256000,2.558256103515625,-0.23729484442472457,-0.11648878287374972,0.5944942715160548
1761299126912379100,2.578379150390625,-0.48275370608270163,-0.20202859299331902,0.5264503705985843
1761299126932503300,2.59850341796875,-0.5584884537637234,-0.32782617922127244,0.44164285680893806
1761299126952626200,2.618626220703125,-0.5986579670667648,-0.35933804655522106,0.4022125079680234
1761299126972749300,2.638749267578125,-0.6912801366627216,-0.3382508348628878,0.3004516674203798
1761299126992872200,2.6588720703125,-0.7382435478895902,-0.3433703698337078,0.18482008589785545
1761299127012995300,2.678995361328125,-0.8252771036982536,-0.1776759497642517,0.17357852438278495
1761299127033119200,2.699119140625,-0.5660948371142148,0.08363719136863947,0.18995682773180306
1761299127053242000,2.7192421875,-0.25395722541213034,0.10535831705033778,-0.038764368346007536
1761299127073365200,2.739365234375,-0.037999183526635165,-0.04189794453084469,-0.45375042403619736
1761299127093488000,2.759488037109375,0.041321021425724025,-0.13338438809514044,-0.6090466746121644
1761299127113612300,2.7796123046875,0.07005085682570934,-0.09128039959818124,-0.5785694110229611
1761299127133735200,2.799735107421875,0.1908557493329048,-0.030272096405923366,-0.5203530766367912
1761299127153858300,2.8198583984375,0.62045011215806,-0.05392535919398069,-0.5141873936139046
1761299127173981200,2.839981201171875,0.9892693960249423,-0.2133449367776513,-0.5163976900745183
1761299127194104300,2.860104248046875,1.0660662199795246,-0.2692065247312188,-0.41573666399493814
1761299127214228200,2.880228271484375,0.7134627423763275,-0.3410325745359063,-0.3299758680684492
1761299127234351000,2.90035107421875,-0.04376373840272426,-0.17433102325052022,-0.17594751853644847
1761299127254474200,2.92047412109375,-0.7139198384940624,0.02717968334853649,-0.008764430811814963
1761299127274597000,2.94059716796875,-1.1450339582324027,0.11152589976936578,0.17530881877411156
1761299127294720300,2.96072021484375,-1.300929453343153,0.2542605922728777,0.1226886238945648
1761299127314844200,2.98084423828125,-1.0959943252533673,0.2556608144596219,0.16015585596896706
1761299127334967000,3.000967041015625,-0.746612147784233,0.25218261695504185,0.14707756227971985
1761299127355090200,3.021090087890625,-0.38880584084093567,0.2959405101388693,0.07772498991647735
1761299127375213000,3.041213134765625,0.022014263409376143,0.3250242735430598,0.08202851406298577
1761299127395336200,3.061336181640625,0.268005039986968,0.3079848759368062,0.02401298121223226
1761299127415460000,3.081460205078125,0.4247054217398166,0.3089768095836043,0.04038414243441075
1761299127435583200,3.101583251953125,0.5599702167540789,0.3432826915502548,0.16826909286305308
1761299127455706000,3.1217060546875,0.6370142934679984,0.3479574053630233,0.11135246116491034
1761299127475829200,3.141829345703125,0.6744125884920358,0.1248860243409872,-0.1298840335576795
1761299127495952100,3.1619521484375,0.67168170222342,-0.12609072395563126,-0.20112705931002273
1761299127516076000,3.182075927734375,0.4193050240010023,-0.0425204603433609,-0.019189488312229514
1761299127536199200,3.20219921875,0.18453765222728252,0.11733137117773294,0.2625708313100971
1761299127556322000,3.222322021484375,-0.014898293924331665,0.03023614830970764,0.3270636704161763
1761299127576445200,3.242445068359375,-0.20144553240835666,-0.04047288016378879,0.18281988852396605
1761299127596569000,3.262569091796875,-0.13769406798779962,-0.13736468990296125,0.0958585577012971
1761299127616692000,3.28269189453125,0.10497603973448276,-0.206107386739552,0.09068060707412659
1761299127636815000,3.302815185546875,0.006504559588432312,-0.2308046056225896,0.2721196539652534
1761299127656938000,3.32293798828125,-0.31093641921877857,-0.10541413889080285,0.3256934780415147
1761299127677061000,3.34306103515625,-0.3753793730348348,-0.08689005568474531,0.3633510815888643
1761299127697185000,3.36318505859375,-0.3754600370556116,-0.0964797218069434,0.4179814472470432
1761299127717308200,3.38330810546875,-0.2766547949105501,-0.03703793727904558,0.515353368653357
1761299127737431000,3.40343115234375,0.08133505190610885,-0.02913637037426233,0.6229721779815852
1761299127757554200,3.42355419921875,0.3482704168349504,-0.05271715244799852,0.660864832393825
1761299127777677000,3.443677001953125,0.2262351057499647,-0.13995821352750062,0.6300231194064021
1761299127797801000,3.463801025390625,-0.04552081120312214,-0.1578518898755312,0.53384398798123
1761299127817924000,3.483924072265625,-0.11173895799815654,-0.1574894863039255,0.4626598162766546
1761299127838047000,3.504046875,-0.07756313215196133,-0.21519845568984747,0.3339887935042381
1761299127858170000,3.524170166015625,-0.07684767735898494,-0.2436430444076657,0.2084489266307093
1761299127878293000,3.54429296875,-0.15826748493909834,-0.1745712617471814,0.18435853280071168
1761299127898417000,3.5644169921875,-0.24691198307573795,-0.07594166842997074,0.16978835658589378
1761299127918540000,3.5845400390625,-0.3523585629314184,-0.05763999580293894,0.03172059644749388
1761299127938663000,3.604662841796875,-0.4175485357224941,-0.02242401325404644,-0.07817174730328842
1761299127958786000,3.6247861328125,-0.377037077113986,0.12922522258907557,-0.06515833554379642
1761299127978909000,3.644908935546875,-0.05000292505323887,0.21120324857383965,-0.028083609918318687
1761299127999033000,3.665033203125,0.28426000921726224,0.15422960772514344,-0.02852883293516934
1761299128019156000,3.685156005859375,0.2656061621516943,0.11567688196897506,-0.1257002633333206
1761299128039279000,3.705279052734375,0.356523865917325,0.15959551867246627,-0.1922513866760768
1761299128059402000,3.725402099609375,0.516983307942748,0.104904728063941,-0.22702923353603108
1761299128079525000,3.745525146484375,0.31958734318614,-0.018767244312167166,-0.29135091732628643
1761299128099649000,3.76564892578125,-0.21490064178705215,0.054040802267193794,-0.2327284315583296
1761299128119772000,3.78577197265625,-0.4617892439872026,0.20707214011847971,-0.096028690103814
1761299128139895000,3.80589501953125,-0.28148177667558194,0.10333528679013251,-0.17878712587654588
1761299128160018000,3.826017822265625,0.05389116466343403,-0.24061668232381342,-0.4391707676069811
1761299128180141800,3.846141845703125,0.17861176930963993,-0.3568295708656311,-0.42156624693125483
1761299128200265000,3.866264892578125,0.34916356628239154,-0.34390316153615713,-0.28925168002471324
1761299128220387800,3.886387939453125,0.24841595789790152,-0.3144955730050802,-0.08207184174805879
1761299128240511000,3.906510986328125,-0.16073299826979637,0.010704057104885577,0.08318605006765574
1761299128260633900,3.9266337890625,-0.46386429669559,0.2429448330104351,0.026445304659381507
1761299128280758000,3.946758056640625,-0.36716216430962084,0.15761983468532562,-0.12586186536950988
1761299128300881000,3.966880859375,-0.14737491952478884,0.04788958616107702,-0.18344770156610757
1761299128321004000,3.987004150390625,0.09318097252249717,0.10317775814086198,-0.1069212189855054
1761299128341127000,4.007126953125,0.27480127599835397,0.11487637924104928,0.0394812022453174
1761299128361250000,4.02725,0.42855975908041,0.07347586283832788,0.0538251684888266
1761299128381374200,4.047374267578125,0.3110416331589222,0.04792582651823759,-0.00017599588772282003
1761299128401497000,4.0674970703125,0.2371452068209648,0.01075228016078472,-0.044826673192810265
1761299128421620200,4.0876201171875,0.25516192502677437,-0.029093115754425525,0.017412450436037032
1761299128441742800,4.107742919921875,0.11223989325761795,-0.000507072739303112,0.1121214545097202
1761299128461866000,4.127865966796875,-0.032398879301548,-0.017573066091537474,0.13944250082401558
1761299128481990100,4.147990234375,-0.22738486030697821,-0.05780892262905836,0.07645232136584817
1761299128502113000,4.168113037109375,-0.4305687608152628,0.0794505533337593,0.1318433143992908
1761299128522236200,4.188236083984375,-0.3545271391421556,0.20621376972347497,0.29007253142092376
1761299128542359000,4.208359130859375,-0.044614217752218244,0.17588994313031434,0.3281888385212049
1761299128562483200,4.228483154296875,0.2099403890311718,-0.033382045120000835,0.21894631871497258
1761299128582606000,4.248606201171875,0.16082126107513903,-0.19685235939919948,0.14535877566309646
1761299128602729000,4.26872900390625,-0.14520342070460318,-0.1612827411070466,0.25928055759305135
1761299128622852000,4.28885205078125,-0.3069412121027708,0.008458616265654563,0.3809076349370181
1761299128642975500,4.3089755859375,-0.19189152212142943,-0.028461247591674326,0.4883296795841306
1761299128663099600,4.329099609375,-0.222946585598588,-0.12535364185273645,0.4695018641911447
1761299128683222500,4.349222412109375,-0.14504209266304968,-0.08256693178862333,0.42737657717783
1761299128703345700,4.369345703125,0.05327858572304248,-0.1218164076372981,0.4304554731665179
1761299128723468500,4.389468505859375,0.19057517882585526,-0.14844225649535656,0.24034904436357318
1761299128743592700,4.4095927734375,0.08738660703003406,-0.10219400780051946,0.1947735986300744
1761299128763715800,4.4297158203125,0.14530162038207053,-0.048121933612227434,0.0563749625694938
1761299128783838700,4.449838623046875,0.401688703289628,-0.11650807209610939,-0.13454806157965213
1761299128803962600,4.469962646484375,0.37680034574866295,-0.20691168885976075,-0.16298134345216675
1761299128824085800,4.490085693359375,-0.17600012550652025,-0.03883417304605245,-0.11450429452564567
1761299128844208600,4.510208740234375,-0.5628636001080274,0.17422785513699054,-0.06212526972452178
1761299128864331800,4.530331787109375,-0.5535819770216942,0.2930038721650839,0.012620795712713151
1761299128884454700,4.55045458984375,-0.2683364638984203,0.278760535018146,0.08996123415785841
1761299128904578600,4.57057861328125,0.1343617086946964,0.07634528079479933,0.0444743252243381
1761299128924701700,4.59070166015625,0.20773674150705337,-0.14204437215179205,0.006138310958771035
1761299128944824600,4.610824462890625,-0.09135960231423378,-0.0717848410114646,-0.011532050627935678
1761299128964947700,4.63094775390625,-0.16460253317952156,0.08687953429073095,0.012013632732955738
1761299128985071600,4.651071533203125,-0.004680266770720482,0.09863426949232816,0.02022977287909016
1761299129005194800,4.67119482421875,0.14103987128436565,0.06051204410791397,-0.008274035212676972
1761299129025317600,4.691317626953125,0.16636954285204408,0.12102262691110371,0.07792444887817837
1761299129045440800,4.711440673828125,0.37729718935489653,0.17589754191488027,0.05519616458108648
1761299129065563600,4.731563720703125,0.3628746962487697,0.08821545906960963,-0.03692519761957228
1761299129085687600,4.7516875,-0.12898060017824173,0.030674247466027735,-0.059626840504910794
1761299129105810700,4.771810791015625,-0.431416902077198,0.16980594704151153,-0.042594722022814675
1761299129125933600,4.79193359375,-0.1570201152265072,0.21236235548108814,0.06195443406910635
1761299129146056700,4.812056640625,0.1866863546937704,0.03696691786944866,0.03865705378032289
1761299129166179600,4.8321796875,0.1568365753531456,-0.10876520288437604,-0.051250230833748356
1761299129186303500,4.852303466796875,-0.02543079385459423,-0.14495558342337608,-0.17939564969632774
1761299129206426600,4.872426513671875,-0.10911270114779471,-0.1701297721683979,-0.26508133455999194
1761299129226549500,4.892549560546875,-0.06077975513339042,-0.16983458861410616,-0.318190993456915
1761299129246672600,4.912672607421875,0.010370587366819381,-0.1517290230810642,-0.13494028490078636
1761299129266795500,4.93279541015625,0.10696867485642432,-0.06576485006958246,0.028296448951400814
1761299129286919700,4.952919677734375,0.14647183320522308,-0.12497954784333705,0.00005263436953537166
1761299129307042600,4.97304248046875,-0.07562661113142967,-0.15852525909245013,-0.015720971951447428
1761299129327165700,4.993165771484375,-0.6263011762738228,0.057815060108900064,0.1571390654310584
1761299129347288600,5.01328857421875,-0.7440566180825233,0.236065010368824,0.16515801163781432
1761299129367412500,5.03341259765625,-0.4360217655241489,0.11214607749432325,-0.03159265921888873
1761299129387535600,5.05353564453125,-0.05279343255460262,-0.14030804987847803,-0.46261568487398325
1761299129407658500,5.073658447265625,0.09972937125265598,-0.22503771265894174,-0.42573622609227896
1761299129427781600,5.09378173828125,0.15459084225296973,-0.12392390131056308,-0.2032907218836248
1761299129447904500,5.113904541015625,0.24248189167380332,-0.02242342873215675,0.001478721649898216
1761299129468028700,5.134028564453125,0.33928163921535015,-0.055552960395812985,0.007909056091494858
1761299129488151600,5.154151611328125,0.48431730213761326,-0.1379369368329644,-0.10686197221209294
1761299129508274400,5.1742744140625,0.37439445365071294,-0.06391162341833115,0.13543304598694667
1761299129528397600,5.1943974609375,0.07870762601196765,0.1791018909141421,0.3572829406563192
1761299129548520400,5.2145205078125,-0.05593699127733707,0.22030250083059072,0.428821771017462
1761299129568644600,5.23464453125,0.12480652936398982,0.13053542840480803,0.3689470018997788
1761299129588767500,5.254767578125,0.07351707163155079,0.03874298763126135,0.4400098122470081
1761299129608890600,5.274890625,-0.10090309120714663,0.13094108659625053,0.4236428705422208
1761299129629013500,5.295013427734375,-0.10436930601298808,0.1500762874379754,0.5073940802119672
1761299129649136600,5.31513671875,-0.04124678714573383,0.028636019636690616,0.4457190567392856
1761299129669260500,5.335260498046875,-0.16463585092723368,-0.042947745844721795,0.345564591942355
1761299129689383400,5.355383544921875,-0.18935820425152777,-0.07006020917594433,0.30129867617115375
1761299129709506600,5.375506591796875,-0.06290507672429084,-0.12254793678224087,0.2608694159533828
1761299129729629400,5.39562939453125,-0.04282558076977729,-0.15697656834572551,0.20016141088195144
1761299129749752600,5.415752685546875,-0.11551029323041438,-0.09292115254253148,0.24655113214040172
1761299129769876500,5.43587646484375,-0.013347557350993156,-0.11314970157891512,0.27179292449522763
1761299129789999400,5.455999267578125,-0.013891747230291365,-0.13675444905012846,0.22412304549943654
1761299129810122500,5.47612255859375,-0.30917817737460135,-0.10762275485098362,0.1258789535016287
1761299129830245400,5.496245361328125,-0.4976151751279831,0.08853460802137851,0.15016051338901742
1761299129850368500,5.516368408203125,-0.3623416122853756,0.18580431116223334,0.15814164833603425
1761299129870492400,5.536492431640625,0.01740413926541805,0.10922025317549705,0.01187795058931224
1761299129890615600,5.556615478515625,0.35459552820324897,0.01012450365126133,-0.10450380084654316
1761299129910738400,5.576738525390625,0.3659691551327705,0.059549336555600164,-0.05825688559226691
1761299129930861600,5.596861572265625,0.24775661720633504,0.09783552033007144,-0.06917829350857063
1761299129950985500,5.6169853515625,0.20684709919095037,-0.04368132081627846,-0.17125333283822983
1761299129971108400,5.6371083984375,0.25446166780292984,-0.14307956041842698,-0.22704338992554693
1761299129991231500,5.6572314453125,0.07795534633994101,-0.0787166861012578,-0.10845925134089775
1761299130011354400,5.677354248046875,-0.23283552692830561,0.057473114803433416,0.020770318629732356
1761299130031477500,5.6974775390625,-0.26752164038419723,0.04028349507153034,0.08597821980314328
1761299130051601400,5.717601318359375,-0.04549859937131404,-0.038730128149688244,-0.018295498614571987
1761299130071724300,5.737724365234375,-0.1484662218928337,-0.2095063815280795,-0.34231983786746856
1761299130091847400,5.757847412109375,-0.44151101059019565,-0.31203648941516876,-0.616353636624664
1761299130111970300,5.77797021484375,-0.3713602005213499,-0.11398527562022208,-0.5029783826615661
1761299130132093400,5.798093505859375,0.088020813280344,0.02024637695401907,-0.297746043457184
1761299130152217600,5.818217529296875,0.33749709388613697,-0.08649608793109655,-0.3335802857685834
1761299130172340700,5.8383408203125,0.26629180632829663,-0.06888824278712272,-0.27799092061882835
1761299130192463400,5.85846337890625,0.01187339314520359,0.07260667878836392,-0.14051215761583297
1761299130212586500,5.87858642578125,-0.04965630357265472,0.2006809777766466,-0.027565686991438267
1761299130232709400,5.89870947265625,-0.01979483379423618,0.1606318759828806,0.092011581683252
1761299130252833500,5.91883349609375,0.04691489591002464,0.04449526754766702,0.04152132520421874
1761299130272956700,5.938956787109375,0.13067103748321532,-0.06402151353359221,-0.01647696425078902
1761299130293079600,5.95907958984375,0.1082721586704254,-0.018348142117261886,0.18721081695929168
1761299130313202700,5.97920263671875,-0.15447335335314272,0.19841244832277297,0.3236094383090734
1761299130333325600,5.99932568359375,-0.06310615225434303,0.16560907987356185,0.27431506338398903
1761299130353449500,6.019449462890625,0.1781599338889122,-0.05000818575024604,0.16100162261072545
1761299130373572600,6.039572509765625,0.16401918033361435,-0.11063596519231796,0.11277497738185338
1761299130393695500,6.059695556640625,0.006117021575570106,-0.029464871676266192,0.20704729793816803
1761299130413818600,6.079818603515625,-0.052525721529126164,0.008821019837260245,0.21614549074899403
1761299130433942500,6.099942626953125,0.09762918410301208,-0.025481354998052118,0.22346271842718124
1761299130454065700,6.120065673828125,0.14323065932691095,-0.013701777616143225,0.2813451446838677
1761299130474188500,6.1401884765625,0.04495499401390552,-0.06144698687046766,0.1719045632885769
1761299130494311700,6.160311767578125,0.056395256438851356,-0.12382336354553698,0.10676146184653043
1761299130514434600,6.1804345703125,-0.025514965006709096,-0.09750175833106041,0.2561836327573284
1761299130534558500,6.200558349609375,-0.2278910562634468,-0.031798867581784726,0.3623195465840399
1761299130554681600,6.220681640625,-0.3020949411153793,-0.09112900842875242,0.2824970546653494
1761299130574804500,6.240804443359375,-0.13432137668430805,-0.12144494397640228,0.3546181053612381
1761299130594927600,6.260927734375,-0.10516542482674121,-0.05517857412546873,0.4277926471654325
1761299130615050500,6.281050537109375,-0.09435819960832595,-0.0763113785251975,0.3877075972754508
1761299130635174400,6.30117431640625,-0.010104629907011985,-0.1009898927077651,0.3499032787337899
1761299130655297500,6.321297607421875,0.015165420427918434,-0.010600596730411051,0.3725512004042044
1761299130675420400,6.34142041015625,0.06483925965726375,0.05140606984943151,0.3400417368676513
1761299130695543600,6.36154345703125,0.12885901962518692,-0.009190437671542167,0.2708761384438723
1761299130715666400,6.38166650390625,0.08615501940846443,0.0053743865147233005,0.2736778797253035
1761299130735790600,6.40179052734375,0.013890578186511992,-0.007327566409111023,0.24580687137804924
1761299130755913500,6.42191357421875,0.05354278961718082,-0.045136195799708366,0.16886702222358435
1761299130776036600,6.44203662109375,0.26401684713363643,-0.02266834340393543,0.1793342566316016
1761299130796159500,6.462159423828125,0.14520985044538973,0.014465163204073905,0.24166856599692255
1761299130816283400,6.482283447265625,0.06852233208417892,0.061624389263987535,0.15879572833059355
1761299130836406500,6.502406494140625,0.3745563662141561,-0.054286009199917315,0.10796878267652354
1761299130856529400,6.522529296875,0.3761743228048086,-0.2144581587165594,-0.07673066338319331
1761299130876652500,6.542652587890625,-0.1793143646210432,-0.20525573834627867,-0.05366298193074762
1761299130896775400,6.562775390625,-0.6207289290994406,0.001904080055654049,0.09455672698826528
1761299130916899300,6.5828994140625,-0.5804442649841308,0.09465601351112127,0.14755142686916514
1761299130937022500,6.6030224609375,-0.3972229560524225,-0.03547638705074787,0.027342399629577994
1761299130957145300,6.623145263671875,-0.358431745365262,-0.17896306696534156,-0.10030702501013875
1761299130977268500,6.6432685546875,-0.3310428031802177,-0.14445377138108015,-0.07397511759735644
1761299130997391400,6.663391357421875,-0.20279285536408423,0.04806728081554174,0.1121491462342441
1761299131017515500,6.683515625,-0.0894113908559084,0.19867226830273865,0.20741636871257796
1761299131037638400,6.703638427734375,0.03725625620484352,0.24646365478634832,0.10902969903945922
1761299131057761500,6.723761474609375,0.29459026457369325,0.23030776201635597,-0.03772801103559322
1761299131077884400,6.743884521484375,0.5401683686971664,0.29564941823780533,0.024897234967164693
1761299131098007600,6.764007568359375,0.7308236270219087,0.47067456123232837,0.26306908142212776
1761299131118131500,6.78413134765625,0.7139964108616114,0.5443599751681089,0.2893077758598141
1761299131138254300,6.80425439453125,0.6171516551345586,0.31967180659919975,0.10732173521094955
1761299131158377500,6.82437744140625,0.2540022335976362,0.13210165480822325,-0.20979389323256908
1761299131178500400,6.844500244140625,-0.19062544770836828,-0.05270721557587385,-0.40114232145324347
1761299131198623500,6.86462353515625,-0.6213637198716402,-0.02935731964856386,-0.46949506912417704
1761299131218747600,6.88474755859375,-0.870551246663928,-0.0884326089516282,-0.4995452664077282
1761299131238870500,6.90487060546875,-0.9150906456142663,-0.2666352129384875,-0.6212640588894486
1761299131258993700,6.92499365234375,-0.86071900395751,-0.3452314875304699,-0.7848994275372475
1761299131279116500,6.945116455078125,-0.5179004227876662,-0.3029512656837702,-0.764988420017436
1761299131299239400,6.965239501953125,-0.07165361584722996,-0.19046645775437354,-0.4837842547068372
1761299131319363600,6.985363525390625,0.14422960723638534,-0.04896130704581737,-0.23831529177995397
1761299131339486700,7.00548681640625,0.19521336002051828,-0.0775508571922779,-0.22327289494350552
1761299131359609600,7.025609619140625,0.15978841089606285,-0.226566529661417,-0.37331710674278434
1761299131379732700,7.045732666015625,0.1830646570652723,-0.26445436176806686,-0.36578320410661397
1761299131399856600,7.065856689453125,0.14829028080403803,-0.06953910791128873,-0.17352840163074432
1761299131419979500,7.0859794921875,0.23178981726765632,0.06533288839310407,0.04441560817388818
1761299131440102700,7.1061025390625,0.36754385710358617,0.0031289456754922864,0.14591924082376062
1761299131460225500,7.1262255859375,0.22504677274823187,-0.049510173100233076,0.15553566708872094
1761299131480348700,7.1463486328125,0.09236205735504627,0.0023851415708661078,0.1028690027189441
1761299131500472600,7.16647265625,0.1587304262757301,-0.019411679695546625,0.12043538334136827
1761299131520595500,7.186595458984375,0.16705109537541865,0.026617081029713153,0.24864156508101148
1761299131540718600,7.206718505859375,0.0250181214004755,0.10994827518910169,0.45886751132160425
1761299131560841500,7.226841552734375,-0.12951894483864307,0.11540858642160892,0.5356407352048903
1761299131580964600,7.246964599609375,-0.04673837029933929,0.04220803339332342,0.39028617905918506
1761299131601088500,7.267088623046875,0.16154665274024008,-0.06477700807601212,0.35883090075068175
1761299131621211600,7.287211669921875,0.14049977305829525,-0.02235299384444952,0.37444505132678896
1761299131641334500,7.30733447265625,-0.02649988439083099,0.0428971847012639,0.4471405409097671
1761299131661457700,7.327457763671875,0.050424365335702895,0.018979133497178554,0.5017554898031056
1761299131681580500,7.34758056640625,0.1231429800659418,-0.05604395878314972,0.48421033463180063
1761299131701704400,7.367704345703125,0.027072715842723846,-0.1163549273610115,0.38786903491485863
1761299131721827600,7.38782763671875,-0.10899228963851929,-0.09555237782895565,0.4557023252889514
1761299131741950500,7.407950439453125,-0.27007775460779665,-0.00012859481573104857,0.6095446141969412
1761299131762073600,7.428073486328125,-0.3020902649402618,-0.021124913354218004,0.4939873765522614
1761299131782196500,7.448196533203125,-0.28801848496794696,-0.22629560376554725,0.23602466009212655
1761299131802320400,7.4683203125,-0.3669108198970556,-0.28873920045793056,0.11209938880838453
1761299131822443500,7.488443603515625,-0.4474333863765001,-0.11200549997985362,0.14909321295106784
1761299131842566400,7.50856640625,-0.37939971459209915,0.058548927341401574,0.3066746701210737
1761299131862689500,7.528689453125,-0.04968260705769062,0.12057575992643832,0.2674630237984471
1761299131882813400,7.5488134765625,0.18891046048402785,-0.04175093727558851,0.0592451294446364
1761299131902936600,7.5689365234375,0.15360650739073753,-0.0966200070604682,-0.10427256764024495
1761299131923059500,7.5890595703125,0.026935353198647496,0.022053134115040302,-0.07914216323802248
1761299131943182600,7.6091826171875,0.027632103291153905,0.1514101663902402,0.07658895335756241
1761299131963305500,7.629305419921875,0.052204819011688226,0.23541999046355486,0.04657594627924263
1761299131983429400,7.649429443359375,-0.04778291091620922,0.10853227091133594,0.021416772440262136
1761299132003552500,7.669552490234375,-0.27380466617643834,0.08364654371887445,-0.011246676081605254
1761299132023675400,7.68967529296875,-0.49333705941736694,-0.016454583455622195,-0.10587136287270113
1761299132043798500,7.709798583984375,-0.42644028270840645,0.05411036037206649,-0.3400362569749355
1761299132063921400,7.72992138671875,-0.055365913391113276,-0.027081775932013986,-0.4663165121532976
1761299132084045300,7.75004541015625,0.3600689911782741,-0.07124591182917356,-0.45197311216536906
1761299132104168400,7.77016845703125,0.351417482689023,-0.027182313697040078,-0.09286733999606221
1761299132124291300,7.790291259765625,0.13169687339961528,0.015366495957970619,-0.18493682587901128
1761299132144414500,7.81041455078125,0.05942249530553818,0.05556815796494484,-0.2215209732422605
1761299132164537300,7.830537353515625,0.08936988980174064,0.06067571023702621,-0.33959359124135224
1761299132184661500,7.85066162109375,0.06784545573592185,0.0719590285345912,-0.4582460914876312
1761299132204784400,7.870784423828125,-0.09362754724621772,0.05429419250637293,-0.25409612242616714
1761299132224907500,7.890907470703125,-0.0325035087198019,0.10038871194422244,-0.13753581781932153
1761299132245030400,7.911030517578125,0.11409516573548316,0.08742606225758791,-0.047835910611925644
1761299132265153500,7.931153564453125,0.07861760964095592,0.04268704908192158,0.01868579484010115
1761299132285277400,7.95127734375,-0.027190789264440535,0.0606675269305706,-0.017165453405026346
1761299132305400300,7.971400390625,0.07321195120513439,-0.028273031543195246,-0.1659176160997711
1761299132325523500,7.9915234375,0.0239244809448719,-0.15460428625643252,-0.0902647562822327
1761299132345646300,8.011646240234375,-0.21821254281401634,-0.0965977952286601,-0.03270373486648313
1761299132365769500,8.03176953125,-0.13338321905136108,-0.0514870261311531,0.04196067103613168
1761299132385892400,8.051892333984375,0.23259353486597537,-0.07734802809655666,0.19809138140855356
1761299132406015500,8.072015380859375,0.242678291028738,-0.09251111043691634,0.10974600321580655
1761299132426138400,8.092138427734374,-0.09263093742430209,-0.048588674341142175,0.13591501168445683
1761299132446262300,8.11226220703125,-0.324311449098587,0.018108488142490387,0.20090021001789718
1761299132466385400,8.132385498046874,-0.09425415471196175,0.029832828205823895,0.2503710009558126
1761299132486508300,8.15250830078125,0.3433738769650459,-0.08152297569364308,0.20511145277107135
1761299132506631400,8.17263134765625,0.3319470585435629,-0.13904635937958956,0.2738930020470172
1761299132526754300,8.19275439453125,0.01795709697306156,0.010746727202832698,0.3288374386230484
1761299132546878500,8.21287841796875,-0.18477905976772308,0.08130407224595547,0.4013394514605403
1761299132567001300,8.23300146484375,-0.3985340386509895,-0.0020464111357927322,0.3149016330553219
1761299132587124200,8.253124267578125,-0.40582185757160183,-0.07178922492563725,0.28494205493098124
1761299132607247400,8.273247314453124,-0.08460662092268466,-0.037754853376746174,0.20186467113588005
1761299132627370200,8.293370361328124,0.18691548727452753,-0.14449351886957884,0.24782897005649282
1761299132647494700,8.31349462890625,0.14605740718543528,-0.14043781373798847,0.25838148986147713
1761299132667617500,8.333617431640626,0.009681436058878898,-0.08453180212080479,0.28912052792571485
1761299132687740700,8.35374072265625,0.0755295804977417,-0.05801584337800741,0.224545326032117
1761299132707865600,8.373865478515626,0.2963806551218033,-0.12012246320098638,0.11980167028140276
1761299132727989500,8.393989501953126,0.17346797668039798,-0.15957564492821694,0.15886382513074204
1761299132748112400,8.4141123046875,-0.22248247521817682,-0.02951163342744112,0.1881443166834302
1761299132768235500,8.434235595703125,-0.2128366949945688,0.09436404482722281,0.31197069416996087
1761299132788358400,8.4543583984375,-0.06398527317643166,0.0960050900325179,0.2996005304837599
1761299132808481500,8.4744814453125,-0.09035247109830379,0.06371317823678255,0.14256171055678277
1761299132828605400,8.49460546875,-0.07241290978193282,0.0018786533534526824,-0.007016764018934918
1761299132848728300,8.514728271484374,0.09838964708149432,-0.06263707343786955,-0.03487364908435847
1761299132868851500,8.5348515625,0.16571429381370542,-0.01298836864978075,-0.027225540917413308
1761299132888974300,8.554974365234376,-0.015009353083372114,0.11017360837757587,0.15141023032232187
1761299132909097500,8.575097412109375,-0.24214812967479227,0.2343079375684261,0.15743048612568528
1761299132929221600,8.5952216796875,-0.12590718408226967,0.12488222494870424,-0.0020249116900376975
1761299132949344500,8.615344482421875,0.15976152288913725,-0.08743512234687804,-0.2186747900309041
1761299132969467400,8.63546728515625,0.15984335595369337,-0.18635609982609747,-0.2952845304481685
1761299132989590500,8.655590576171875,0.08641396260559558,-0.021316636534035205,-0.1935093691142276
1761299133009713400,8.67571337890625,0.27926351610422134,0.11339958468675612,-0.08763583255074918
1761299133029837600,8.695837646484375,0.2760018839597702,-0.02674392227977514,-0.11369756298633292
1761299133049960700,8.715960693359374,-0.17952128536999223,0.08884118975251913,-0.027011140114907174
1761299133070083600,8.73608349609375,-0.18786884247660635,0.18666911129802463,0.14459538094201124
1761299133090206700,8.756206787109376,0.058580783784389495,0.07905395523160695,-0.0012627773442771286
1761299133110329600,8.77632958984375,-0.051501639178395266,0.004971066410839557,-0.018014033058378846
1761299133130453500,8.79645361328125,-0.36843642202913757,-0.004919920745491981,-0.06732523582067806
1761299133150576600,8.81657666015625,-0.340499782833457,0.05430120676904916,-0.0989142098117154
1761299133170699500,8.836699462890625,0.04655541494786739,0.02964782702773809,-0.0639255058132112
1761299133190822700,8.85682275390625,0.24347324079871177,-0.046183659026026724,-0.09316298020808025
1761299133210945500,8.876945556640624,0.1787432867348194,-0.17434943569004535,-0.2743380241344683
1761299133231069400,8.8970693359375,-0.014247721061110497,-0.1878016224592924,-0.2692717719871551
1761299133251192600,8.917192626953126,-0.04457739287316799,-0.09125088124275207,-0.12824846824510022
1761299133271315500,8.9373154296875,0.045973231145739556,-0.003054419134557247,0.04254922978011891
1761299133291438600,8.9574384765625,0.24178864871263503,0.005692074161767959,0.0762190149334725
1761299133311561500,8.9775615234375,0.17541677266061306,-0.1708311984360218,-0.07190646723029204
1761299133331685600,8.997685546875,-0.15928689111471175,-0.23000936359167098,-0.20939777005445212
1761299133351808500,9.01780859375,-0.2700274857252836,-0.06816548147052526,0.11428196614501065
1761299133371931600,9.037931640625,-0.1725567070543766,0.13192337563186884,0.2816310489531606
1761299133392054500,9.058054443359374,0.05077040229439735,0.09534019638299941,0.30323052101656794
1761299133412177700,9.078177734375,0.10930150171816348,-0.12198533446341753,0.10110301595972851
1761299133432301600,9.098301513671874,-0.07018120520710945,-0.1819309768602252,-0.0865077144368086
1761299133452424400,9.118424560546876,-0.1102507652670145,-0.12247370250225066,0.09892884112526662
1761299133472547600,9.138547607421875,-0.04806114333570003,0.028531097957491872,0.24609980817632748
1761299133492670500,9.15867041015625,-0.10068272645473479,0.2284393377959728,0.25993756019705905
1761299133512793600,9.178793701171875,0.04818856910765171,-0.09240472745299338,0.5804205187823623
1761299133532917500,9.19891748046875,0.16574059729874133,0.007378712074458599,0.15859434227328748
1761299133553040400,9.219040283203125,0.03179506818950176,0.013838555738329886,-0.012144154644291848
1761299133573163500,9.23916357421875,0.2935042229026556,-0.02410889760106802,0.15506558362524955
