time,seconds_elapsed,z,y,x
1761299124393207600,0.05920751953125,0.08797512948513031,-0.020720724016427994,0.07412882149219513
1761299124413330400,0.079330322265625,0.06775747239589691,-0.02069941908121109,0.10965245962142944
1761299124433453600,0.09945361328125,0.04291524365544319,-0.058930959552526474,0.1716950535774231
1761299124453577500,0.119577392578125,0.02177933044731617,-0.09668233245611191,0.23628656566143036
1761299124473700600,0.13970068359375,-0.003698331769555807,-0.09226095676422119,0.29144489765167236
1761299124493823500,0.159823486328125,-0.025860626250505447,-0.020023243501782417,0.26644182205200195
1761299124513946600,0.179946533203125,-0.03508235514163971,0.07085153460502625,0.17249268293380737
1761299124534069500,0.200069580078125,-0.04538825526833534,0.06709381937980652,0.11495774239301682
1761299124554193400,0.220193359375,-0.08144745230674744,0.009925601072609425,0.1409909427165985
1761299124574316500,0.240316650390625,-0.16128475964069366,-0.010547449812293053,0.11372576653957367
1761299124594439400,0.260439453125,-0.21867428719997406,-0.01055969949811697,-0.00039228363311849535
1761299124614562600,0.2805625,-0.22139577567577362,0.02365259826183319,-0.056356750428676605
1761299124634685700,0.300685791015625,-0.17817160487174988,0.007934089750051498,-0.06269693374633789
1761299124654809600,0.3208095703125,-0.11012037843465805,-0.02480068802833557,-0.08040536195039749
1761299124674932700,0.3409326171875,-0.09469641745090485,-0.07097617536783218,-0.09382103383541107
1761299124695055600,0.3610556640625,-0.07689691334962845,-0.05730669945478439,-0.07251468300819397
1761299124715178800,0.3811787109375,-0.0552949458360672,-0.08912215381860733,-0.08157661557197571
1761299124735301600,0.401301513671875,-0.03153981640934944,-0.12888553738594055,-0.09244018793106079
1761299124755425800,0.42142578125,-0.02375912480056286,-0.2187134325504303,-0.05711335316300392
1761299124775548700,0.441548583984375,-0.028959745541214943,-0.23819339275360107,0.04623007774353027
1761299124795671800,0.461671875,-0.04718109592795372,-0.16863268613815308,0.11428556591272354
1761299124815794700,0.481794677734375,-0.024107467383146286,-0.010361826978623867,0.09347482025623322
1761299124835918600,0.501918701171875,0.0161249078810215,0.06316591799259186,0.019086875021457672
1761299124856041700,0.522041748046875,0.09458376467227936,0.0557255819439888,-0.04078125208616257
1761299124876164600,0.54216455078125,0.12024811655282974,0.0037201696541160345,-0.06638887524604797
1761299124896287700,0.562287841796875,0.06798810511827469,-0.02870115265250206,-0.09523091465234756
1761299124916410600,0.58241064453125,-0.004023769870400429,0.020174777135252953,-0.1662965714931488
1761299124936534500,0.602534423828125,-0.03219042718410492,0.10616984218358994,-0.2454259991645813
1761299124956657700,0.62265771484375,-0.004571049474179745,0.14518728852272034,-0.27086904644966125
1761299124976780500,0.642780517578125,0.08921536058187485,0.05636740103363991,-0.2280086725950241
1761299124996903700,0.662903564453125,0.18087337911128998,-0.04358502849936485,-0.12390969693660736
1761299125017026600,0.683026611328125,0.1862761378288269,-0.04779202491044998,-0.06629326939582825
1761299125037150700,0.703150634765625,0.14439553022384644,0.007258179131895304,-0.0833904966711998
1761299125057273600,0.723273681640625,0.12708738446235657,0.07335783541202545,-0.089697927236557
1761299125077396700,0.743396728515625,0.11173158884048462,0.09202393144369125,-0.03454359620809555
1761299125097519600,0.76351953125,0.09973138570785522,0.05443394556641579,0.03815271332859993
1761299125117643500,0.7836435546875,0.10128214955329895,0.0025691515766084194,0.0802018940448761
1761299125137766700,0.8037666015625,0.11950749158859253,0.06277896463871002,0.08506296575069427
1761299125157889500,0.8238896484375,0.10489605367183685,0.18956859409809113,0.060199156403541565
1761299125178012700,0.8440126953125,0.08934452384710312,0.21655893325805664,-0.0014423680258914828
1761299125198135600,0.864135498046875,0.13205204904079437,0.1377629190683365,0.0102566322311759
1761299125218259500,0.884259521484375,0.20055973529815674,-0.07010744512081146,0.07023714482784271
1761299125238382600,0.904382568359375,0.2814471125602722,-0.24150903522968292,0.1666955053806305
1761299125258505500,0.92450537109375,0.329910010099411,-0.28222209215164185,0.21048346161842346
1761299125278628600,0.944628662109375,0.26768016815185547,-0.20077864825725555,0.08934878557920456
1761299125298751500,0.96475146484375,0.1084364652633667,-0.05817968398332596,-0.12393046915531158
1761299125318875600,0.984875732421875,0.013371998444199562,0.05975440889596939,-0.22152680158615112
1761299125338998500,1.00499853515625,0.01661173440515995,0.06009955704212189,-0.15208007395267487
1761299125359121700,1.02512158203125,-0.0025510420091450214,-0.012602876871824265,-0.000050866376113845035
1761299125379244500,1.04524462890625,-0.03539394214749336,-0.0202725138515234,0.11802969872951508
1761299125399368400,1.065368408203125,-0.05431570112705231,0.05615328252315521,0.07321136444807053
1761299125419491600,1.08549169921875,-0.06161649152636528,0.14798493683338165,-0.054609183222055435
1761299125439614500,1.105614501953125,-0.07999470084905624,0.1329098492860794,-0.08939991891384125
1761299125459737600,1.125737548828125,-0.09572385996580124,0.009022523649036884,0.025733591988682747
1761299125479860500,1.145860595703125,-0.09325671195983887,-0.09328360855579376,0.1733052134513855
1761299125499984600,1.165984619140625,-0.10866975784301758,-0.06872313469648361,0.22027884423732758
1761299125520107800,1.186107666015625,-0.1300373673439026,0.008731173351407051,0.12854865193367004
1761299125540230700,1.206230712890625,-0.13237108290195465,0.0203406922519207,0.04379009082913399
1761299125560353800,1.226353759765625,-0.15955503284931183,-0.012561597861349583,0.06785361468791962
1761299125580476400,1.246476318359375,-0.17241758108139038,-0.10892834514379501,0.10284116119146347
1761299125600600800,1.266600830078125,-0.14549461007118225,-0.19404271245002747,0.08922494947910309
1761299125620723700,1.2867236328125,-0.16862550377845764,-0.16168050467967987,0.11951947212219238
1761299125640846800,1.306846923828125,-0.20397549867630005,0.05787661671638489,0.05174042657017708
1761299125660969700,1.3269697265625,-0.14490152895450592,0.21402999758720398,-0.1065424233675003
1761299125681093600,1.34709375,-0.09378428012132645,0.09896066784858704,-0.23733185231685638
1761299125701216800,1.367216796875,-0.13627395033836365,-0.2407633364200592,-0.23728685081005096
1761299125721339600,1.387339599609375,-0.2503821551799774,-0.5052264332771301,-0.14719930291175842
1761299125741462800,1.407462890625,-0.30536070466041565,-0.5635871887207031,-0.1065855622291565
1761299125761585700,1.427585693359375,-0.2765546441078186,-0.3336046040058136,-0.12307426333427429
1761299125781709600,1.44770947265625,-0.23459945619106293,-0.11908324807882309,-0.1707134246826172
1761299125801832700,1.467832763671875,-0.160417377948761,-0.004279966000467539,-0.17465436458587646
1761299125821955600,1.48795556640625,-0.07985515147447586,0.06504052132368088,-0.11076406389474869
1761299125842078700,1.50807861328125,-0.02412690781056881,0.08620385825634003,-0.05800071731209755
1761299125862201600,1.52820166015625,0.00666535971686244,0.011530954390764236,-0.08591437339782715
1761299125882325800,1.54832568359375,0.02070661075413227,-0.012605274096131325,-0.15734568238258362
1761299125902448600,1.56844873046875,0.04602528363466263,0.010635334067046642,-0.15300260484218597
1761299125922571800,1.58857177734375,0.10802367329597473,0.17224553227424622,-0.06129984185099602
1761299125942694700,1.608694580078125,0.17861102521419525,0.2770385146141052,0.05660495534539223
1761299125962817800,1.62881787109375,0.2368202656507492,0.2718411087989807,0.1335519403219223
1761299125982941700,1.648941650390625,0.24819250404834747,0.19881536066532135,0.12801042199134827
1761299126003064600,1.669064697265625,0.20169822871685028,0.10005522519350052,0.09033948183059692
1761299126023187700,1.689187744140625,0.1607678383588791,0.023320768028497696,0.10053832828998566
1761299126043310600,1.709310546875,0.17032912373542786,-0.02653307281434536,0.10654988139867783
1761299126063434500,1.7294345703125,0.14445491135120392,-0.01738698035478592,0.022293588146567345
1761299126083557600,1.7495576171875,0.07673951983451843,-0.04445641487836838,-0.10966764390468597
1761299126103680500,1.769680419921875,0.03669889271259308,-0.09242819994688034,-0.13612215220928192
1761299126123803600,1.7898037109375,0.04009122774004936,-0.11428742855787277,-0.1313209980726242
1761299126143926500,1.809926513671875,0.10350402444601059,-0.06716305762529373,-0.17783577740192413
1761299126164050700,1.83005078125,0.09989863634109497,0.009998838417232037,-0.23941950500011444
1761299126184173600,1.850173583984375,0.06573427468538284,0.1322222203016281,-0.21592217683792114
1761299126204296700,1.870296630859375,0.07065100222826004,0.2480635941028595,-0.1259523332118988
1761299126224419600,1.890419677734375,0.05456124618649483,0.2623376250267029,-0.07842104136943817
1761299126244542700,1.910542724609375,0.0038389465771615505,0.1444953978061676,-0.08834504336118698
1761299126264666600,1.93066650390625,-0.05227785184979439,0.027786357328295708,-0.08381260931491852
1761299126284789500,1.95078955078125,-0.0775243490934372,-0.041009750217199326,-0.06995990872383118
1761299126304912600,1.97091259765625,-0.07214849442243576,-0.10535864531993866,-0.026136795058846474
1761299126325035500,1.991035400390625,-0.07142038643360138,-0.1658795177936554,0.043541885912418365
1761299126345158700,2.01115869140625,-0.11810693144798279,-0.15613608062267303,0.06259600073099136
1761299126365282600,2.031282470703125,-0.16035611927509308,-0.08983481675386429,0.020018182694911957
1761299126385405400,2.051405517578125,-0.2096107453107834,-0.02961408533155918,-0.006869890261441469
1761299126405528600,2.071528564453125,-0.20974044501781464,0.0229327455163002,0.0004751079250127077
1761299126425651500,2.0916513671875,-0.20556221902370453,0.1128477230668068,0.014851383864879608
1761299126445776000,2.11177587890625,-0.20619897544384003,0.1257219761610031,0.019304722547531128
1761299126465898800,2.131898681640625,-0.17283596098423004,0.07152744382619858,0.02455061674118042
1761299126486021600,2.152021728515625,-0.1340014785528183,-0.002412557601928711,0.021229654550552368
1761299126506144500,2.17214453125,-0.1225149929523468,-0.04851533845067024,0.018383800983428955
1761299126526267600,2.192267578125,-0.13052232563495636,-0.10513307899236679,0.03840997442603111
1761299126546391800,2.212391845703125,-0.11326610296964645,-0.16827157139778137,0.05865239351987839
1761299126566514700,2.2325146484375,-0.12995240092277527,-0.12989380955696106,0.022594524547457695
1761299126586637800,2.252637939453125,-0.16726861894130707,-0.0568864531815052,-0.011352789588272572
1761299126606760700,2.2727607421875,-0.17746320366859436,-0.03220028057694435,0.01455737091600895
1761299126626883000,2.292883056640625,-0.17632229626178741,-0.03513428568840027,0.037629932165145874
1761299126647007200,2.31300732421875,-0.1460413634777069,-0.029937125742435455,0.004434429574757814
1761299126667130000,2.333130126953125,-0.1142626628279686,-0.017366472631692886,0.004282895475625992
1761299126687253200,2.353253173828125,-0.1230207309126854,0.005075985100120306,0.07034340500831604
1761299126707376000,2.373376220703125,-0.16388320922851562,0.05429306626319885,0.09047583490610123
1761299126727499300,2.393499267578125,-0.17203061282634735,0.11481499671936035,-0.016533436253666878
1761299126747623200,2.413623046875,-0.13526861369609833,0.1344267874956131,-0.1010533794760704
1761299126767746300,2.433746337890625,-0.07711795717477798,0.1156214028596878,-0.08223868161439896
1761299126787869200,2.453869140625,-0.03861530125141144,0.043163448572158813,-0.050329484045505524
1761299126807992300,2.473992431640625,-0.0035518580116331577,-0.03171398863196373,-0.05909527838230133
1761299126828116200,2.4941162109375,0.03985686972737312,-0.04014582186937332,-0.08711200207471848
1761299126848239000,2.514239013671875,0.07155834138393402,-0.04782611131668091,-0.14513109624385834
1761299126868362200,2.5343623046875,0.06622935086488724,-0.04321671277284622,-0.19990938901901245
1761299126888485000,2.554485107421875,0.10177110135555267,-0.013909157365560532,-0.1929156631231308
1761299126908608300,2.574608154296875,0.1323535144329071,-0.009381251409649849,-0.11487092822790146
1761299126928732200,2.594732177734375,0.1267334371805191,-0.031252194195985794,-0.05536631867289543
1761299126948855000,2.61485498046875,0.12984827160835266,-0.047142479568719864,-0.018641062080860138
1761299126968978200,2.634978271484375,0.11347862333059311,-0.01853480190038681,0.00042024682625196874
1761299126989101000,2.65510107421875,0.07995475083589554,0.06302743405103683,-0.023274429142475128
1761299127009224200,2.67522412109375,0.09693560004234314,0.17246951162815094,-0.028594892472028732
1761299127029348000,2.69534814453125,0.15627536177635193,0.1634989082813263,0.04657282680273056
1761299127049471200,2.71547119140625,0.21640314161777496,0.028015920892357826,0.1363876760005951
1761299127069594000,2.735593994140625,0.2106477916240692,-0.05516205355525017,0.14371562004089355
1761299127089717200,2.75571728515625,0.1741236001253128,-0.055399343371391296,0.09345218539237976
1761299127109841200,2.775841064453125,0.14621978998184204,-0.030581345781683922,0.06744135916233063
1761299127129964000,2.795964111328125,0.13540150225162506,0.004063983913511038,0.1013103723526001
1761299127150087200,2.816087158203125,0.12960833311080933,0.0204544086009264,0.11491966247558594
1761299127170210000,2.8362099609375,0.08040456473827362,-0.001796834752894938,0.073961041867733
1761299127190333200,2.856333251953125,0.0010892328573390841,-0.09971541166305542,0.009283512830734253
1761299127210457000,2.87645703125,-0.09620802849531174,-0.21663030982017517,-0.049081526696681976
1761299127230580000,2.896580078125,-0.175399512052536,-0.2715074121952057,-0.07274770736694336
1761299127250703000,2.916703125,-0.18444813787937164,-0.20740485191345215,-0.036010198295116425
1761299127270826000,2.936825927734375,-0.17931516468524933,-0.13599751889705658,0.013391705229878426
1761299127290949000,2.95694921875,-0.15115755796432495,0.004777710884809494,0.07365477830171585
1761299127311073000,2.977072998046875,-0.11583659052848816,0.059838566929101944,0.14234089851379395
1761299127331196200,2.997196044921875,-0.11657987534999847,0.06460589170455933,0.17388364672660828
1761299127351319000,3.017319091796875,-0.10475677251815796,0.1329926699399948,0.17009076476097107
1761299127371442200,3.037442138671875,-0.08815649151802063,0.16512957215309143,0.14775563776493073
1761299127391565000,3.05756494140625,-0.08823212236166,0.13611896336078644,0.11800093948841095
1761299127411689000,3.07768896484375,-0.08176490664482117,0.0877130776643753,0.08307012170553207
1761299127431812000,3.09781201171875,-0.04517040774226189,0.015249792486429214,0.0569775328040123
1761299127451935000,3.11793505859375,-0.0010937602492049336,-0.027298199012875557,0.05535060539841652
1761299127472058000,3.13805810546875,-0.010627077892422676,-0.02183392643928528,0.02455061674118042
1761299127492181000,3.158180908203125,-0.07394825667142868,0.018940668553113937,-0.059117913246154785
1761299127512305000,3.178304931640625,-0.11552286893129349,-0.008567921817302704,-0.08533673733472824
1761299127532428000,3.198427978515625,-0.0926620289683342,-0.07681142538785934,-0.027124028652906418
1761299127552551000,3.218551025390625,-0.03891943767666817,-0.14758306741714478,0.009532518684864044
1761299127572674000,3.238674072265625,-0.01600266806781292,-0.11013316363096237,0.021914353594183922
1761299127592798200,3.258798095703125,-0.037025660276412964,0.00675244489684701,0.009283779188990593
1761299127612921300,3.27892138671875,-0.07159002870321274,0.05721002444624901,-0.052802227437496185
1761299127633044000,3.2990439453125,-0.07590168714523315,-0.01714329980313778,-0.08526909351348877
1761299127653167000,3.3191669921875,-0.05341368913650513,-0.10104672610759735,-0.03196192905306816
1761299127673290000,3.3392900390625,-0.04874463751912117,-0.0775270164012909,-0.0009480853332206607
1761299127693414000,3.359413818359375,-0.03737746551632881,0.052436843514442444,-0.04573739320039749
1761299127713537000,3.379537109375,0.001329982653260231,0.14530819654464722,-0.05582278594374657
1761299127733660000,3.399659912109375,0.044198352843523026,0.14934980869293213,-0.055275771766901016
1761299127753783000,3.419782958984375,0.0949491485953331,0.07219323515892029,-0.05518442392349243
1761299127773906000,3.439906005859375,0.12547136843204498,-0.021411016583442688,-0.03864806145429611
1761299127794029800,3.46002978515625,0.14807654917240143,-0.02033749595284462,-0.009240902960300446
1761299127814153000,3.480153076171875,0.17296192049980164,0.04351285472512245,0.01203748770058155
1761299127834275800,3.50027587890625,0.1819455623626709,0.057856906205415726,0.019641345366835594
1761299127854399000,3.52039892578125,0.1630120873451233,0.030661240220069885,0.025978337973356247
1761299127874521900,3.54052197265625,0.15386919677257538,-0.023381222039461136,0.05261554196476936
1761299127894646000,3.56064599609375,0.15450328588485718,-0.03304929658770561,0.07968630641698837
1761299127914769000,3.580768798828125,0.13965243101119995,0.010024936869740486,0.07756722718477249
1761299127934892000,3.60089208984375,0.11484535783529282,0.08527202159166336,0.05609948933124542
1761299127955015000,3.621014892578125,0.11600516736507416,0.16435298323631287,0.05272712558507919
1761299127975138000,3.641137939453125,0.13673335313796997,0.18225395679473877,0.05914454534649849
1761299127995262000,3.661261962890625,0.15946875512599945,0.12264043092727661,0.02708248421549797
1761299128015384800,3.681384765625,0.16623131930828094,0.05492210388183594,0.03350496292114258
1761299128035508000,3.701508056640625,0.15314561128616333,0.012193815782666206,0.05463634803891182
1761299128055630800,3.721630859375,0.13739433884620667,-0.006225937977433205,-0.017168600112199783
1761299128075754000,3.74175390625,0.11321230977773666,0.013846839778125286,-0.12609854340553284
1761299128095878100,3.761878173828125,0.08071321994066238,0.01828952506184578,-0.10591951012611389
1761299128116001000,3.7820009765625,0.0958210676908493,-0.0035483958199620247,0.03345729410648346
1761299128136124000,3.8021240234375,0.12488254904747009,0.07418341934680939,0.07803035527467728
1761299128156246800,3.822246826171875,0.08671651780605316,0.2427458018064499,-0.012720055878162384
1761299128176371200,3.84237109375,0.01378132589161396,0.32420310378074646,-0.07282067835330963
1761299128196494000,3.862494140625,-0.046312637627124786,0.19153746962547302,-0.05020378157496452
1761299128216617200,3.8826171875,-0.08168447762727737,-0.055987101048231125,0.003748132847249508
1761299128236740000,3.902739990234375,-0.06974899023771286,-0.20968052744865417,0.07581540197134018
1761299128256863200,3.92286328125,0.0033891387283802032,-0.15361300110816956,0.11661529541015625
1761299128276987100,3.942987060546875,0.020230703055858612,0.008728510700166225,0.08839164674282074
1761299128297110000,3.963110107421875,-0.011320032179355621,0.12759923934936523,0.026280872523784637
1761299128317233200,3.983233154296875,-0.027713119983673096,0.14933542907238007,0.009542372077703476
1761299128337354000,4.00335400390625,-0.012134959921240807,0.059247877448797226,0.025848908349871635
1761299128357476900,4.023476806640625,-0.0009978864109143615,-0.05770004913210869,0.03187217935919762
1761299128377601000,4.04360107421875,-0.009844108484685421,-0.09650257229804993,0.014474280178546906
1761299128397724000,4.063723876953125,-0.03657452389597893,-0.04141987860202789,-0.02701856754720211
1761299128417847000,4.083846923828125,-0.06561336666345596,0.017609620466828346,-0.06482373923063278
1761299128437970000,4.103969970703125,-0.06040715053677559,-0.031976308673620224,-0.0688517689704895
1761299128458092800,4.1240927734375,-0.0494258739054203,-0.09205935150384903,-0.033965155482292175
1761299128478217200,4.14421728515625,-0.08950484544038773,-0.10818186402320862,-0.029994916170835495
1761299128498340000,4.164340087890625,-0.08361607044935226,-0.004936435259878635,-0.021622205153107643
1761299128518463000,4.184462890625,-0.04057325795292854,0.07658079266548157,0.004335626028478146
1761299128538585900,4.2045859375,0.022232068702578545,0.09233765304088593,0.003478354774415493
1761299128558709000,4.224708984375,0.048763010650873184,0.04942161217331886,-0.025860359892249107
1761299128578833200,4.244833251953125,0.015956595540046692,-0.012085957452654839,-0.054371628910303116
1761299128598956000,4.2649560546875,-0.010095510631799698,-0.056585781276226044,-0.043714456260204315
1761299128619079200,4.2850791015625,0.008411594666540623,0.018393388018012047,-0.033798445016145706
1761299128639202600,4.30520263671875,0.041316013783216476,0.12653744220733643,-0.06895829737186432
1761299128659325700,4.32532568359375,0.07002196460962296,0.162230983376503,-0.09378508478403091
1761299128679449600,4.34544970703125,0.08575671911239624,0.11389540880918503,-0.010543188080191612
1761299128699572500,4.365572509765625,0.09334619343280792,0.016285495832562447,0.05759405344724655
1761299128719695600,4.385695556640625,0.0895751565694809,0.024449948221445084,0.043839890509843826
1761299128739818500,4.405818603515625,0.09262953698635101,0.08488772809505463,0.014287326484918594
1761299128759941600,4.425941650390625,0.10090051591396332,0.1379602700471878,0.04015008360147476
1761299128780065500,4.4460654296875,0.08369649201631546,0.07224810123443604,0.06541522592306137
1761299128800188400,4.4661884765625,0.027517644688487053,-0.09368041902780533,0.03406582400202751
1761299128820311600,4.4863115234375,-0.013993047177791595,-0.12374430894851685,0.024029968306422234
1761299128840434400,4.506434326171875,-0.03157656639814377,0.001945439144037664,0.028259335085749626
1761299128860557600,4.5265576171875,-0.011597533710300922,0.15585537254810333,0.031068969517946243
1761299128880681700,4.546681640625,0.03171158954501152,0.21941331028938293,0.044377319514751434
1761299128900804600,4.5668046875,0.049607232213020325,0.1592666208744049,0.04390726983547211
1761299128920927500,4.586927490234375,0.036866672337055206,0.035477299243211746,0.03255900740623474
1761299128941050600,4.607050537109375,0.010338391177356243,-0.0172016229480505,0.06504744291305542
1761299128961174800,4.6271748046875,0.012858540751039982,0.03500112518668175,0.07198524475097656
1761299128981297700,4.647297607421875,0.04180150851607323,0.1354161500930786,0.005286640953272581
1761299129001420800,4.6674208984375,0.054309312254190445,0.12706661224365234,-0.02412930503487587
1761299129021543700,4.687543701171875,0.05204136297106743,-0.002843989757820964,0.03281493857502937
1761299129041666800,4.707666748046875,0.0570310615003109,-0.08063172549009323,0.03705175966024399
1761299129061790700,4.727790771484375,0.05636899918317795,-0.05134361609816551,-0.060675330460071564
1761299129081913600,4.74791357421875,0.0271312203258276,0.0010759170399978757,-0.11485175043344498
1761299129102036700,4.76803662109375,0.01583142764866352,0.07370910793542862,-0.05816636607050896
1761299129122159600,4.78815966796875,0.06064017862081528,0.08826674520969391,-0.005755091086030006
1761299129142282800,4.80828271484375,0.0933600440621376,0.015517706982791424,-0.018219484016299248
1761299129162406700,4.82840673828125,0.0848642885684967,-0.05669310688972473,-0.026432406157255173
1761299129182529800,4.84852978515625,0.04857286065816879,-0.0654250755906105,-0.000966727442573756
1761299129202652700,4.868652587890625,0.01630200818181038,-0.02719300426542759,-0.004619252867996693
1761299129222775800,4.88877587890625,-0.017226656898856163,0.06027985364198685,-0.030313430353999138
1761299129242898700,4.908898681640625,-0.04614592343568802,0.06592415273189545,-0.04405001550912857
1761299129263022600,4.929022705078125,-0.04832731932401657,0.01696034148335457,-0.02365552820265293
1761299129283145700,4.949145751953125,-0.053766559809446335,-0.04706684499979019,-0.03735935688018799
1761299129303268600,4.9692685546875,-0.06929118931293488,-0.08863905817270279,-0.07622712850570679
1761299129323391700,4.989391845703125,-0.049856770783662796,-0.11075394600629807,-0.029161613434553146
1761299129343514600,5.0095146484375,0.013407418504357338,-0.07929029315710068,0.07639756798744202
1761299129363638500,5.029638427734375,0.05252206325531006,-0.03473987057805061,0.12076343595981598
1761299129383761700,5.04976171875,0.010806840844452381,0.04508758336305618,0.050942011177539825
1761299129403884500,5.069884521484375,-0.05643637850880623,0.12063959985971451,-0.03813433647155762
1761299129424007700,5.090007568359375,-0.07844100892543793,0.10046615451574326,-0.03356754779815674
1761299129444131600,5.110131591796875,-0.06275339424610138,-0.011889150366187096,0.0396595299243927
1761299129464254700,5.130254638671875,-0.06111794710159302,-0.08012599498033524,0.08937808126211166
1761299129484377600,5.150377685546875,-0.11730079352855682,-0.04752570763230324,0.03313931077718735
1761299129504500700,5.170500732421875,-0.1544702649116516,-0.02329227328300476,-0.0537274107336998
1761299129524623600,5.19062353515625,-0.1310240626335144,-0.04598506912589073,-0.052014999091625214
1761299129544747500,5.21074755859375,-0.07684285193681717,-0.03562004491686821,-0.003931891173124313
1761299129564870700,5.23087060546875,-0.061890266835689545,-0.028392493724822998,0.01877768151462078
1761299129584993500,5.25099365234375,-0.07033594697713852,-0.054183878004550934,-0.005103948060423136
1761299129605116700,5.27111669921875,-0.050095923244953156,0.0011086739832535386,-0.0378698855638504
1761299129625239600,5.291239501953125,0.0003222425002604723,0.05159368738532066,-0.03727040812373161
1761299129645363500,5.311363525390625,0.03740862384438515,0.0178128182888031,-0.0237031988799572
1761299129665486600,5.331486572265625,0.058336276561021805,-0.01335601881146431,0.0020580908749252558
1761299129685609500,5.351609375,0.06808824092149734,0.008624114096164703,0.016647685319185257
1761299129705732600,5.371732666015625,0.06668688356876373,0.07296129316091537,-0.019269036129117012
1761299129725855500,5.39185546875,0.060627661645412445,0.11682035773992538,-0.056774064898490906
1761299129745979600,5.411979736328125,0.07416024804115295,0.08214546740055084,-0.013677462935447693
1761299129766102500,5.4321025390625,0.08983960747718811,0.006697850301861763,0.013348829001188278
1761299129786225700,5.4522255859375,0.08594740182161331,0.00484295841306448,-0.0244856346398592
1761299129806348500,5.4723486328125,0.06533186882734299,0.05801163613796234,-0.05675861984491348
1761299129826471700,5.4924716796875,0.09663732349872589,0.10906736552715302,-0.018124409019947052
1761299129846595600,5.512595703125,0.1418391615152359,0.11721637099981308,0.06120903044939041
1761299129866718500,5.532718505859375,0.14787735044956207,0.10303317755460739,0.08923374116420746
1761299129886841600,5.552841552734375,0.11561394482851028,0.1078934445977211,0.03146045282483101
1761299129906964500,5.572964599609375,0.10718850791454315,0.10500657558441162,-0.02064615674316883
1761299129927088400,5.59308837890625,0.12770336866378784,0.044624991714954376,0.011659585870802402
1761299129947211500,5.61321142578125,0.09822430461645126,-0.0065045044757425785,0.04902346804738045
1761299129967334400,5.63333447265625,0.030491329729557037,0.017012272030115128,-0.005935919936746359
1761299129987457500,5.65345751953125,-0.000060453756304923445,0.058281946927309036,-0.07214822620153427
1761299130007580400,5.673580322265625,0.016390157863497734,0.0666581243276596,-0.03485199064016342
1761299130027704600,5.69370458984375,0.04145529866218567,0.020481839776039124,0.054125022143125534
1761299130047827500,5.713827392578125,0.04049868881702423,-0.009891246445477009,0.05350397154688835
1761299130067950600,5.73395068359375,0.018381403759121895,0.02041046693921089,0.002547047333791852
1761299130088073500,5.754073486328125,-0.06257922202348709,0.14434918761253357,-0.02148718200623989
1761299130108196600,5.774196533203125,-0.0980519950389862,0.2607029676437378,-0.003920173272490501
1761299130128320500,5.794320556640625,-0.054545268416404724,0.24844549596309662,-0.002493251347914338
1761299130148443400,5.814443359375,-0.06648635119199753,0.13238707184791565,-0.01818033494055271
1761299130168566500,5.83456640625,-0.09601254761219025,0.001160339335910976,-0.0267780851572752
1761299130188689400,5.854689453125,-0.0882696732878685,-0.07347474992275238,-0.006244846619665623
1761299130208812500,5.8748125,-0.056420665234327316,-0.05481690913438797,0.011833756230771542
1761299130228936400,5.8949365234375,-0.01666792668402195,-0.04764421656727791,0.01426389068365097
1761299130249059300,5.915059326171875,-0.00697961263358593,-0.05710642784833908,0.01338531356304884
1761299130269182500,5.935182373046875,-0.035537488758563995,-0.08221471309661865,-0.007496532052755356
1761299130289305300,5.955305419921875,-0.05120592936873436,-0.14547224342823029,-0.015507587231695652
1761299130309428500,5.975428466796875,-0.013562946580350399,-0.19718123972415924,0.05140087381005287
1761299130329552400,5.995552490234375,0.017246099188923836,-0.1743403822183609,0.10274235904216766
1761299130349675500,6.015675537109375,-0.0026964505668729544,-0.13606809079647064,0.04759681224822998
1761299130369798400,6.03579833984375,-0.04285585507750511,-0.09298666566610336,-0.03134620562195778
1761299130389921500,6.055921630859375,-0.07039773464202881,-0.04283721372485161,-0.056588977575302124
1761299130410045700,6.076045654296875,-0.06827253103256226,0.03430524468421936,-0.05107143893837929
1761299130430168600,6.09616845703125,-0.06568553298711777,0.07051544636487961,-0.0689348578453064
1761299130450291500,6.11629150390625,-0.039680033922195435,0.0279791709035635,-0.06847812980413437
1761299130470414300,6.136414306640625,-0.02748914808034897,-0.0169166661798954,-0.037579067051410675
1761299130490537500,6.156537353515625,-0.038597993552684784,-0.02617061696946621,-0.0441589392721653
1761299130510661600,6.17666162109375,-0.028663868084549904,-0.04536934569478035,-0.07039240747690201
1761299130530784500,6.196784423828125,-0.0012945625931024551,-0.04716085270047188,-0.05311621353030205
1761299130550907600,6.21690771484375,0.0015355786308646202,0.02269466035068035,-0.029338181018829346
1761299130571030500,6.237030517578125,-0.0006372944335453212,0.08040536195039749,-0.047560062259435654
1761299130591153700,6.257153564453125,0.03262611851096153,0.07547292113304138,-0.03718198835849762
1761299130611277600,6.277277587890625,0.056664079427719116,0.03021089918911457,0.012442022562026978
1761299130631400700,6.297400634765625,0.05498522147536278,-0.007437409833073616,0.04422285407781601
1761299130651523600,6.317523681640625,0.06525223702192307,0.0027196200098842382,0.03497396409511566
1761299130671646700,6.337646728515625,0.0829116627573967,0.06733456254005432,0.004388090688735247
1761299130691769600,6.35776953125,0.08123866468667984,0.1019735038280487,-0.03543868288397789
1761299130711893500,6.3778935546875,0.08518893271684647,0.11012650281190872,-0.02996349148452282
1761299130732016600,6.3980166015625,0.09538910537958145,0.06487806886434555,-0.005825931206345558
1761299130752139500,6.418139404296875,0.10442600399255753,0.09168677777051926,-0.006794789340347052
1761299130772262700,6.4382626953125,0.09985815733671188,0.11974291503429413,-0.047580037266016006
1761299130792386600,6.458386474609375,0.11757802963256836,0.08961164206266403,-0.037880003452301025
1761299130812509400,6.478509521484375,0.14944781363010406,0.08389649540185928,0.019584354013204575
1761299130832632600,6.498632568359375,0.17940518260002136,0.04218686744570732,-0.004691424313932657
1761299130852755500,6.51875537109375,0.1646246314048767,0.009808155708014965,-0.0905192494392395
1761299130872878600,6.538878662109375,0.1377333700656891,-0.062369368970394135,-0.08678842335939407
1761299130893002500,6.55900244140625,0.13996456563472748,-0.09141779690980911,0.0037771612405776978
1761299130913125600,6.579125732421875,0.18040546774864197,-0.020617127418518066,0.04899124428629875
1761299130933248500,6.59924853515625,0.19631758332252502,0.054186273366212845,0.030068952590227127
1761299130953371600,6.61937158203125,0.14571699500083923,0.09515208005905151,0.014022075571119785
1761299130973494500,6.63949462890625,0.08737511932849884,0.1014224961400032,0.03026922233402729
1761299130993618400,6.659618408203125,0.07313252985477448,0.07874780893325806,0.0640048161149025
1761299131013741600,6.679741455078125,0.09338587522506714,0.05824572965502739,0.07851771265268326
1761299131033864400,6.699864501953125,0.10960692167282104,0.07566919177770615,0.08189912885427475
1761299131053987600,6.719987548828125,0.08596604317426682,0.11961933970451355,0.0575980469584465
1761299131074110500,6.7401103515625,0.06245671957731247,0.14369165897369385,0.006973220966756344
1761299131094234400,6.760234375,0.0894012525677681,0.09714492410421371,-0.0269506573677063
1761299131114357500,6.780357421875,0.1509559601545334,0.011108843609690666,-0.011979963630437851
1761299131134480400,6.80048046875,0.1747816652059555,-0.12338558584451675,-0.024886706843972206
1761299131154603500,6.820603515625,0.165927454829216,-0.14091424643993378,-0.07258152216672897
1761299131174726400,6.840726318359375,0.1264394372701645,-0.09695584326982498,-0.11135901510715485
1761299131194850600,6.8608505859375,0.08963747322559357,-0.05962977558374405,-0.0943283662199974
1761299131214973400,6.880973388671875,0.09126520156860352,-0.055696018040180206,-0.028144020587205887
1761299131235096600,6.9010966796875,0.059424709528684616,-0.055515989661216736,0.02569391205906868
1761299131255219500,6.921219482421875,-0.014882543124258518,0.008251005783677101,0.05981726199388504
1761299131275343400,6.94134326171875,-0.09858676046133041,0.11987314373254776,0.04039030149579048
1761299131295466500,6.961466552734375,-0.1261584609746933,0.17783844470977783,-0.0062067629769444466
1761299131315589400,6.98158935546875,-0.10691952705383301,0.08592529594898224,0.005234176758676767
1761299131335712500,7.00171240234375,-0.07165820896625519,-0.0530560277402401,0.049498312175273895
1761299131355835400,7.02183544921875,-0.07821916788816452,-0.11825287342071533,0.07668652385473251
1761299131375959300,7.041959228515625,-0.14170867204666138,-0.07396077364683151,0.03459392860531807
1761299131396082400,7.06208251953125,-0.16481319069862366,0.03195313736796379,-0.026747457683086395
1761299131416205300,7.082205322265625,-0.11650637537240982,0.05794372782111168,-0.039797745645046234
1761299131436328400,7.102328369140625,-0.09465007483959198,-0.05964921414852142,-0.006627808790653944
1761299131456451300,7.122451416015625,-0.08793385326862335,-0.18780265748500824,0.0483960285782814
1761299131476575500,7.142575439453125,-0.10408832132816315,-0.18575042486190796,0.07350164651870728
1761299131496698600,7.16269873046875,-0.12750256061553955,-0.08045835793018341,0.004677842371165752
1761299131516821500,7.182821533203125,-0.13460388779640198,-0.011990083381533623,-0.07790838181972504
1761299131536944600,7.202944580078125,-0.10231092572212219,-0.040997233241796494,-0.0636839047074318
1761299131557067500,7.223067626953125,-0.06878652423620224,-0.10375355929136276,0.031565915793180466
1761299131577191700,7.243191650390625,-0.07227978855371475,-0.07290616631507874,0.06354808062314987
1761299131597314600,7.263314453125,-0.0811379924416542,-0.0033566481433808804,-0.0026671558152884245
1761299131617437700,7.283437744140625,-0.08267490565776825,0.04575710371136665,-0.06743017584085464
1761299131637560300,7.303560302734375,-0.06173739954829216,0.040708813816308975,-0.04475602135062218
1761299131657683500,7.323683349609375,-0.03175872936844826,0.001662877737544477,-0.005253617651760578
1761299131677807400,7.343807373046875,-0.015247928909957409,0.005258677992969751,-0.02377430535852909
1761299131697930200,7.36393017578125,-0.023792680352926254,0.06641577184200287,-0.08001307398080826
1761299131718053400,7.384053466796875,-0.016447415575385094,0.10325101763010025,-0.09212513267993927
1761299131738176300,7.40417626953125,0.04399488866329193,0.026018550619482994,-0.028689168393611908
1761299131758299400,7.42429931640625,0.10993262380361557,-0.030897729098796844,0.03214222192764282
1761299131778423600,7.444423583984375,0.10825829952955246,0.014612498693168163,0.017287643626332283
1761299131798546400,7.46454638671875,0.06317257881164551,0.10387899726629257,-0.030903587117791176
1761299131818669300,7.48466943359375,0.05951632186770439,0.1582479625940323,-0.02002563886344433
1761299131838792400,7.50479248046875,0.103174589574337,0.13499563932418823,0.052629921585321426
1761299131858916600,7.52491650390625,0.1529293656349182,0.08063439279794693,0.09827063977718353
1761299131879039500,7.54503955078125,0.15667375922203064,0.05439000576734543,0.0581064447760582
1761299131899162600,7.56516259765625,0.11938738077878952,0.08316652476787567,0.011606855317950249
1761299131919285500,7.585285400390625,0.08764489740133286,0.08889897912740707,0.01312112808227539
1761299131939408600,7.60540869140625,0.09386710822582245,0.0672602653503418,0.029259618371725082
1761299131959532500,7.625532470703125,0.13267815113067627,0.0764540284872055,0.023327426984906197
1761299131979655400,7.645655517578125,0.14418087899684906,0.047152064740657806,0.03642325475811958
1761299131999778600,7.665778564453125,0.12985759973526,0.006244846619665623,0.07746576517820358
1761299132019901400,7.6859013671875,0.0919424369931221,0.05271860584616661,0.11221149563789368
1761299132040024600,7.706024658203125,0.08321046829223633,0.22651755809783936,0.05191885679960251
1761299132060148500,7.7261484375,0.07859494537115097,0.36648160219192505,-0.041251566261053085
1761299132080271400,7.746271240234375,0.06326872110366821,0.2965991795063019,-0.09754546731710434
1761299132100394500,7.76639453125,0.09685304015874863,-0.02678420953452587,-0.0073535204865038395
1761299132120517400,7.786517333984375,0.08041068911552429,-0.24927747249603271,0.13120196759700775
1761299132140640500,7.806640625,0.05218357592821121,-0.24556955695152283,0.16230449080467224
1761299132160764400,7.826764404296875,-0.004052532371133566,-0.08330154418945312,0.0483318455517292
1761299132180887600,7.846887451171875,-0.034820299595594406,0.12711986899375916,-0.09870580583810806
1761299132201010400,7.867010498046875,-0.022414227947592735,0.13226616382598877,-0.09748341143131256
1761299132221133600,7.887133544921875,-0.03248470649123192,0.014387461356818676,-0.0200477447360754
1761299132241256400,7.90725634765625,-0.010323744267225266,-0.05017688497900963,-0.003352653468027711
1761299132261380400,7.92738037109375,-0.008333830162882805,-0.07618611305952072,-0.005340703297406435
1761299132281503500,7.94750341796875,-0.04030374810099602,-0.06893938779830933,0.012211658991873264
1761299132301626400,7.96762646484375,-0.04982215166091919,0.03460538014769554,-0.058222558349370956
1761299132321749500,7.98774951171875,-0.04673741012811661,0.0414116233587265,-0.1290930062532425
1761299132341872400,8.007872314453126,-0.054246727377176285,0.0021813951898366213,-0.059357598423957825
1761299132361996300,8.027996337890626,-0.061650048941373825,-0.036670662462711334,0.03900092840194702
1761299132382119400,8.048119384765625,-0.06898519396781921,-0.046433012932538986,0.014030065387487411
1761299132402242300,8.0682421875,-0.08527228981256485,0.0065527078695595264,-0.08957649022340775
1761299132422365400,8.088365478515625,-0.09824854135513306,0.08634208142757416,-0.10648942738771439
1761299132442488300,8.10848828125,-0.09230303019285202,0.10307817906141281,-0.008212123066186905
1761299132462612500,8.128612548828125,-0.08022905886173248,0.08133906126022339,0.09036131948232651
1761299132482735400,8.1487353515625,-0.08540064841508865,0.04319008067250252,0.06315766274929047
1761299132502858500,8.1688583984375,-0.09834281355142593,-0.018562765792012215,-0.01666792668402195
1761299132522981400,8.1889814453125,-0.08772478997707367,-0.01215573213994503,-0.03714071214199066
1761299132543104500,8.2091044921875,-0.053648579865694046,0.023211313411593437,-0.022052304819226265
1761299132563228400,8.229228515625,-0.010289122350513935,0.055760469287633896,0.03170067071914673
1761299132583351300,8.249351318359375,-0.005146026145666838,0.05149328336119652,0.099122054874897
1761299132603474400,8.269474365234375,-0.014141385443508625,0.0953504890203476,0.08502061665058136
1761299132623597300,8.289597412109375,0.009221994318068027,0.13395646214485168,-0.023266706615686417
1761299132643720700,8.309720703125,0.022219818085432053,0.10122621804475784,-0.05699191242456436
1761299132663844600,8.3298447265625,0.03689702972769737,0.016057796776294708,0.02226349338889122
1761299132683967500,8.349967529296874,0.05031004175543785,-0.018792595714330673,0.07677946984767914
1761299132704092400,8.370092529296874,0.048654355108737946,0.017608022317290306,0.02732536382973194
1761299132724215600,8.390215576171874,0.02972274087369442,0.026564765721559525,-0.05450212210416794
1761299132744338400,8.41033837890625,0.02901620604097843,0.071419857442379,-0.04487293213605881
1761299132764461600,8.430461669921876,0.0455901212990284,0.07449261099100113,0.01065264455974102
1761299132784584400,8.45058447265625,0.07801038026809692,0.04500608891248703,0.03544906899333
1761299132804708600,8.47070849609375,0.08342938125133514,0.0297927837818861,0.04953612759709358
1761299132824831500,8.49083154296875,0.06368310749530792,0.06967734545469284,0.04180097579956055
1761299132844954400,8.510954345703125,0.026197249069809914,0.10957469791173935,-0.0023007048293948174
1761299132865077500,8.531077392578124,0.0004293015517760068,0.10735894739627838,-0.04518318921327591
1761299132885200400,8.551200439453124,0.007640875410288572,0.053519949316978455,-0.03603177145123482
1761299132905324500,8.571324462890624,0.04811612889170647,0.05035025626420975,0.022104769945144653
1761299132925447400,8.591447509765626,0.07757548242807388,0.06346552819013596,0.059656936675310135
1761299132945570600,8.611570556640626,0.041010551154613495,0.040407344698905945,0.024456607177853584
1761299132965693400,8.631693359375,-0.02924257330596447,0.04635391756892204,-0.049489255994558334
1761299132985816600,8.651816650390625,-0.062001053243875504,0.07120253890752792,-0.06179918348789215
1761299133005940500,8.6719404296875,-0.0641760528087616,0.056656353175640106,-0.0542168989777565
1761299133026063400,8.6920634765625,-0.05550161004066467,-0.021886389702558517,-0.08285307139158249
1761299133046186500,8.7121865234375,-0.012426042929291725,-0.05218783766031265,-0.014859373681247234
1761299133066309400,8.732309326171874,0.008023305796086788,-0.0801350474357605,0.06842832267284393
1761299133086432500,8.7524326171875,0.020131099969148636,-0.009486446157097816,0.0021491709630936384
1761299133106556400,8.772556396484376,0.026215624064207077,0.020502878352999687,-0.09147559106349945
1761299133126679300,8.79267919921875,0.017471667379140854,0.02297961711883545,-0.06919638067483902
1761299133146802400,8.812802490234375,0.027653997763991356,0.04839496314525604,0.00629038643091917
1761299133166925300,8.83292529296875,0.034569427371025085,0.03792740777134895,0.035952407866716385
1761299133187048400,8.85304833984375,0.03051929362118244,-0.018198711797595024,0.013421532697975636
1761299133207172600,8.873172607421875,-0.001823732745833695,-0.027723772451281548,-0.031731829047203064
1761299133227295500,8.89329541015625,-0.05327121168375015,0.009367935359477997,-0.045999448746442795
1761299133247418400,8.91341845703125,-0.0706038624048233,0.02322569489479065,-0.03502429649233818
1761299133267541500,8.93354150390625,-0.03898042067885399,0.011297928169369698,-0.013794908300042152
1761299133287664400,8.953664306640626,-0.026619626209139824,-0.032047148793935776,-0.028436435386538506
1761299133307788500,8.97378857421875,-0.03460511565208435,-0.05694104731082916,-0.06636970490217209
1761299133327911700,8.99391162109375,-0.0843052938580513,-0.011323494836688042,-0.0728430449962616
1761299133348034600,9.01403466796875,-0.11027910560369492,-0.009660882875323296,-0.028497155755758286
1761299133368157700,9.03415771484375,-0.0478878952562809,0.015126221813261509,-0.0026993800420314074
1761299133388280600,9.054280517578125,0.0070078419521451,-0.012954148463904858,0.010989800095558167
1761299133408404500,9.074404541015625,-0.010353571735322475,-0.03712419793009758,-0.01019671093672514
1761299133428527600,9.094527587890624,-0.04755660146474838,0.03656839579343796,-0.05632958561182022
1761299133448650500,9.114650390625,-0.09458855539560318,0.08577269315719604,-0.05144454911351204
1761299133468773600,9.134773681640626,-0.09554516524076462,0.11677348613739014,-0.04255305230617523
1761299133488896500,9.154896484375,-0.07716056704521179,0.058339737355709076,0.10639248788356781
1761299133509020700,9.175020751953125,0.06011313945055008,-0.16367681324481964,0.09411425143480301
1761299133529143600,9.1951435546875,0.06803417950868607,-0.15923891961574554,0.001520665013231337
1761299133549266700,9.2152666015625,-0.01781734637916088,0.003081277245655656,-0.007881625555455685
1761299133569389600,9.2353896484375,-0.014171479269862175,-0.05534661188721657,-0.045576538890600204
