time,seconds_elapsed,z,y,x
1761395866310958300,0.165958251953125,9.768698692321777,0.8566305041313171,0.19322042167186737
1761395866330723800,0.185723876953125,9.835697174072266,0.7914260625839233,0.21176479756832123
1761395866350489300,0.2054892578125,9.772886276245117,0.7962117195129395,0.21954147517681122
1761395866370254600,0.225254638671875,9.720243453979492,0.8045865893363953,0.14117653667926788
1761395866390020000,0.24502001953125,9.846465110778809,0.7621139883995056,0.08793623000383377
1761395866409785300,0.264785400390625,9.866206169128418,0.7334001660346985,0.047258246690034866
1761395866429550800,0.28455078125,9.780662536621094,0.7986045479774475,0.07238288223743439
1761395866449316000,0.304316162109375,9.766305923461914,0.7776673436164856,0.053240302950143814
1761395866469081600,0.32408154296875,9.864411354064941,0.7860422134399414,0.08554340898990631
1761395866488758000,0.343758056640625,9.799206733703613,0.844068169593811,0.08673982322216034
1761395866508136000,0.363135986328125,9.752547264099121,0.8835497498512268,0.052043892443180084
1761395866527513900,0.382513916015625,9.787242889404297,0.8524430394172668,0.018544375896453857
1761395866546891800,0.401891845703125,9.79083251953125,0.8452646136283875,0.06999006122350693
1761395866566269700,0.421269775390625,9.750154495239258,0.8213363885879517,0.06939185410737991
1761395866585647400,0.4406474609375,9.812965393066406,0.786640465259552,0.10468599200248718
1761395866605025300,0.460025390625,9.790233612060547,0.7830511927604675,0.12083754688501358
1761395866624403200,0.4794033203125,9.80100154876709,0.7663014531135559,0.137587308883667
1761395866643781000,0.498781005859375,9.78963565826416,0.8069794178009033,0.15314064919948578
1761395866663159000,0.518158935546875,9.776474952697754,0.8225327730178833,0.13040883839130402
1761395866682537000,0.537536865234375,9.802796363830566,0.828514814376831,0.16271193325519562
1761395866701915000,0.556914794921875,9.800403594970703,0.8368897438049316,0.1866401731967926
1761395866721292500,0.57629248046875,9.801599502563477,0.828514814376831,0.18065811693668365
1761395866740670500,0.59567041015625,9.792028427124023,0.8129615187644958,0.1866401731967926
1761395866760048400,0.61504833984375,9.800403594970703,0.8201399445533752,0.18903298676013947
1761395866779426300,0.63442626953125,9.78126049041748,0.8333004713058472,0.15672987699508667
1761395866798804200,0.65380419921875,9.831509590148926,0.8536394834518433,0.17228323221206665
1761395866818182000,0.673181884765625,9.736993789672852,0.849452018737793,0.1698904037475586
1761395866837559800,0.692559814453125,9.772886276245117,0.8554341197013855,0.15194423496723175
1761395866856937700,0.711937744140625,9.80518913269043,0.8129615187644958,0.12741780281066895
1761395866876315600,0.731315673828125,9.843474388122559,0.8201399445533752,0.14057832956314087
1761395866895693600,0.750693603515625,9.746564865112305,0.8201399445533752,0.11126625537872314
1761395866915071500,0.770071533203125,9.758528709411621,0.8189435601234436,0.12681959569454193
1761395866953827000,0.8088271484375,9.79681396484375,0.8404789566993713,0.11186445504426956
1761395866973205000,0.828205078125,9.752547264099121,0.8560323119163513,0.08554340898990631
1761395866992583000,0.8475830078125,9.81117057800293,0.8273184299468994,0.06520441919565201
1761395867011960800,0.8669609375,9.807581901550293,0.8656035661697388,0.09511470049619675
1761395867031338500,0.88633837890625,9.754940032958984,0.8548358678817749,0.0687936544418335
1761395867050716400,0.90571630859375,9.848259925842285,0.8344969153404236,0.1094716340303421
1761395867070094300,0.92509423828125,9.777671813964844,0.8105686902999878,0.1423729509115219
1761395867089472300,0.94447216796875,9.776474952697754,0.8488538265228271,0.13998012244701385
1761395867108850200,0.96385009765625,9.795618057250977,0.8488538265228271,0.09870393574237823
1761395867128228000,0.98322802734375,9.821938514709473,0.8727820515632629,0.07477571070194244
1761395867147605800,1.002605712890625,9.79083251953125,0.8392825126647949,0.09810572862625122
1761395867166983700,1.021983642578125,9.770493507385254,0.8105686902999878,0.13280165195465088
1761395867186361600,1.041361572265625,9.769296646118164,0.828514814376831,0.16510476171970367
1761395867205739500,1.060739501953125,9.763314247131348,0.8476574420928955,0.15912270545959473
1761395867225117400,1.080117431640625,9.781859397888184,0.8865407705307007,0.16510476171970367
1761395867244495400,1.099495361328125,9.78664493560791,0.8805587291717529,0.16749759018421173
1761395867263873000,1.118873046875,9.8207426071167,0.8524430394172668,0.16749759018421173
1761395867283251000,1.1382509765625,9.8207426071167,0.8153542876243591,0.12203395366668701
1761395867302628900,1.15762890625,9.735796928405762,0.8177471160888672,0.11246266216039658
1761395867322008800,1.1770087890625,9.834501266479492,0.8105686902999878,0.12203395366668701
1761395867341384700,1.196384765625,9.81356430053711,0.8201399445533752,0.137587308883667
1761395867360762400,1.215762451171875,9.756135940551758,0.836291491985321,0.1423729509115219
1761395867380140300,1.235140380859375,9.732806205749512,0.8877372145652771,0.12681959569454193
1761395867399518200,1.254518310546875,9.77707290649414,0.8877372145652771,0.13639089465141296
1761395867418896100,1.273896240234375,9.841081619262695,0.8249256014823914,0.1333998590707779
1761395867438274000,1.293274169921875,9.793225288391113,0.8368897438049316,0.11126625537872314
1761395867457652000,1.31265185546875,9.747760772705078,0.8488538265228271,0.14476576447486877
1761395867477029600,1.332029541015625,9.814760208129883,0.8668000102043152,0.10348957777023315
1761395867496407600,1.351407470703125,9.750752449035645,0.8817551732063293,0.11605189740657806
1761395867515785500,1.370785400390625,9.755537986755371,0.8703892230987549,0.11724831163883209
1761395867535163400,1.390163330078125,9.81236743927002,0.8656035661697388,0.09511470049619675
1761395867554541300,1.409541259765625,9.832706451416016,0.8703892230987549,0.10468599200248718
1761395867573919000,1.4289189453125,9.766305923461914,0.8841479420661926,0.07956135272979736
1761395867593297000,1.448296875,9.753145217895508,0.882951557636261,0.06640082597732544
1761395867612674800,1.4676748046875,9.821938514709473,0.8727820515632629,0.09032905846834183
1761395867632052700,1.487052734375,9.760921478271484,0.8632107973098755,0.13040883839130402
1761395867651430700,1.5064306640625,9.79083251953125,0.8297112584114075,0.11964113265275955
1761395867670808600,1.52580859375,9.93679428100586,0.8309076428413391,0.1333998590707779
1761395867690186200,1.545186279296875,9.686744689941406,0.8350951075553894,0.11844471842050552
1761395867709564200,1.564564208984375,9.639486312866211,0.851844847202301,0.12861421704292297
1761395867728942000,1.583942138671875,9.78664493560791,0.8877372145652771,0.13878370821475983
1761395867748320000,1.603320068359375,9.93559741973877,0.8548358678817749,0.12382857501506805
1761395867767697700,1.62269775390625,9.829116821289062,0.8428717851638794,0.12382857501506805
1761395867787171600,1.642171630859375,9.641879081726074,0.849452018737793,0.1333998590707779
1761395867806453500,1.66145361328125,9.674181938171387,0.8745766878128052,0.1495514214038849
1761395867825831400,1.68083154296875,9.961918830871582,0.8656035661697388,0.12323036789894104
1761395867845209300,1.700209228515625,9.90688419342041,0.8739784955978394,0.11186445504426956
1761395867864587300,1.719587158203125,9.640682220458984,0.882951557636261,0.12801600992679596
1761395867883965000,1.73896484375,9.635896682739258,0.8781659007072449,0.13519448041915894
1761395867903342800,1.7583427734375,9.876974105834961,0.8608179688453674,0.129810631275177
1761395867922720800,1.777720703125,9.964311599731445,0.8464609980583191,0.12083754688501358
1761395867942098700,1.7970986328125,9.761520385742188,0.8560323119163513,0.11964113265275955
1761395867961476600,1.8164765625,9.585647583007812,0.867398202419281,0.12622138857841492
1761395867980854300,1.835854248046875,9.759127616882324,0.8739784955978394,0.1339980661869049
1761395868000232200,1.855232177734375,9.997811317443848,0.8578268885612488,0.11844471842050552
1761395868019610000,1.874610107421875,9.89133071899414,0.8524430394172668,0.10468599200248718
1761395868038988000,1.893988037109375,9.627521514892578,0.8410771489143372,0.11665010452270508
1761395868058366000,1.913365966796875,9.616754531860352,0.867398202419281,0.129810631275177
1761395868077743900,1.932743896484375,9.933204650878906,0.8608179688453674,0.12622138857841492
1761395868097121500,1.95212158203125,9.979865074157715,0.8566305041313171,0.09571290761232376
1761395868116499500,1.97149951171875,9.694520950317383,0.8733802437782288,0.0933200865983963
1761395868135877400,1.99087744140625,9.5264253616333,0.8979067206382751,0.11665010452270508
1761395868155255300,2.01025537109375,9.835099220275879,0.8620143532752991,0.11066804826259613
1761395868174633200,2.02963330078125,10.097711563110352,0.8386843204498291,0.1136590763926506
1761395868194011000,2.049010986328125,9.844072341918945,0.900897741317749,0.12263216078281403
1761395868213388800,2.068388916015625,9.42353343963623,0.9158528447151184,0.11844471842050552
1761395868232766700,2.0877666015625,9.64367389678955,0.9158528447151184,0.14297115802764893
1761395868252144600,2.10714453125,10.204790115356445,0.867398202419281,0.11066804826259613
1761395868271604200,2.126604248046875,9.961918830871582,0.8548358678817749,0.12023933976888657
1761395868310264800,2.165264892578125,9.500701904296875,0.8763712644577026,0.15493527054786682
1761395868329656000,2.184656005859375,10.28016471862793,0.8297112584114075,0.11425728350877762
1761395868349034000,2.204033935546875,10.086943626403809,0.836291491985321,0.11605189740657806
1761395868368398300,2.2233984375,9.44327449798584,0.8452646136283875,0.13160525262355804
1761395868387789600,2.24278955078125,9.352945327758789,0.8703892230987549,0.1663011759519577
1761395868407167500,2.26216748046875,10.02173900604248,0.8584251403808594,0.14356936514377594
1761395868426545400,2.28154541015625,10.25204849243164,0.841675341129303,0.08434699475765228
1761395868445923300,2.30092333984375,9.739386558532715,0.8500502705574036,0.09451649338006973
1761395868465301200,2.32030126953125,9.257830619812012,0.8901300430297852,0.1136590763926506
1761395868484665600,2.33966552734375,9.66819953918457,0.9128618240356445,0.10289137065410614
1761395868504056800,2.359056884765625,10.319047927856445,0.8889335989952087,0.05503492057323456
1761395868523434800,2.378434814453125,10.058828353881836,0.8745766878128052,0.07657032459974289
1761395868542799000,2.397799072265625,9.318249702453613,0.8967102766036987,0.12323036789894104
1761395868562190600,2.417190673828125,9.436694145202637,0.8991031050682068,0.11844471842050552
1761395868581568500,2.436568603515625,10.172487258911133,0.8997012972831726,0.08554340898990631
1761395868600946200,2.4559462890625,10.191031455993652,0.865005373954773,0.05563312768936157
1761395868620324000,2.475323974609375,9.572486877441406,0.8626125454902649,0.07058826833963394
1761395868639702000,2.494701904296875,9.373284339904785,0.9050851464271545,0.12681959569454193
1761395868659080000,2.514079833984375,10.000802040100098,0.8482556343078613,0.08135596662759781
1761395868678457900,2.533457763671875,9.810572624206543,0.8757730722427368,0.14117653667926788
1761395868697835500,2.55283544921875,9.762716293334961,0.8865407705307007,0.13519448041915894
1761395868717213400,2.57221337890625,9.811769485473633,0.8727820515632629,0.1543370634317398
1761395868736591400,2.59159130859375,9.77109146118164,0.8715856671333313,0.15553347766399384
1761395868755969300,2.61096923828125,9.773484230041504,0.8715856671333313,0.13280165195465088
1761395868775347200,2.63034716796875,9.80937671661377,0.8787640929222107,0.11605189740657806
1761395868794724900,2.649724853515625,9.783055305480957,0.898504912853241,0.12921242415905
1761395868814102800,2.669102783203125,9.754341125488281,0.8859425783157349,0.12203395366668701
1761395868833480700,2.688480712890625,9.80518913269043,0.8679963946342468,0.12681959569454193
1761395868852858600,2.707858642578125,9.81535816192627,0.8679963946342468,0.137587308883667
1761395868872236500,2.727236572265625,9.748359680175781,0.8997012972831726,0.15314064919948578
1761395868891614200,2.7466142578125,9.768698692321777,0.8871390223503113,0.12442677468061447
1761395868910992100,2.7659921875,9.814760208129883,0.8727820515632629,0.09092725813388824
1761395868930370000,2.7853701171875,9.79083251953125,0.8632107973098755,0.07238288223743439
1761395868949748000,2.804748046875,9.78963565826416,0.8560323119163513,0.09690931439399719
1761395868969126000,2.8241259765625,9.802796363830566,0.857228696346283,0.10049854964017868
1761395868988503600,2.843503662109375,9.760323524475098,0.898504912853241,0.11724831163883209
1761395869007881500,2.862881591796875,9.779465675354004,0.8925228714942932,0.10648060590028763
1761395869027259400,2.88225927734375,9.848259925842285,0.8500502705574036,0.1094716340303421
1761395869046637300,2.90163720703125,9.761520385742188,0.885344386100769,0.12801600992679596
1761395869066015200,2.92101513671875,9.742377281188965,0.882951557636261,0.09930214285850525
1761395869085393000,2.940392822265625,9.807581901550293,0.875174880027771,0.11006984114646912
1761395869104770800,2.959770751953125,9.7669038772583,0.8679963946342468,0.08255238085985184
1761395869124148700,2.979148681640625,9.768698692321777,0.8805587291717529,0.10767702013254166
1761395869143526700,2.998526611328125,9.81535816192627,0.8883354067802429,0.13040883839130402
1761395869162904600,3.017904541015625,9.781859397888184,0.877567708492279,0.12681959569454193
1761395869182282200,3.0372822265625,9.8207426071167,0.8620143532752991,0.12442677468061447
1761395869201660200,3.05666015625,9.787840843200684,0.8781659007072449,0.13878370821475983
1761395869221038000,3.0760380859375,9.719645500183105,0.8865407705307007,0.11964113265275955
1761395869240416000,3.095416015625,9.847063064575195,0.8536394834518433,0.13519448041915894
1761395869259794000,3.1147939453125,9.78843879699707,0.8584251403808594,0.11844471842050552
1761395869279171600,3.134171630859375,9.760323524475098,0.8865407705307007,0.10049854964017868
1761395869298549500,3.153549560546875,9.791430473327637,0.8967102766036987,0.09810572862625122
1761395869317927400,3.172927490234375,9.799206733703613,0.8787640929222107,0.10887342691421509
1761395869337305300,3.192305419921875,9.795618057250977,0.8691928386688232,0.12083754688501358
1761395869376061200,3.231061279296875,9.775876998901367,0.9128618240356445,0.09451649338006973
1761395869395438800,3.25043896484375,9.773484230041504,0.9032905697822571,0.07956135272979736
1761395869414816800,3.269816650390625,9.808777809143066,0.8811569213867188,0.09511470049619675
1761395869434194700,3.289194580078125,9.780662536621094,0.8793623447418213,0.11246266216039658
1761395869453572600,3.308572509765625,9.777671813964844,0.8733802437782288,0.11126625537872314
1761395869472950300,3.3279501953125,9.78126049041748,0.8644071817398071,0.11844471842050552
1761395869492328200,3.347328125,9.769296646118164,0.8560323119163513,0.11006984114646912
1761395869511706000,3.3667060546875,9.79083251953125,0.859621524810791,0.10887342691421509
1761395869531084000,3.386083984375,9.772886276245117,0.8368897438049316,0.11964113265275955
1761395869550462000,3.4054619140625,9.802796363830566,0.8608179688453674,0.16510476171970367
1761395869569839600,3.424839599609375,9.768698692321777,0.8715856671333313,0.137587308883667
1761395869589217500,3.444217529296875,9.77109146118164,0.8679963946342468,0.14356936514377594
1761395869608595500,3.463595458984375,9.808777809143066,0.859621524810791,0.137587308883667
1761395869627973400,3.482973388671875,9.77109146118164,0.8644071817398071,0.14356936514377594
1761395869647351300,3.502351318359375,9.908080101013184,0.8560323119163513,0.1178465187549591
1761395869666729000,3.52172900390625,9.65503978729248,0.8805587291717529,0.10707881301641464
1761395869686107000,3.54110693359375,9.671789169311523,0.9080761671066284,0.09571290761232376
1761395869705484800,3.56048486328125,9.89970588684082,0.893121063709259,0.08793623000383377
1761395869724862700,3.57986279296875,9.951150894165039,0.8787640929222107,0.10767702013254166
1761395869744240600,3.59924072265625,9.670592308044434,0.882951557636261,0.11126625537872314
1761395869763618300,3.618618408203125,9.638289451599121,0.8937192559242249,0.10468599200248718
1761395869782996200,3.637996337890625,9.829116821289062,0.8691928386688232,0.08793623000383377
1761395869802374100,3.6573740234375,9.951150894165039,0.8464609980583191,0.09571290761232376
1761395869821752000,3.676751953125,9.806385040283203,0.8536394834518433,0.10827522724866867
1761395869841130000,3.6961298828125,9.621540069580078,0.8685946464538574,0.12502498924732208
1761395869860508000,3.7155078125,9.704092025756836,0.8793623447418213,0.14117653667926788
1761395869879885600,3.734885498046875,9.947562217712402,0.8739784955978394,0.11186445504426956
1761395869899263500,3.754263427734375,9.868598937988281,0.8644071817398071,0.1010967567563057
1761395869918641400,3.773641357421875,9.689735412597656,0.865005373954773,0.1256231814622879
1761395869938019300,3.793019287109375,9.657432556152344,0.8578268885612488,0.12442677468061447
1761395869957397000,3.81239697265625,9.835099220275879,0.8644071817398071,0.1339980661869049
1761395869976775000,3.83177490234375,9.960722923278809,0.8620143532752991,0.13100704550743103
1761395869996152800,3.85115283203125,9.795019149780273,0.8626125454902649,0.11485548317432404
1761395870015530800,3.87053076171875,9.57607650756836,0.893121063709259,0.11904292553663254
1761395870034908700,3.88990869140625,9.724431037902832,0.8925228714942932,0.13160525262355804
1761395870054286300,3.909286376953125,10.019346237182617,0.8638089895248413,0.12502498924732208
1761395870073664300,3.928664306640625,9.882955551147461,0.8584251403808594,0.1094716340303421
1761395870093042200,3.948042236328125,9.571290969848633,0.8721838593482971,0.12143574655056
1761395870112420000,3.967420166015625,9.631111145019531,0.865005373954773,0.129810631275177
1761395870131798000,3.986798095703125,9.934401512145996,0.8691928386688232,0.12023933976888657
1761395870151175700,4.00617578125,10.01456069946289,0.8578268885612488,0.1052841991186142
1761395870170553600,4.0255537109375,9.67777156829834,0.8554341197013855,0.1256231814622879
1761395870189931500,4.044931640625,9.499505996704102,0.8602197170257568,0.1423729509115219
1761395870209309400,4.064309326171875,9.806983947753906,0.8781659007072449,0.13639089465141296
1761395870228687400,4.083687255859375,10.176674842834473,0.8745766878128052,0.1010967567563057
1761395870248065000,4.10306494140625,9.8267240524292,0.8536394834518433,0.08793623000383377
1761395870267443000,4.12244287109375,9.269196510314941,0.8877372145652771,0.1381855010986328
1761395870286807300,4.141807373046875,9.753145217895508,0.8733802437782288,0.14117653667926788
1761395870306198800,4.16119873046875,10.398609161376953,0.8368897438049316,0.1136590763926506
1761395870325576700,4.18057666015625,9.839884757995605,0.8476574420928955,0.11066804826259613
1761395870344954400,4.199954345703125,9.232108116149902,0.8781659007072449,0.14416755735874176
1761395870364332300,4.219332275390625,9.605986595153809,0.8979067206382751,0.13459627330303192
1761395870383710200,4.238710205078125,10.342975616455078,0.8679963946342468,0.09810572862625122
1761395870403074600,4.258074462890625,10.05823040008545,0.8291130661964417,0.12323036789894104
1761395870422465800,4.2774658203125,9.354740142822266,0.8237292170524597,0.1423729509115219
1761395870441843700,4.29684375,9.400801658630371,0.8703892230987549,0.15672987699508667
1761395870461208000,4.3162080078125,10.120443344116211,0.8781659007072449,0.09990034252405167
1761395870480599600,4.335599609375,10.247262954711914,0.867398202419281,0.07776673883199692
1761395870499977500,4.3549775390625,9.616155624389648,0.8350951075553894,0.12023933976888657
1761395870519355400,4.37435546875,9.294321060180664,0.8662018179893494,0.16809579730033875
1761395870538733000,4.393733154296875,9.814162254333496,0.8805587291717529,0.13280165195465088
1761395870558111000,4.413111083984375,10.342377662658691,0.893121063709259,0.0849452018737793
1761395870577475300,4.432475341796875,9.91286563873291,0.8871390223503113,0.11186445504426956
1761395870596866800,4.45186669921875,9.251849174499512,0.898504912853241,0.15732808411121368
1761395870616244500,4.471244384765625,9.53360366821289,0.8871390223503113,0.16390834748744965
1761395870635609000,4.490609130859375,10.289735794067383,0.8344969153404236,0.08135596662759781
1761395870655000300,4.510000244140625,9.722636222839355,0.8327022790908813,0.08614161610603333
1761395870674378200,4.529378173828125,9.747760772705078,0.8237292170524597,0.1052841991186142
1761395870693756200,4.548756103515625,9.842277526855469,0.8237292170524597,0.15553347766399384
1761395870713133800,4.5681337890625,9.761520385742188,0.8482556343078613,0.1824527233839035
1761395870732511700,4.58751171875,9.751350402832031,0.8590233325958252,0.1704886108636856
1761395870751889700,4.6068896484375,9.79083251953125,0.859621524810791,0.15314064919948578
1761395870771267600,4.626267578125,9.80518913269043,0.8691928386688232,0.11964113265275955
1761395870790645500,4.6456455078125,9.76391315460205,0.8877372145652771,0.10887342691421509
1761395870810023200,4.665023193359375,9.780662536621094,0.9056833982467651,0.11485548317432404
1761395870829401000,4.684401123046875,9.765109062194824,0.8901300430297852,0.11844471842050552
1761395870848779000,4.703779052734375,9.821938514709473,0.844068169593811,0.13519448041915894
1761395870868157000,4.723156982421875,9.81117057800293,0.8464609980583191,0.12801600992679596
1761395870887534600,4.74253466796875,9.756135940551758,0.8608179688453674,0.09810572862625122
1761395870906912500,4.76191259765625,9.769296646118164,0.8632107973098755,0.10169496387243271
1761395870926290400,4.78129052734375,9.795019149780273,0.8799605369567871,0.11485548317432404
1761395870945668400,4.80066845703125,9.78544807434082,0.8883354067802429,0.10887342691421509
1761395870965046300,4.82004638671875,9.799206733703613,0.859621524810791,0.12801600992679596
1761395870984424200,4.839424072265625,9.762118339538574,0.8590233325958252,0.16869398951530457
1761395871003801900,4.8588017578125,9.8207426071167,0.8356932997703552,0.17228323221206665
1761395871023179800,4.8781796875,9.800403594970703,0.8464609980583191,0.16510476171970367
1761395871042557700,4.8975576171875,9.732806205749512,0.8757730722427368,0.1698904037475586
1761395871061935600,4.916935546875,9.760323524475098,0.8685946464538574,0.14835500717163086
1761395871081313500,4.9363134765625,9.851848602294922,0.8560323119163513,0.12622138857841492
1761395871100691200,4.955691162109375,9.772886276245117,0.8691928386688232,0.11605189740657806
1761395871120069000,4.975069091796875,9.754341125488281,0.8769695162773132,0.11724831163883209
1761395871139447000,4.994447021484375,9.786046028137207,0.8656035661697388,0.1256231814622879
1761395871158825000,5.013824951171875,9.8207426071167,0.8715856671333313,0.12801600992679596
1761395871178202600,5.03320263671875,9.755537986755371,0.8841479420661926,0.11724831163883209
1761395871197580500,5.05258056640625,9.806385040283203,0.8656035661697388,0.11066804826259613
1761395871216958500,5.07195849609375,9.8207426071167,0.8476574420928955,0.0975075215101242
1761395871236336400,5.09133642578125,9.732806205749512,0.8961120843887329,0.08733802288770676
1761395871255714300,5.11071435546875,9.753145217895508,0.8949156403541565,0.09571290761232376
1761395871275092000,5.130092041015625,9.867402076721191,0.8691928386688232,0.11665010452270508
1761395871294470000,5.149469970703125,9.765707015991211,0.8458628058433533,0.1746760457754135
1761395871313847800,5.168847900390625,9.747760772705078,0.8231309652328491,0.19680966436862946
1761395871333225700,5.188225830078125,9.800403594970703,0.8237292170524597,0.19621145725250244
1761395871352603400,5.207603271484375,9.800403594970703,0.8500502705574036,0.15194423496723175
1761395871371981300,5.226981201171875,9.781859397888184,0.8691928386688232,0.11485548317432404
1761395871391359200,5.246359130859375,9.76391315460205,0.9104689955711365,0.13998012244701385
1761395871410737200,5.265737060546875,9.787840843200684,0.885344386100769,0.13878370821475983
1761395871430115000,5.285114990234375,9.808777809143066,0.877567708492279,0.13878370821475983
1761395871449492700,5.30449267578125,9.80399227142334,0.8763712644577026,0.11485548317432404
1761395871468870700,5.32387060546875,9.775876998901367,0.9044869542121887,0.09272187948226929
1761395871488248600,5.34324853515625,9.745966911315918,0.9248259663581848,0.09690931439399719
1761395871507626500,5.36262646484375,9.817750930786133,0.8943174481391907,0.1094716340303421
1761395871527004400,5.38200439453125,9.806983947753906,0.8847461938858032,0.12323036789894104
1761395871546382000,5.401382080078125,9.759127616882324,0.885344386100769,0.11246266216039658
1761395871565760000,5.420760009765625,9.78963565826416,0.8500502705574036,0.08673982322216034
1761395871585138000,5.440137939453125,9.784850120544434,0.8368897438049316,0.09990034252405167
1761395871604515800,5.459515869140625,9.759725570678711,0.8201399445533752,0.13160525262355804
1761395871623893500,5.4788935546875,9.795618057250977,0.8141579031944275,0.17108681797981262
1761395871643271400,5.498271484375,9.69212818145752,0.8434699773788452,0.18364913761615753
1761395871662649300,5.5176494140625,9.857831001281738,0.8548358678817749,0.17108681797981262
1761395871682027300,5.53702734375,9.970293998718262,0.8368897438049316,0.15493527054786682
1761395871701405200,5.5564052734375,9.725627899169922,0.8973084688186646,0.1423729509115219
1761395871720783000,5.575783203125,9.612566947937012,0.9397810697555542,0.11545369029045105
1761395871740160800,5.595160888671875,9.802796363830566,0.9463613629341125,0.09511470049619675
1761395871759538700,5.61453857421875,9.934999465942383,0.9379864931106567,0.12622138857841492
1761395871778916600,5.63391650390625,9.820143699645996,0.8949156403541565,0.16271193325519562
1761395871798294500,5.65329443359375,9.672985076904297,0.8434699773788452,0.16510476171970367
1761395871817672200,5.672672119140625,9.704689979553223,0.8410771489143372,0.13519448041915894
1761395871837050000,5.692050048828125,9.867402076721191,0.8548358678817749,0.12741780281066895
1761395871856428000,5.711427978515625,9.930811882019043,0.8536394834518433,0.10707881301641464
1761395871875806000,5.730805908203125,9.705288887023926,0.8578268885612488,0.11485548317432404
1761395871895184000,5.750183837890625,9.619147300720215,0.833898663520813,0.18005990982055664
1761395871914561500,5.7695615234375,9.814760208129883,0.8261220455169678,0.1663011759519577
1761395871933939500,5.788939453125,9.92961597442627,0.8428717851638794,0.14297115802764893
1761395871953317400,5.8083173828125,9.817152976989746,0.8488538265228271,0.08673982322216034
1761395871972695300,5.8276953125,9.65384292602539,0.8578268885612488,0.10169496387243271
1761395871992073200,5.8470732421875,9.693324089050293,0.8590233325958252,0.10767702013254166
1761395872011451000,5.866450927734375,9.961320877075195,0.8422735929489136,0.059820566326379776
1761395872030828800,5.885828857421875,9.91286563873291,0.8955138921737671,0.064606212079525
1761395872050206700,5.905206787109375,9.617352485656738,0.9361918568611145,0.10408778488636017
1761395872069584600,5.924584716796875,9.598209381103516,0.9577272534370422,0.10648060590028763
1761395872088962300,5.94396240234375,9.920642852783203,0.9439685344696045,0.12861421704292297
1761395872108340200,5.96334033203125,9.993623733520508,0.8967102766036987,0.10887342691421509
1761395872127718100,5.98271826171875,9.726823806762695,0.8745766878128052,0.13280165195465088
1761395872147096000,6.002095947265625,9.549755096435547,0.8614161610603333,0.16450655460357666
1761395872166474000,6.021473876953125,9.739984512329102,0.8530412912368774,0.17706887423992157
1761395872185851600,6.0408515625,10.083354949951172,0.8099704384803772,0.1698904037475586
1761395872205229600,6.0602294921875,9.909276962280273,0.8380861282348633,0.1866401731967926
1761395872224607500,6.079607421875,9.427123069763184,0.8548358678817749,0.2027917206287384
1761395872243985400,6.0989853515625,9.528818130493164,0.8883354067802429,0.22612173855304718
1761395872263363300,6.11836328125,10.223933219909668,0.9200403094291687,0.12263216078281403
1761395872282741000,6.137740966796875,10.107880592346191,0.8877372145652771,0.0849452018737793
1761395872302119000,6.157118896484375,9.272188186645508,0.9236295223236084,0.0849452018737793
1761395872321483300,6.176483154296875,9.486943244934082,0.8811569213867188,0.12023933976888657
1761395872340874800,6.195874755859375,10.343574523925781,0.8249256014823914,0.09930214285850525
1761395872360252400,6.21525244140625,10.106684684753418,0.7800601720809937,0.12681959569454193
1761395872379617000,6.234616943359375,9.44028377532959,0.7824530005455017,0.13519448041915894
1761395872399008300,6.25400830078125,9.363713264465332,0.8560323119163513,0.14356936514377594
1761395872418386200,6.27338623046875,10.043274879455566,0.8997012972831726,0.061016976833343506
1761395872437764000,6.29276416015625,10.247262954711914,0.900897741317749,0.010767702013254166
1761395872457141800,6.312141845703125,9.675378799438477,0.9020941257476807,0.04307080805301666
1761395872476519700,6.331519775390625,9.278767585754395,0.9116654396057129,0.10169496387243271
1761395872495884000,6.350884033203125,9.69631576538086,0.9212366938591003,0.1339980661869049
1761395872515275500,6.370275634765625,10.335797309875488,0.8739784955978394,0.0933200865983963
1761395872534653200,6.389653076171875,10.0073823928833,0.877567708492279,0.07896314561367035
1761395872554017800,6.409017822265625,9.301499366760254,0.9194421172142029,0.04307080805301666
1761395872573409000,6.428408935546875,9.427123069763184,0.9517452120780945,0.0771685317158699
1761395872592787000,6.447786865234375,10.183255195617676,0.9236295223236084,0.08793623000383377
1761395872612164900,6.467164794921875,10.214960098266602,0.8566305041313171,0.09990034252405167
1761395872631542500,6.48654248046875,9.57487964630127,0.851844847202301,0.14656038582324982
1761395872650920400,6.50592041015625,9.595218658447266,0.875174880027771,0.1704886108636856
1761395872670298400,6.52529833984375,9.790233612060547,0.8883354067802429,0.1339980661869049
1761395872689676300,6.54467626953125,9.791430473327637,0.9020941257476807,0.13519448041915894
1761395872709054200,6.56405419921875,9.772287368774414,0.9152546525001526,0.14476576447486877
1761395872728432000,6.58343212890625,9.810572624206543,0.8889335989952087,0.13519448041915894
1761395872747809800,6.602809814453125,9.79262638092041,0.8847461938858032,0.11006984114646912
1761395872767187700,6.622187744140625,9.745966911315918,0.8997012972831726,0.10169496387243271
1761395872786565600,6.641565673828125,9.784252166748047,0.8979067206382751,0.08973085135221481
1761395872805943600,6.660943603515625,9.796216011047363,0.8739784955978394,0.08315058797597885
1761395872825321200,6.6803212890625,9.780662536621094,0.8656035661697388,0.11126625537872314
1761395872844699100,6.69969921875,9.79083251953125,0.8620143532752991,0.10648060590028763
1761395872864077000,6.7190771484375,9.798608779907227,0.893121063709259,0.08195417374372482
1761395872883455000,6.738455078125,9.787840843200684,0.9176474809646606,0.09212367236614227
1761395872902833000,6.7578330078125,9.761520385742188,0.8913264274597168,0.11006984114646912
1761395872922210600,6.77721044921875,9.815957069396973,0.8703892230987549,0.10468599200248718
1761395872941588500,6.79658837890625,9.828518867492676,0.9116654396057129,0.08793623000383377
1761395872960966400,6.81596630859375,9.750752449035645,0.9260223507881165,0.06999006122350693
1761395872980344300,6.83534423828125,9.784252166748047,0.9104689955711365,0.07836493849754333
1761395872999722000,6.854721923828125,9.78544807434082,0.9176474809646606,0.10289137065410614
1761395873019100000,6.874099853515625,9.751948356628418,0.9092726111412048,0.10408778488636017
1761395873038477800,6.893477783203125,9.810572624206543,0.8715856671333313,0.09391828626394272
1761395873057855700,6.912855712890625,9.765707015991211,0.8560323119163513,0.10049854964017868
1761395873077233700,6.932233642578125,9.780064582824707,0.8536394834518433,0.10767702013254166
1761395873096611300,6.951611328125,9.81954574584961,0.8452646136283875,0.12323036789894104
1761395873115989200,6.9709892578125,9.778867721557617,0.8464609980583191,0.16510476171970367
1761395873135367200,6.9903671875,9.795618057250977,0.8488538265228271,0.17108681797981262
1761395873154745000,7.0097451171875,9.772886276245117,0.8398807644844055,0.16390834748744965
1761395873174123000,7.029123046875,9.794421195983887,0.8333004713058472,0.18305093050003052
1761395873193500700,7.048500732421875,9.753743171691895,0.8566305041313171,0.15194423496723175
1761395873212878600,7.067878662109375,9.773484230041504,0.882951557636261,0.14356936514377594
1761395873232256500,7.087256591796875,9.818947792053223,0.8811569213867188,0.1459621787071228
1761395873251634400,7.106634521484375,9.750154495239258,0.9415757060050964,0.14117653667926788
1761395873271012400,7.126012451171875,9.757332801818848,0.9780662655830383,0.10588239878416061
1761395873290390000,7.14539013671875,9.808777809143066,0.9619147181510925,0.09990034252405167
1761395873309768000,7.164767822265625,9.784252166748047,0.9367900490760803,0.06640082597732544
1761395873329145900,7.184145751953125,9.803394317626953,0.9032905697822571,0.0891326442360878
1761395873348523800,7.203523681640625,9.844670295715332,0.8560323119163513,0.08075776696205139
1761395873367901700,7.222901611328125,9.758528709411621,0.8237292170524597,0.08973085135221481
1761395873387279400,7.242279296875,9.776474952697754,0.8033902049064636,0.12323036789894104
1761395873406657300,7.2616572265625,9.78843879699707,0.8057830333709717,0.12083754688501358
1761395873426035200,7.28103515625,9.726225852966309,0.8309076428413391,0.13160525262355804
1761395873445413000,7.3004130859375,9.78843879699707,0.8249256014823914,0.15314064919948578
1761395873464790800,7.319790771484375,9.844670295715332,0.8321040868759155,0.15194423496723175
1761395873484168700,7.339168701171875,9.77707290649414,0.8709874153137207,0.16749759018421173
1761395873503546600,7.358546630859375,9.765109062194824,0.8973084688186646,0.1746760457754135
1761395873522924500,7.377924560546875,9.760921478271484,0.9427721500396729,0.1543370634317398
1761395873542302500,7.397302490234375,9.828518867492676,0.9511470198631287,0.13280165195465088
1761395873561680100,7.41668017578125,9.769296646118164,0.9559326171875,0.10767702013254166
1761395873581058000,7.43605810546875,9.742975234985352,0.9571290612220764,0.11724831163883209
1761395873600436000,7.45543603515625,9.748957633972168,0.9559326171875,0.12801600992679596
1761395873619814000,7.47481396484375,9.797411918640137,0.9092726111412048,0.09511470049619675
1761395873639191800,7.49419189453125,9.833304405212402,0.8961120843887329,0.17946170270442963
1761395873658569500,7.513569580078125,9.710074424743652,0.8769695162773132,0.18843477964401245
1761395873677947400,7.532947509765625,9.963115692138672,0.8237292170524597,0.2021935135126114
1761395873697325300,7.5523251953125,9.757332801818848,0.8231309652328491,0.21355941891670227
1761395873716703200,7.571703125,9.591629981994629,0.8279166221618652,0.24526432156562805
1761395873736081200,7.5910810546875,9.773484230041504,0.8458628058433533,0.21355941891670227
1761395873755458800,7.610458740234375,9.982257843017578,0.8608179688453674,0.19202402234077454
1761395873774836700,7.629836669921875,9.845269203186035,0.882951557636261,0.1782652884721756
1761395873794214700,7.649214599609375,9.602396965026855,0.8967102766036987,0.18484555184841156
1761395873813592600,7.668592529296875,9.718449592590332,0.8925228714942932,0.18484555184841156
1761395873832970500,7.687970458984375,9.89970588684082,0.8715856671333313,0.13100704550743103
1761395873852348200,7.70734814453125,9.984650611877441,0.8668000102043152,0.08733802288770676
1761395873871726000,7.72672607421875,9.724431037902832,0.8991031050682068,0.006580262444913387
1761395873891104000,7.74610400390625,9.486345291137695,0.9601200819015503,0.04546362906694412
1761395873910482000,7.76548193359375,9.794421195983887,0.9601200819015503,0.11186445504426956
1761395873929859600,7.784859619140625,10.017552375793457,0.9206385016441345,0.13160525262355804
1761395873949237500,7.804237548828125,9.81117057800293,0.9439685344696045,0.14117653667926788
1761395873968615400,7.823615478515625,9.573084831237793,0.9505487680435181,0.12622138857841492
1761395873987993300,7.842993408203125,9.69511890411377,0.9332008361816406,0.13160525262355804
1761395874007371300,7.862371337890625,9.965508460998535,0.9074779748916626,0.09990034252405167
1761395874026749000,7.8817490234375,9.88833999633789,0.9026923179626465,0.129810631275177
1761395874046126800,7.901126953125,9.646066665649414,0.9014959335327148,0.15493527054786682
1761395874065504800,7.9205048828125,9.639486312866211,0.8685946464538574,0.12263216078281403
1761395874084882700,7.939882568359375,9.851848602294922,0.8560323119163513,0.1423729509115219
1761395874104260600,7.959260498046875,10.010972023010254,0.8231309652328491,0.1537388563156128
1761395874123638300,7.97863818359375,9.777671813964844,0.8428717851638794,0.18903298676013947
1761395874143016200,7.99801611328125,9.514460563659668,0.8679963946342468,0.21415762603282928
1761395874162394000,8.01739404296875,9.739984512329102,0.882951557636261,0.21714866161346436
1761395874181772000,8.03677197265625,10.00439167022705,0.8835497498512268,0.20518454909324646
1761395874201150000,8.05614990234375,9.970293998718262,0.8656035661697388,0.15493527054786682
1761395874220527600,8.075527587890624,9.517452239990234,0.8662018179893494,0.14656038582324982
1761395874239905500,8.094905517578125,9.500103950500488,0.9098708033561707,0.1453639715909958
1761395874259283500,8.114283447265626,10.127023696899414,0.9074779748916626,0.1052841991186142
1761395874278661400,8.133661376953125,10.106684684753418,0.9230313301086426,0.09212367236614227
1761395874298025700,8.153025634765624,9.346364974975586,0.9744769930839539,0.16929219663143158
1761395874317417000,8.1724169921875,9.42891788482666,0.9463613629341125,0.1579262912273407
1761395874336795000,8.191794921875,10.25743293762207,0.9355936646461487,0.12502498924732208
1761395874356172800,8.2111728515625,10.129416465759277,0.900897741317749,0.04486542567610741
1761395874375550700,8.23055078125,9.478569030761719,0.9074779748916626,0.08673982322216034
1761395874394928600,8.2499287109375,9.317052841186523,0.9104689955711365,0.15074782073497772
1761395874414293000,8.26929296875,9.999007225036621,0.8967102766036987,0.18005990982055664
1761395874433684200,8.288684326171875,10.293923377990723,0.8512466549873352,0.1453639715909958
1761395874453062100,8.308062255859374,9.750752449035645,0.8865407705307007,0.15314064919948578
1761395874472440000,8.327440185546875,9.2255277633667,0.9188438653945923,0.14416755735874176
1761395874491817700,8.346817626953126,9.66819953918457,0.9098708033561707,0.14476576447486877
1761395874511195600,8.366195556640625,10.323833465576172,0.8835497498512268,0.10289137065410614
1761395874530560000,8.38556005859375,10.042078018188477,0.8835497498512268,0.12323036789894104
1761395874549951500,8.404951416015624,9.313464164733887,0.8847461938858032,0.15074782073497772
1761395874569329400,8.424329345703125,9.391230583190918,0.9152546525001526,0.14835500717163086
1761395874588693800,8.44369384765625,10.188040733337402,0.9032905697822571,0.0975075215101242
1761395874608085000,8.4630849609375,10.243673324584961,0.882951557636261,0.062213387340307236
1761395874627463000,8.482462890625,9.530014038085938,0.924227774143219,0.09152546525001526
1761395874646840800,8.5018408203125,9.57188892364502,0.9206385016441345,0.13220344483852386
1761395874666218800,8.52121875,9.834501266479492,0.9152546525001526,0.13220344483852386
1761395874685596400,8.540596435546876,9.783055305480957,0.8925228714942932,0.12921242415905
1761395874704974300,8.559974365234375,9.791430473327637,0.9092726111412048,0.1459621787071228
1761395874724352300,8.579352294921875,9.781859397888184,0.900897741317749,0.13519448041915894
1761395874743730200,8.598730224609374,9.79262638092041,0.9056833982467651,0.13040883839130402
1761395874763108000,8.618108154296875,9.755537986755371,0.9092726111412048,0.1339980661869049
1761395874782485800,8.63748583984375,9.765109062194824,0.8841479420661926,0.1423729509115219
1761395874801863700,8.65686376953125,9.818349838256836,0.8608179688453674,0.13639089465141296
1761395874821241600,8.67624169921875,9.773484230041504,0.8901300430297852,0.137587308883667
1761395874840619500,8.69561962890625,9.783055305480957,0.9056833982467651,0.10049854964017868
1761395874859997400,8.71499755859375,9.773484230041504,0.8955138921737671,0.10648060590028763
1761395874879375400,8.734375244140624,9.805787086486816,0.9026923179626465,0.11006984114646912
1761395874898753000,8.7537529296875,9.78664493560791,0.9128618240356445,0.14715859293937683
1761395874918131000,8.773130859375,9.78664493560791,0.9296116232872009,0.13040883839130402
1761395874937508900,8.7925087890625,9.781859397888184,0.9367900490760803,0.12921242415905
1761395874956886800,8.81188671875,9.750752449035645,0.9212366938591003,0.14476576447486877
1761395874976264400,8.831264404296874,9.780662536621094,0.8805587291717529,0.15074782073497772
1761395874995642400,8.850642333984375,9.806983947753906,0.8865407705307007,0.14715859293937683
1761395875015020300,8.870020263671876,9.77707290649414,0.9068797826766968,0.12323036789894104
1761395875034398200,8.889398193359375,9.76989459991455,0.885344386100769,0.1052841991186142
1761395875053776100,8.908776123046875,9.783055305480957,0.877567708492279,0.11724831163883209
1761395875073153800,8.92815380859375,9.755537986755371,0.8721838593482971,0.15314064919948578
1761395875092531700,8.94753173828125,9.81535816192627,0.8715856671333313,0.1423729509115219
1761395875111909600,8.96690966796875,9.76989459991455,0.900897741317749,0.16749759018421173
1761395875131287600,8.98628759765625,9.731609344482422,0.9080761671066284,0.137587308883667
1761395875150665500,9.00566552734375,9.81655502319336,0.8877372145652771,0.13998012244701385
1761395875170043100,9.025043212890624,9.795019149780273,0.8937192559242249,0.13280165195465088
1761395875189421000,9.044421142578125,9.784850120544434,0.8763712644577026,0.10887342691421509
1761395875208799000,9.063799072265626,9.797411918640137,0.8877372145652771,0.11964113265275955
1761395875228177000,9.083177001953125,9.728020668029785,0.9320043921470642,0.13160525262355804
1761395875247554800,9.102554931640626,9.789037704467773,0.9355936646461487,0.10229317098855972
1761395875266932500,9.121932373046874,9.80937671661377,0.9296116232872009,0.1178465187549591
1761395875286310400,9.141310302734375,9.742377281188965,0.9152546525001526,0.09930214285850525
1761395875305688300,9.160688232421874,9.81655502319336,0.8973084688186646,0.1094716340303421
1761395875325066200,9.180066162109375,9.78664493560791,0.8961120843887329,0.1136590763926506
1761395875344444200,9.199444091796876,9.773484230041504,0.8865407705307007,0.12083754688501358
1761395875363821800,9.21882177734375,9.77826976776123,0.8865407705307007,0.11964113265275955
1761395875383199700,9.23819970703125,9.781859397888184,0.8757730722427368,0.13998012244701385
1761395875402577700,9.25757763671875,9.78544807434082,0.900897741317749,0.14476576447486877
1761395875421955600,9.27695556640625,9.78664493560791,0.9044869542121887,0.13040883839130402
1761395875441333500,9.29633349609375,9.76391315460205,0.9104689955711365,0.12801600992679596
1761395875460711200,9.315711181640625,9.789037704467773,0.8925228714942932,0.13280165195465088
1761395875480089000,9.335089111328125,9.798608779907227,0.8889335989952087,0.13519448041915894
1761395875499467000,9.354467041015624,9.783055305480957,0.882951557636261,0.12681959569454193
1761395875518845000,9.373844970703125,9.803394317626953,0.8883354067802429,0.11844471842050552
1761395875538222800,9.393222900390626,9.77826976776123,0.882951557636261,0.1256231814622879
1761395875557600500,9.4126005859375,9.774680137634277,0.9104689955711365,0.14117653667926788
1761395875576978400,9.431978515625,9.747162818908691,0.9308080077171326,0.13280165195465088
1761395875596356400,9.4513564453125,9.829116821289062,0.8943174481391907,0.09631111472845078
1761395875615734300,9.470734375,9.781859397888184,0.9056833982467651,0.11605189740657806
1761395875635112200,9.4901123046875,9.702896118164062,0.9044869542121887,0.1136590763926506
1761395875654489900,9.50948974609375,9.78544807434082,0.8727820515632629,0.12083754688501358
1761395875673867800,9.52886767578125,9.726823806762695,0.9044869542121887,0.13280165195465088
1761395875693245700,9.54824560546875,9.846465110778809,0.914058268070221,0.1381855010986328
1761395875712623600,9.56762353515625,9.932008743286133,0.8823533654212952,0.11964113265275955
1761395875732001500,9.58700146484375,9.737591743469238,0.8817551732063293,0.1256231814622879
1761395875751379200,9.606379150390625,9.595816612243652,0.898504912853241,0.1333998590707779
1761395875770757000,9.625757080078126,9.839286804199219,0.9200403094291687,0.14715859293937683
1761395875790135000,9.645135009765625,9.958928108215332,0.8967102766036987,0.13579268753528595
1761395875809513000,9.664512939453125,9.787840843200684,0.8691928386688232,0.12203395366668701
1761395875828891000,9.683890869140624,9.644869804382324,0.898504912853241,0.16091732680797577
1761395875848268500,9.7032685546875,9.7064847946167,0.8925228714942932,0.14895321428775787
1761395875867646500,9.722646484375,9.92243766784668,0.8895317912101746,0.1381855010986328
1761395875887024400,9.7420244140625,9.893723487854004,0.877567708492279,0.13698910176753998
1761395875906402300,9.76140234375,9.69093132019043,0.8805587291717529,0.1423729509115219
1761395875925780200,9.7807802734375,9.632905960083008,0.9074779748916626,0.12741780281066895
1761395875945158000,9.800157958984375,9.844072341918945,0.916451096534729,0.12801600992679596
1761395875964535800,9.819535888671876,9.977472305297852,0.8620143532752991,0.09870393574237823
1761395875983913700,9.838913818359375,9.796216011047363,0.8817551732063293,0.11844471842050552
1761395876003291600,9.858291748046875,9.514460563659668,0.8943174481391907,0.14775680005550385
1761395876022669600,9.877669677734374,9.780662536621094,0.8799605369567871,0.13040883839130402
1761395876042047500,9.897047607421875,10.04566764831543,0.8973084688186646,0.0729810893535614
1761395876061425200,9.916425048828126,9.796216011047363,0.9176474809646606,0.06759724020957947
1761395876080803000,9.935802978515625,9.625727653503418,0.9128618240356445,0.10229317098855972
1761395876100181000,9.955180908203126,9.674181938171387,0.9104689955711365,0.13040883839130402
1761395876119559000,9.974558837890624,9.93978500366211,0.9026923179626465,0.12263216078281403
1761395876138936600,9.9939365234375,9.970891952514648,0.9194421172142029,0.11306086927652359
1761395876158314500,10.013314453125,9.69212818145752,0.9080761671066284,0.11964113265275955
1761395876177692400,10.0326923828125,9.507282257080078,0.8943174481391907,0.14356936514377594
1761395876197070300,10.0520703125,9.828518867492676,0.8769695162773132,0.16749759018421173
1761395876216448300,10.0714482421875,10.164710998535156,0.8434699773788452,0.15194423496723175
1761395876235826000,10.090825927734375,9.803394317626953,0.8560323119163513,0.16031911969184875
1761395876255203800,10.110203857421874,9.303893089294434,0.8733802437782288,0.1501496136188507
1761395876274568200,10.129568115234376,9.725627899169922,0.8889335989952087,0.15074782073497772
1761395876293959700,10.148959716796876,10.329814910888672,0.8793623447418213,0.13220344483852386
1761395876313337600,10.168337646484375,9.856036186218262,0.8823533654212952,0.14835500717163086
1761395876332715300,10.18771533203125,9.21715259552002,0.9092726111412048,0.18305093050003052
1761395876352093200,10.20709326171875,9.647860527038574,0.8901300430297852,0.1537388563156128
1761395876371471000,10.22647119140625,10.324431419372559,0.9248259663581848,0.09810572862625122
1761395876390835500,10.24583544921875,10.058828353881836,0.8715856671333313,0.09212367236614227
1761395876410227000,10.26522705078125,9.32423210144043,0.8913264274597168,0.12203395366668701
1761395876429604600,10.2846044921875,9.391230583190918,0.9092726111412048,0.16031911969184875
1761395876448969000,10.303968994140625,10.160523414611816,0.9236295223236084,0.1339980661869049
1761395876468360400,10.3233603515625,10.255638122558594,0.8769695162773132,0.09032905846834183
1761395876487738400,10.34273828125,9.568299293518066,0.9098708033561707,0.13459627330303192
1761395876507116300,10.3621162109375,9.256634712219238,0.9343972206115723,0.15134602785110474
1761395876526494200,10.381494140625,9.822537422180176,0.9044869542121887,0.1698904037475586
1761395876545872000,10.400871826171874,10.358529090881348,0.8620143532752991,0.129810631275177
1761395876565236200,10.420236328125,9.910472869873047,0.8488538265228271,0.13100704550743103
1761395876584627700,10.439627685546874,9.256035804748535,0.8566305041313171,0.13698910176753998
1761395876604005600,10.459005615234375,9.534799575805664,0.8943174481391907,0.18903298676013947
1761395876623370000,10.478369873046875,10.26042366027832,0.8476574420928955,0.13100704550743103
1761395876642761200,10.49776123046875,9.990034103393555,0.7980063557624817,0.18364913761615753
1761395876662139100,10.51713916015625,9.873982429504395,0.7322037220001221,0.10229317098855972
1761395876681517000,10.53651708984375,10.034899711608887,0.8793623447418213,0.08135596662759781
1761395876700895000,10.55589501953125,9.485747337341309,1.0671988725662231,0.0687936544418335
1761395876720273000,10.57527294921875,9.54915714263916,1.2293126583099365,0.06580262631177902
1761395876739650600,10.594650634765625,9.564111709594727,1.1455638408660889,0.14416755735874176
1761395876759028500,10.614028564453125,9.614959716796875,1.0809576511383057,0.1860419660806656
1761395876778406400,10.633406494140624,9.710074424743652,0.8949156403541565,0.1543370634317398
1761395876797784300,10.652784423828125,10.119845390319824,0.753140926361084,0.09511470049619675
