time,seconds_elapsed,z,y,x
1761395866355430700,0.2104306640625,-0.014291763305664062,-0.024202704429626465,-0.003124237060546875
1761395866375196000,0.23019580078125,-0.05162620544433594,-0.03754907846450806,-0.0651351660490036
1761395866394961400,0.24996142578125,0.10779666900634766,-0.07453334331512451,-0.11213178932666779
1761395866414726700,0.2697265625,0.058563232421875,-0.0687563419342041,-0.13838008046150208
1761395866434492200,0.2894921875,0.005550384521484375,-0.03075575828552246,-0.11104023456573486
1761395866454257400,0.30925732421875,0.016294479370117188,-0.04829484224319458,-0.12371773272752762
1761395866474023000,0.32902294921875,0.08452033996582031,-0.022441625595092773,-0.09576994925737381
1761395866493602600,0.3486025390625,0.010170936584472656,0.02852100133895874,-0.10594324767589569
1761395866512980500,0.36798046875,-0.023187637329101562,0.05419260263442993,-0.1369817703962326
1761395866532358400,0.3873583984375,0.02704334259033203,0.019088923931121826,-0.16323348879814148
1761395866551736300,0.406736328125,0.00677490234375,0.009679436683654785,-0.11173399537801743
1761395866571114000,0.426114013671875,-0.025359153747558594,-0.01411890983581543,-0.1099340170621872
1761395866590492000,0.445491943359375,0.055286407470703125,-0.04511988162994385,-0.08017686009407043
1761395866609869800,0.464869873046875,0.0098114013671875,-0.057335853576660156,-0.06695842742919922
1761395866629247700,0.484247802734375,0.0290069580078125,-0.049245595932006836,-0.046395376324653625
1761395866648625700,0.503625732421875,0.015555381774902344,-0.017774522304534912,-0.05082064867019653
1761395866668003600,0.523003662109375,0.0023260116577148438,-0.008994698524475098,-0.05659988522529602
1761395866687381200,0.54238134765625,0.03347301483154297,0.005216419696807861,-0.021233707666397095
1761395866706759200,0.56175927734375,0.025193214416503906,-0.00321882963180542,-0.011274352669715881
1761395866726137000,0.58113720703125,0.0264434814453125,-0.0037319064140319824,-0.00939728319644928
1761395866745515000,0.600514892578125,0.029016494750976562,-0.02432537078857422,-0.009815514087677002
1761395866764893000,0.619892822265625,0.012264251708984375,-0.010944485664367676,-0.008276790380477905
1761395866784270600,0.6392705078125,0.028006553649902344,-0.0013346672058105469,-0.03952568769454956
1761395866803648500,0.6586484375,0.039104461669921875,0.00688403844833374,-0.018060415983200073
1761395866823026400,0.6780263671875,-0.04691886901855469,0.01037609577178955,-0.017216697335243225
1761395866842404400,0.697404296875,0.018891334533691406,0.00012797117233276367,-0.045646801590919495
1761395866861782300,0.7167822265625,0.05167579650878906,-0.028898179531097412,-0.07400704175233841
1761395866881160200,0.73616015625,-0.009443283081054688,-0.026775240898132324,-0.054066240787506104
1761395866900538000,0.7555380859375,0.01587677001953125,-0.02397024631500244,-0.07179033011198044
1761395866919915800,0.774915771484375,0.013823509216308594,-0.036876380443573,-0.07276757806539536
1761395866939293700,0.794293701171875,0.010998725891113281,-0.01605778932571411,-0.058477818965911865
1761395866958671600,0.813671630859375,0.012183189392089844,-0.006622493267059326,-0.079915851354599
1761395866978049500,0.833049560546875,-0.004576683044433594,-0.0003306865692138672,-0.10362648963928223
1761395866997427200,0.85242724609375,0.03724861145019531,-0.013849973678588867,-0.11255546659231186
1761395867016805000,0.87180517578125,0.03006458282470703,0.015366792678833008,-0.08955275267362595
1761395867036183000,0.89118310546875,-0.019036293029785156,0.0027373433113098145,-0.12434636056423187
1761395867074939000,0.92993896484375,-0.023383140563964844,-0.03962439298629761,-0.03744959831237793
1761395867094316800,0.94931689453125,0.029388427734375,-0.008516907691955566,-0.04911726713180542
1761395867113694700,0.96869482421875,0.007841110229492188,0.008585155010223389,-0.09661334753036499
1761395867133072400,0.988072265625,0.21881675720214844,0.0008238554000854492,-0.11080420017242432
1761395867152450300,1.0074501953125,-0.1043386459350586,-0.034362196922302246,-0.07031670212745667
1761395867171828200,1.026828125,-0.03231620788574219,-0.042169034481048584,-0.04156011343002319
1761395867210584000,1.065583984375,0.005802154541015625,-0.0016075968742370605,-0.02592635154724121
1761395867229961700,1.084961669921875,0.0004930496215820312,0.028364062309265137,-0.017414137721061707
1761395867249339600,1.104339599609375,0.03178119659423828,0.014293909072875977,-0.01925523579120636
1761395867268717600,1.123717529296875,0.05951404571533203,-0.013017833232879639,-0.02522215247154236
1761395867288095500,1.143095458984375,0.01458740234375,-0.05122566223144531,-0.07035252451896667
1761395867307473400,1.162473388671875,-0.012001991271972656,-0.042036592960357666,-0.07093862444162369
1761395867326851300,1.181851318359375,0.06880855560302734,-0.05077505111694336,-0.06060683727264404
1761395867346229000,1.20122900390625,0.03263568878173828,-0.038252413272857666,-0.04860822856426239
1761395867365607000,1.22060693359375,-0.034313201904296875,-0.01864546537399292,-0.041740044951438904
1761395867384984800,1.23998486328125,-0.016588211059570312,0.015818536281585693,-0.0555889755487442
1761395867404362800,1.25936279296875,0.013419151306152344,0.011766910552978516,-0.04512467980384827
1761395867423740400,1.278740478515625,0.08471870422363281,-0.053680479526519775,-0.0437873899936676
1761395867443118300,1.298118408203125,-0.007724761962890625,-0.022336065769195557,-0.0678471177816391
1761395867462496300,1.317496337890625,-0.0016651153564453125,-0.02189391851425171,-0.05552932620048523
1761395867481874200,1.336874267578125,0.036759376525878906,0.004119932651519775,-0.07538001239299774
1761395867501252000,1.356252197265625,-0.025747299194335938,0.0023326873779296875,-0.06264650076627731
1761395867520630000,1.375630126953125,-0.010151863098144531,0.0048372745513916016,-0.07112955302000046
1761395867540007700,1.395007568359375,0.06532573699951172,-0.008274197578430176,-0.08599549531936646
1761395867559385600,1.414385498046875,0.042716026306152344,-0.0014635920524597168,-0.0798254907131195
1761395867578763500,1.433763427734375,-0.013837814331054688,0.019031047821044922,-0.10852789878845215
1761395867598141400,1.453141357421875,0.0067615509033203125,0.004376530647277832,-0.11576999723911285
1761395867617519400,1.472519287109375,0.03927040100097656,-0.0017009973526000977,-0.07859687507152557
1761395867636897300,1.491897216796875,-0.0097808837890625,-0.021098971366882324,-0.052811309695243835
1761395867656275000,1.51127490234375,-0.10698127746582031,-0.03815197944641113,-0.06375033408403397
1761395867675652900,1.53065283203125,0.1879720687866211,-0.03890228271484375,-0.04748602211475372
1761395867695030800,1.55003076171875,0.1091156005859375,-0.042143821716308594,-0.07210341095924377
1761395867714408700,1.56940869140625,-0.07432842254638672,-0.021654069423675537,-0.0558212548494339
1761395867733786600,1.58878662109375,-0.16687488555908203,0.013900518417358398,-0.03999488055706024
1761395867753164300,1.608164306640625,0.07436180114746094,-0.019762754440307617,-0.055376335978507996
1761395867772542200,1.627542236328125,0.2110757827758789,-0.03896540403366089,-0.059270769357681274
1761395867791920000,1.646920166015625,0.004849433898925781,-0.023936808109283447,-0.058302417397499084
1761395867811298000,1.666298095703125,-0.1858358383178711,-0.0033140182495117188,-0.037511393427848816
1761395867830676000,1.685676025390625,0.0070629119873046875,-0.003207385540008545,-0.05263841152191162
1761395867850054000,1.705053955078125,0.18219566345214844,-0.00109177827835083,-0.06972707808017731
1761395867869431600,1.724431640625,0.08044242858886719,-0.0023346543312072754,-0.056695714592933655
1761395867888809500,1.7438095703125,-0.12218570709228516,-0.00948786735534668,-0.056003764271736145
1761395867908187400,1.7631875,-0.09718704223632812,-0.016985774040222168,-0.04635302722454071
1761395867946943000,1.80194287109375,0.18350505828857422,-0.02237522602081299,-0.0672384649515152
1761395867966321000,1.82132080078125,-0.05874824523925781,-0.015489399433135986,-0.06764215230941772
1761395867985698800,1.84069873046875,-0.15724658966064453,-0.0020569562911987305,-0.04067200422286987
1761395868005076700,1.86007666015625,0.04674816131591797,-0.019966840744018555,-0.06133325397968292
1761395868024454700,1.87945458984375,0.22543048858642578,-0.026830673217773438,-0.07086782157421112
1761395868043832600,1.89883251953125,0.08170795440673828,-0.03876030445098877,-0.08243749290704727
1761395868063210200,1.918210205078125,-0.19627761840820312,-0.018974661827087402,-0.04465453326702118
1761395868082588200,1.937588134765625,-0.08943557739257812,-0.018241047859191895,-0.05748189985752106
1761395868101966000,1.956966064453125,0.18037033081054688,-0.01674830913543701,-0.07519792020320892
1761395868121344000,1.976343994140625,0.19340038299560547,-0.007304787635803223,-0.0976380854845047
1761395868140722000,1.995721923828125,-0.11821556091308594,-0.0020336508750915527,-0.06988490372896194
1761395868160099600,2.015099609375,-0.20896434783935547,-0.029204845428466797,-0.06219057738780975
1761395868179477500,2.0344775390625,0.11575984954833984,-0.02629750967025757,-0.04517529904842377
1761395868198855400,2.05385546875,0.34425926208496094,0.021659433841705322,-0.06665139645338058
1761395868218233300,2.0732333984375,0.0026388168334960938,0.01767587661743164,-0.07603306323289871
1761395868237611300,2.092611328125,-0.41561126708984375,0.024288475513458252,-0.036008015275001526
1761395868256989000,2.111989013671875,-0.04169750213623047,-0.0025980472564697266,-0.04434680938720703
1761395868276366800,2.131366943359375,0.5385570526123047,-0.03168380260467529,-0.06219576299190521
1761395868295731200,2.150731201171875,0.1323862075805664,-0.03659754991531372,-0.07431746274232864
1761395868315122700,2.170122802734375,-0.5602216720581055,-0.017611682415008545,-0.031455278396606445
1761395868334500600,2.18950048828125,-0.09146499633789062,-0.0316426157951355,-0.039122775197029114
1761395868353878500,2.20887841796875,0.5471639633178711,-0.04352933168411255,-0.06379763782024384
1761395868373256200,2.228256103515625,0.2718029022216797,-0.053700387477874756,-0.06606746464967728
1761395868392634000,2.247634033203125,-0.4437370300292969,-0.029559731483459473,-0.04069302976131439
1761395868412012000,2.267011962890625,-0.3659791946411133,-0.012916803359985352,-0.017123013734817505
1761395868431390000,2.286389892578125,0.3689718246459961,-0.03274416923522949,-0.07344338297843933
1761395868450768000,2.305767822265625,0.4912576675415039,-0.042698562145233154,-0.0979839563369751
1761395868470132200,2.32513232421875,-0.19195270538330078,-0.011468291282653809,-0.09076041728258133
1761395868489523500,2.3445234375,-0.5290651321411133,0.023466944694519043,-0.08067227154970169
1761395868508901400,2.3639013671875,0.08458709716796875,0.014478504657745361,-0.08107627183198929
1761395868528279300,2.383279296875,0.582148551940918,-0.009549498558044434,-0.09624859690666199
1761395868547657200,2.4026572265625,0.1351795196533203,-0.008539319038391113,-0.08175237476825714
1761395868567035000,2.422034912109375,-0.4651937484741211,-0.006418406963348389,-0.07733453810214996
1761395868586399200,2.441399169921875,-0.26877880096435547,0.017763912677764893,-0.06011849641799927
1761395868605790700,2.460790771484375,0.4482088088989258,-0.016179561614990234,-0.1012791097164154
1761395868625168600,2.480168701171875,0.3978891372680664,-0.03498023748397827,-0.12032127380371094
1761395868644533000,2.499532958984375,-0.3273296356201172,-0.0029472708702087402,-0.057047754526138306
1761395868663924200,2.51892431640625,-0.048870086669921875,-0.04244452714920044,-0.07664915174245834
1761395868683302100,2.53830224609375,0.012930870056152344,-0.008945643901824951,-0.025542795658111572
1761395868702680000,2.55768017578125,-0.00026798248291015625,-0.008523702621459961,-0.038791924715042114
1761395868722058000,2.57705810546875,0.04926586151123047,-0.02353346347808838,-0.016131967306137085
1761395868741436000,2.596435791015625,-0.0025281906127929688,-0.022368788719177246,-0.022678285837173462
1761395868760813600,2.6158134765625,0.010705947875976562,-0.01656407117843628,-0.052376896142959595
1761395868780191500,2.63519140625,0.04288482666015625,-0.010534346103668213,-0.05305685102939606
1761395868818947300,2.673947265625,-0.007502555847167969,-0.009654700756072998,-0.055597029626369476
1761395868838325200,2.6933251953125,0.04431438446044922,-0.02719360589981079,-0.04876233637332916
1761395868857703200,2.712703125,0.04045581817626953,-0.014371216297149658,-0.03389930725097656
1761395868877080800,2.732080810546875,-0.028009414672851562,0.00922250747680664,-0.027572616934776306
1761395868896458800,2.751458740234375,0.013927459716796875,-0.0087355375289917,-0.0613226592540741
1761395868915836700,2.770836669921875,0.04778289794921875,-0.02094930410385132,-0.0839158296585083
1761395868935214600,2.790214599609375,0.013030052185058594,-0.0311129093170166,-0.09997860342264175
1761395868954592300,2.80959228515625,0.027388572692871094,-0.0283815860748291,-0.07429200410842896
1761395868973970200,2.82897021484375,0.02971935272216797,-0.025801777839660645,-0.07344897836446762
1761395868993348000,2.84834814453125,-0.009004592895507812,0.011569857597351074,-0.0572325736284256
1761395869012726000,2.86772607421875,0.03192424774169922,-0.010126829147338867,-0.06776052713394165
1761395869032104000,2.88710400390625,0.0682516098022461,-0.0336112380027771,-0.06622935086488724
1761395869051481900,2.90648193359375,-0.026520729064941406,-0.0055942535400390625,-0.047581955790519714
1761395869070859500,2.925859619140625,-0.0036258697509765625,-0.01156681776046753,-0.07693460583686829
1761395869090237400,2.945237548828125,0.03378772735595703,-0.024670779705047607,-0.06884658336639404
1761395869109615400,2.964615478515625,-0.00948333740234375,-0.015933990478515625,-0.0890510305762291
1761395869128993300,2.9839931640625,0.016709327697753906,-0.015550076961517334,-0.06046748161315918
1761395869148371000,3.003370849609375,0.03912353515625,-0.0011761784553527832,-0.046340614557266235
1761395869167748900,3.022748779296875,0.02157878875732422,-0.022191762924194336,-0.044217661023139954
1761395869187126800,3.042126708984375,0.056321144104003906,-0.02727144956588745,-0.0502617210149765
1761395869206504700,3.061504638671875,-0.006251335144042969,-0.006341993808746338,-0.032199397683143616
1761395869225882600,3.080882568359375,-0.027740478515625,-0.014805793762207031,-0.054713696241378784
1761395869245260500,3.100260498046875,0.08984375,-0.03928041458129883,-0.04292108118534088
1761395869264638200,3.11963818359375,-0.0070552825927734375,-0.03279668092727661,-0.05381551384925842
1761395869284016000,3.13901611328125,0.010326385498046875,0.0035308003425598145,-0.07427079975605011
1761395869303394000,3.15839404296875,0.02123260498046875,0.0011140108108520508,-0.07359889149665833
1761395869322772000,3.17777197265625,0.032454490661621094,-0.021638333797454834,-0.057221025228500366
1761395869342150000,3.19714990234375,0.024036407470703125,-0.0176694393157959,-0.04645740985870361
1761395869361527600,3.216527587890625,0.035353660583496094,0.0055939555168151855,-0.0665682852268219
1761395869380905500,3.235905517578125,-0.000614166259765625,0.025416016578674316,-0.07778596132993698
1761395869400283400,3.255283447265625,0.01033782958984375,0.006796777248382568,-0.09459097683429718
1761395869419661300,3.274661376953125,0.03920555114746094,-0.008438467979431152,-0.0664355456829071
1761395869439039200,3.294039306640625,0.011709213256835938,-0.01703953742980957,-0.06868477165699005
1761395869458417000,3.3134169921875,0.005879402160644531,-0.012240409851074219,-0.06162794679403305
1761395869477794800,3.332794921875,0.01904010772705078,-0.024832189083099365,-0.05662648379802704
1761395869497172700,3.3521728515625,-0.006114959716796875,-0.0376468300819397,-0.0694238543510437
1761395869516550700,3.371550537109375,0.024949073791503906,-0.03202611207962036,-0.07036963850259781
1761395869535928600,3.390928466796875,0.015239715576171875,-0.04584348201751709,-0.0478350967168808
1761395869555306200,3.41030615234375,0.022451400756835938,-0.0245172381401062,-0.013628631830215454
1761395869574684200,3.42968408203125,0.0019578933715820312,-0.013921737670898438,-0.039400458335876465
1761395869594062000,3.44906201171875,0.0067234039306640625,-0.017567992210388184,-0.04265594482421875
1761395869613440000,3.46843994140625,0.035447120666503906,-0.026052117347717285,-0.0334722101688385
1761395869632818000,3.48781787109375,0.006834983825683594,-0.02685779333114624,-0.03840278089046478
1761395869652195600,3.507195556640625,0.1506519317626953,-0.024471938610076904,-0.05918619781732559
1761395869671573500,3.526573486328125,0.01640033721923828,-0.006001412868499756,-0.08268480002880096
1761395869690951400,3.545951416015625,-0.17331790924072266,0.01965487003326416,-0.08245155215263367
1761395869710329300,3.565329345703125,-0.03530311584472656,0.006877720355987549,-0.07995268702507019
1761395869729707300,3.584707275390625,0.17918014526367188,-0.0042577385902404785,-0.061816900968551636
1761395869749085000,3.6040849609375,0.08577919006347656,-0.007771492004394531,-0.07363705337047577
1761395869768462800,3.623462890625,-0.07125186920166016,-0.0014704465866088867,-0.07906116545200348
1761395869787840800,3.6428408203125,-0.11799430847167969,-0.01749587059020996,-0.08559520542621613
1761395869807218700,3.66221875,0.08217906951904297,-0.03576618432998657,-0.06979058682918549
1761395869826596600,3.6815966796875,0.18887996673583984,-0.03200501203536987,-0.06699971109628677
1761395869845974300,3.700974365234375,-0.014962196350097656,-0.020528137683868408,-0.05633726716041565
1761395869865352200,3.720352294921875,-0.15393543243408203,-0.010371208190917969,-0.039215102791786194
1761395869884730000,3.739730224609375,-0.01389312744140625,-0.0052225589752197266,-0.06516324728727341
1761395869904108000,3.75910791015625,0.16617774963378906,-0.018267452716827393,-0.06726817041635513
1761395869923486000,3.77848583984375,0.1277170181274414,-0.03128129243850708,-0.060550034046173096
1761395869942863600,3.797863525390625,-0.1263895034790039,-0.03477323055267334,-0.061904773116111755
1761395869962241500,3.817241455078125,-0.13258075714111328,-0.012649297714233398,-0.028008386492729187
1761395869981619500,3.836619384765625,0.14314937591552734,-0.017854154109954834,-0.05085329711437225
1761395870000997400,3.855997314453125,0.2163982391357422,-0.021113038063049316,-0.0641426146030426
1761395870020375300,3.875375244140625,-0.09300613403320312,0.006601274013519287,-0.06792190670967102
1761395870039753000,3.8947529296875,-0.19024181365966797,-0.0007014870643615723,-0.039910703897476196
1761395870059131000,3.914130859375,0.07233619689941406,-0.010400474071502686,-0.044397011399269104
1761395870078508800,3.9335087890625,0.2176990509033203,-0.027635276317596436,-0.06644721329212189
1761395870097886700,3.95288671875,0.05937004089355469,-0.025120437145233154,-0.07134206593036652
1761395870117264400,3.972264404296875,-0.20926666259765625,-0.016820788383483887,-0.051788270473480225
1761395870136642300,3.991642333984375,-0.11461353302001953,-0.006542086601257324,-0.04371382296085358
1761395870156020200,4.011020263671875,0.230499267578125,-0.019107162952423096,-0.0647670179605484
1761395870175398100,4.030398193359375,0.2317800521850586,-0.0395088791847229,-0.06619174778461456
1761395870194776000,4.049776123046875,-0.17937850952148438,-0.023666083812713623,-0.04984802007675171
1761395870214154000,4.069154052734375,-0.3113374710083008,0.006288290023803711,-0.037226319313049316
1761395870233531600,4.08853173828125,0.21227073669433594,0.002340078353881836,-0.06304118037223816
1761395870252909600,4.10790966796875,0.4664154052734375,-0.03423339128494263,-0.10003893822431564
1761395870272274000,4.12727392578125,-0.2059783935546875,-0.007510781288146973,-0.055115438997745514
1761395870291665400,4.14666552734375,-0.48522090911865234,-0.005466163158416748,-0.02548159658908844
1761395870311043300,4.166043212890625,0.28786563873291016,-0.024704396724700928,-0.0374617725610733
1761395870330421000,4.1854208984375,0.5409116744995117,-0.033655643463134766,-0.08414178341627121
1761395870349799000,4.204798828125,-0.13394451141357422,-0.02249199151992798,-0.04958653450012207
1761395870369176800,4.2241767578125,-0.5404367446899414,0.016430199146270752,-0.04883018136024475
1761395870388541200,4.243541259765625,0.037367820739746094,0.005619406700134277,-0.05207045376300812
1761395870407932400,4.262932373046875,0.5624799728393555,-0.05993974208831787,-0.054578810930252075
1761395870427310300,4.282310302734375,0.19725799560546875,-0.06770354509353638,-0.06075204908847809
1761395870446674700,4.3016748046875,-0.48976802825927734,-0.008898437023162842,-0.048831626772880554
1761395870466066200,4.321066162109375,-0.3004636764526367,0.012398123741149902,-0.058604635298252106
1761395870485444000,4.340444091796875,0.47119903564453125,-0.010765314102172852,-0.07365742325782776
1761395870504822000,4.359822021484375,0.4429616928100586,-0.05940312147140503,-0.07353271543979645
1761395870524199700,4.37919970703125,-0.2739839553833008,-0.0200880765914917,-0.03698384761810303
1761395870543577600,4.39857763671875,-0.47577571868896484,0.008704006671905518,-0.05157564580440521
1761395870562942000,4.41794189453125,0.20705890655517578,0.02655583620071411,-0.059497833251953125
1761395870582333400,4.43733349609375,0.5345640182495117,0.005208790302276611,-0.06378735601902008
1761395870601711000,4.456711181640625,0.013031959533691406,0.005860447883605957,-0.05042104423046112
1761395870621089000,4.476089111328125,-0.49956703186035156,-0.01346898078918457,-0.0383443683385849
1761395870640467000,4.495467041015625,0.0029363632202148438,-0.03511172533035278,-0.07769446820020676
1761395870659844900,4.514844970703125,0.21028900146484375,-0.04456901550292969,-0.10235589742660522
1761395870679222800,4.534222900390625,0.06026458740234375,-0.060600876808166504,-0.06369474530220032
1761395870698600400,4.553600341796875,0.05662059783935547,-0.051963627338409424,-0.033932507038116455
1761395870717978400,4.572978271484375,-0.02119731903076172,-0.025113046169281006,0.004461362957954407
1761395870737356300,4.592356201171875,-0.011491775512695312,-0.020997464656829834,-0.021647408604621887
1761395870756734200,4.611734130859375,0.03882026672363281,-0.02040916681289673,-0.0423874706029892
1761395870776112000,4.631112060546875,0.014982223510742188,-0.009793698787689209,-0.06887274235486984
1761395870795489800,4.65048974609375,0.00360107421875,0.010342419147491455,-0.0683053582906723
1761395870814867700,4.66986767578125,0.004761695861816406,0.022730588912963867,-0.07629139721393585
1761395870834245600,4.68924560546875,0.00722503662109375,0.00243455171585083,-0.05981007218360901
1761395870853623600,4.70862353515625,0.06029701232910156,-0.03860580921173096,-0.05155929923057556
1761395870873001200,4.728001220703125,0.024491310119628906,-0.03393930196762085,-0.05923658609390259
1761395870892379100,4.747379150390625,-0.013781547546386719,-0.020117461681365967,-0.09191083163022995
1761395870911757000,4.766757080078125,0.0065555572509765625,-0.01779460906982422,-0.07660026848316193
1761395870931135000,4.786135009765625,0.030228614807128906,0.0031852126121520996,-0.06737339496612549
1761395870950513000,4.805512939453125,0.01580810546875,0.00307619571685791,-0.07539980113506317
1761395870969890600,4.824890625,0.02557849884033203,-0.024220168590545654,-0.0502905547618866
1761395870989268500,4.8442685546875,0.003966331481933594,-0.02495121955871582,-0.0074799805879592896
1761395871008646400,4.863646484375,0.05790901184082031,-0.04452216625213623,-0.017541170120239258
1761395871028024300,4.8830244140625,0.011383056640625,-0.030878305435180664,-0.02179253101348877
1761395871047402000,4.902402099609375,-0.04660797119140625,-0.004624605178833008,-0.01864825189113617
1761395871066780000,4.92177978515625,0.02093982696533203,-0.017973661422729492,-0.043963149189949036
1761395871086157800,4.94115771484375,0.07845020294189453,-0.023512959480285645,-0.06002804636955261
1761395871105535700,4.96053564453125,-0.01126861572265625,-0.013329386711120605,-0.06787706911563873
1761395871124913700,4.97991357421875,-0.0030946731567382812,-0.007237255573272705,-0.059174731373786926
1761395871144291600,4.99929150390625,0.025774002075195312,-0.018828630447387695,-0.05590096116065979
1761395871163669200,5.018669189453125,0.0438232421875,-0.007965445518493652,-0.05611644685268402
1761395871183047200,5.038047119140625,-0.013939857482910156,0.00008195638656616211,-0.06612332165241241
1761395871202425000,5.057425048828125,0.05213737487792969,-0.029791593551635742,-0.07500830292701721
1761395871221803000,5.076802978515625,0.034320831298828125,-0.025310397148132324,-0.08740349113941193
1761395871241181000,5.096180908203125,-0.043990135192871094,0.015000224113464355,-0.09655414521694183
1761395871260558600,5.11555859375,0.012331008911132812,0.0046544671058654785,-0.0870632454752922
1761395871279936500,5.1349365234375,0.0954275131225586,-0.01883167028427124,-0.05444552004337311
1761395871299314400,5.154314453125,-0.031291961669921875,-0.04467684030532837,-0.009288489818572998
1761395871318692400,5.1736923828125,-0.0037260055541992188,-0.07137417793273926,0.013527944684028625
1761395871338070000,5.193070068359375,0.035857200622558594,-0.052754878997802734,-0.0027439892292022705
1761395871357448000,5.212447998046875,0.033535003662109375,-0.04249715805053711,-0.025771498680114746
1761395871376825900,5.231825927734375,0.0008974075317382812,-0.005768418312072754,-0.06988615542650223
1761395871396203800,5.251203857421875,0.0017414093017578125,0.014631450176239014,-0.027968034148216248
1761395871415581700,5.270581787109375,0.02951812744140625,-0.004564404487609863,-0.04119008779525757
1761395871434959400,5.28995947265625,0.039406776428222656,-0.012499451637268066,-0.045077547430992126
1761395871454337300,5.309337158203125,0.034682273864746094,-0.011853218078613281,-0.07197969406843185
1761395871473715200,5.328715087890625,-0.006527900695800781,0.02380281686782837,-0.08251125365495682
1761395871493093000,5.348093017578125,-0.008899688720703125,0.030632376670837402,-0.0841272622346878
1761395871512470800,5.367470703125,0.05615711212158203,-0.0013779997825622559,-0.07181622087955475
1761395871531848700,5.3868486328125,0.028484344482421875,-0.0015121698379516602,-0.058112844824790955
1761395871551226600,5.4062265625,-0.010961532592773438,-0.015703320503234863,-0.07894033193588257
1761395871570604500,5.4256044921875,0.029984474182128906,-0.04619652032852173,-0.09142662584781647
1761395871589982500,5.444982421875,-0.004852294921875,-0.05059880018234253,-0.07515759021043777
1761395871609360100,5.464360107421875,0.009474754333496094,-0.07216131687164307,-0.04333081841468811
1761395871628738000,5.483738037109375,0.03556251525878906,-0.0684935450553894,-0.007148519158363342
1761395871648116000,5.503115966796875,-0.049564361572265625,-0.040203750133514404,-0.009848088026046753
1761395871667494000,5.522493896484375,-0.037741661071777344,-0.02769005298614502,-0.003940358757972717
1761395871686871800,5.541871826171875,0.1721057891845703,-0.03783059120178223,-0.01774008572101593
1761395871706249500,5.56124951171875,0.12026309967041016,0.02393704652786255,-0.050908640027046204
1761395871725627400,5.58062744140625,-0.051227569580078125,0.04898238182067871,-0.08377008885145187
1761395871745005300,5.60000537109375,-0.1220846176147461,0.06116288900375366,-0.07726901769638062
1761395871764383200,5.61938330078125,0.02278423309326172,0.05134296417236328,-0.03591786324977875
1761395871783761000,5.638760986328125,0.18253707885742188,-0.0012235045433044434,-0.022520363330841064
1761395871803138800,5.658138916015625,0.07411479949951172,-0.054435133934020996,-0.03930272161960602
1761395871822516700,5.677516845703125,-0.141693115234375,-0.03917795419692993,-0.051767632365226746
1761395871841894700,5.696894775390625,-0.08780193328857422,-0.02389603853225708,-0.05799415707588196
1761395871861272600,5.7162724609375,0.18773937225341797,-0.03636711835861206,-0.06262949109077454
1761395871880650200,5.735650146484375,0.11236286163330078,-0.028447329998016357,-0.06812119483947754
1761395871900028200,5.755028076171875,-0.08522415161132812,-0.06723850965499878,-0.021042943000793457
1761395871919406000,5.774406005859375,-0.15014362335205078,-0.050470948219299316,-0.005411714315414429
1761395871938784000,5.793783935546875,0.049872398376464844,-0.034644484519958496,-0.042773813009262085
1761395871958162000,5.813161865234375,0.2417621612548828,-0.036092281341552734,-0.09733504056930542
1761395871977539600,5.83253955078125,0.017724037170410156,-0.03815889358520508,-0.08144088089466095
1761395871996917500,5.85191748046875,-0.20624923706054688,-0.03077632188796997,-0.07499960064888
1761395872016295400,5.87129541015625,0.014166831970214844,-0.03266710042953491,-0.11007528007030487
1761395872035673300,5.89067333984375,0.20330810546875,0.015185952186584473,-0.09611447155475616
1761395872055051300,5.91005126953125,0.08209037780761719,0.04814410209655762,-0.08327136933803558
1761395872074429000,5.929428955078125,-0.17091751098632812,0.06692677736282349,-0.07481303811073303
1761395872093806800,5.948806884765625,-0.10501956939697266,0.04735231399536133,-0.044118836522102356
1761395872113184800,5.968184814453125,0.15180587768554688,-0.0008475184440612793,-0.059627465903759
1761395872132562700,5.987562744140625,0.22036457061767578,-0.013618946075439453,-0.05040930211544037
1761395872151940600,6.006940673828125,-0.04085731506347656,-0.04778409004211426,-0.032305553555488586
1761395872171318300,6.026318359375,-0.29622364044189453,-0.0360528826713562,0.010579973459243774
1761395872190696200,6.0456962890625,0.07435131072998047,-0.06664282083511353,0.0034678131341934204
1761395872210074000,6.06507421875,0.35700416564941406,-0.05344146490097046,0.007573053240776062
1761395872229452000,6.0844521484375,0.032250404357910156,-0.03763759136199951,0.010133057832717896
1761395872248829700,6.10382958984375,-0.4617595672607422,-0.0034775137901306152,0.030286401510238647
1761395872268207600,6.12320751953125,-0.046156883239746094,0.04424476623535156,-0.014856427907943726
1761395872287585500,6.14258544921875,0.5940561294555664,0.006953179836273193,-0.1061471700668335
1761395872306950000,6.161949951171875,0.09070491790771484,0.0054128170013427734,-0.10669979453086853
1761395872326341400,6.18134130859375,-0.5144052505493164,-0.02906578779220581,-0.051201120018959045
1761395872345719000,6.200718994140625,-0.0803670883178711,-0.058597445487976074,-0.024153977632522583
1761395872365097000,6.220096923828125,0.5205621719360352,-0.10750865936279297,-0.02354659140110016
1761395872384475000,6.239474853515625,0.3169431686401367,-0.11154055595397949,-0.06276202201843262
1761395872403852800,6.258852783203125,-0.4166240692138672,-0.04159259796142578,-0.06432104855775833
1761395872423230700,6.278230712890625,-0.3679075241088867,0.020895659923553467,-0.0715123862028122
1761395872442608400,6.2976083984375,0.33222103118896484,0.015323460102081299,-0.12205768376588821
1761395872461986300,6.316986328125,0.46892452239990234,-0.006322979927062988,-0.11446698009967804
1761395872481350700,6.3363505859375,-0.16509437561035156,0.0005644559860229492,-0.09272576868534088
1761395872500742100,6.3557421875,-0.5163202285766602,0.0033988356590270996,-0.01274159550666809
1761395872520119800,6.375119873046875,0.08909225463867188,-0.007584571838378906,-0.026738151907920837
1761395872539497700,6.394497802734375,0.5603504180908203,-0.022023320198059082,-0.08790095895528793
1761395872558875600,6.413875732421875,0.12531089782714844,0.010442495346069336,-0.14150141179561615
1761395872578253600,6.433253662109375,-0.5124902725219727,0.034425437450408936,-0.09071862697601318
1761395872597618000,6.452617919921875,-0.2621946334838867,0.022203147411346436,-0.015407130122184753
1761395872617009200,6.472009033203125,0.5171928405761719,-0.04409134387969971,-0.031843625009059906
1761395872636387000,6.491386962890625,0.39972877502441406,-0.05849802494049072,-0.020925194025039673
1761395872655765000,6.510764892578125,-0.35885047912597656,-0.027455151081085205,0.001758679747581482
1761395872675143000,6.530142822265625,-0.02242279052734375,-0.012826681137084961,-0.01837475597858429
1761395872694520600,6.5495205078125,0.0004024505615234375,0.0028010010719299316,-0.014970272779464722
1761395872713898500,6.5688984375,0.006351470947265625,0.004546046257019043,-0.01714138686656952
1761395872733276400,6.5882763671875,0.05707073211669922,-0.02109682559967041,-0.024144023656845093
1761395872752654300,6.607654296875,0.0017671585083007812,-0.013294100761413574,-0.051697298884391785
1761395872772032300,6.6270322265625,-0.015143394470214844,-0.006293237209320068,-0.06096251308917999
1761395872791410000,6.646409912109375,0.023103713989257812,-0.007825076580047607,-0.06882207095623016
1761395872810787800,6.665787841796875,0.03199958801269531,-0.03787916898727417,-0.07009938359260559
1761395872830165800,6.685165771484375,0.005462646484375,-0.036242783069610596,-0.04093910753726959
1761395872849543700,6.704543701171875,0.03192138671875,-0.03973698616027832,-0.05541558563709259
1761395872868921600,6.723921630859375,0.030284881591796875,0.0030567049980163574,-0.08088459074497223
1761395872888299500,6.743299560546875,0.013364791870117188,0.012204110622406006,-0.05450640618801117
1761395872907677200,6.76267724609375,-0.0007801055908203125,-0.019156455993652344,-0.041369080543518066
1761395872927055000,6.78205517578125,0.06523895263671875,-0.025753319263458252,-0.05535225570201874
1761395872946433000,6.80143310546875,0.041942596435546875,0.01794743537902832,-0.07279441505670547
1761395872965811000,6.82081103515625,-0.015546798706054688,0.02101999521255493,-0.09301137924194336
1761395872985188600,6.840188720703125,0.025112152099609375,0.011910736560821533,-0.07451976835727692
1761395873004566500,6.85956640625,0.00005817413330078125,0.01939445734024048,-0.04886491596698761
1761395873023944400,6.8789443359375,-0.000072479248046875,0.004355251789093018,-0.06520766019821167
1761395873043322400,6.898322265625,0.03870677947998047,-0.03413736820220947,-0.06959951668977737
1761395873062700300,6.9177001953125,-0.010415077209472656,-0.042969465255737305,-0.06060706079006195
1761395873082078000,6.937077880859375,0.031416893005371094,-0.04447972774505615,-0.054487504065036774
1761395873101456000,6.956455810546875,0.042179107666015625,-0.04648929834365845,-0.03909851610660553
1761395873120833800,6.975833740234375,0.013463973999023438,-0.054812610149383545,0.002895861864089966
1761395873140211700,6.995211669921875,0.017049789428710938,-0.041759610176086426,0.0034401118755340576
1761395873159589400,7.01458935546875,0.019374847412109375,-0.06119900941848755,0.001798003911972046
1761395873178967300,7.03396728515625,0.012152671813964844,-0.054036498069763184,0.009344413876533508
1761395873198345200,7.05334521484375,-0.016788482666015625,-0.02755957841873169,-0.01802133023738861
1761395873217723100,7.07272314453125,0.020130157470703125,-0.014392197132110596,-0.023769035935401917
1761395873237101000,7.09210107421875,0.045050621032714844,0.004600346088409424,-0.01932637393474579
1761395873256478700,7.111478759765625,-0.032029151916503906,0.061744749546051025,-0.0327945202589035
1761395873275856600,7.130856689453125,0.008350372314453125,0.08805418014526367,-0.08306819945573807
1761395873295234600,7.150234619140625,0.04469585418701172,0.06841129064559937,-0.07910667359828949
1761395873314612500,7.169612548828125,0.008977890014648438,0.03915393352508545,-0.1121867448091507
1761395873333990400,7.188990478515625,0.0561065673828125,-0.00030881166458129883,-0.08249121904373169
1761395873353368000,7.2083681640625,0.06536483764648438,-0.05783665180206299,-0.08837113529443741
1761395873372746000,7.22774609375,-0.019632339477539062,-0.06388789415359497,-0.12325678765773773
1761395873392124000,7.2471240234375,0.015612602233886719,-0.0935894250869751,-0.047347888350486755
1761395873411501800,7.266501708984375,0.0062046051025390625,-0.10476642847061157,-0.044780850410461426
1761395873430879700,7.285879638671875,-0.03365612030029297,-0.06802386045455933,-0.041117891669273376
1761395873450257400,7.30525732421875,0.04183006286621094,-0.07933783531188965,-0.03285829722881317
1761395873469635300,7.32463525390625,0.06917381286621094,-0.048105061054229736,-0.03585340082645416
1761395873489013200,7.34401318359375,-0.0002613067626953125,-0.02952331304550171,-0.017481014132499695
1761395873508391200,7.36339111328125,-0.012592315673828125,0.009223103523254395,-0.01377764344215393
1761395873527769000,7.38276904296875,0.019758224487304688,0.040900349617004395,-0.04073309898376465
1761395873547146800,7.402146728515625,0.05594348907470703,0.046626389026641846,-0.05816370248794556
1761395873566524700,7.421524658203125,-0.014998435974121094,0.051252663135528564,-0.08008235692977905
1761395873585902600,7.440902587890625,-0.02348613739013672,0.05565875768661499,-0.06721120327711105
1761395873605280500,7.460280517578125,0.001861572265625,0.035299718379974365,-0.059910669922828674
1761395873624658400,7.479658447265625,0.044060707092285156,-0.0014725923538208008,-0.08206190913915634
1761395873644036000,7.4990361328125,-0.038718223571777344,-0.0023910999298095703,-0.014494448900222778
1761395873663414000,7.5184140625,-0.06739234924316406,-0.03318893909454346,-0.0013008564710617065
1761395873682792000,7.5377919921875,0.16775798797607422,-0.08069926500320435,0.015734851360321045
1761395873702169900,7.557169921875,0.1473865509033203,-0.07697993516921997,0.021489217877388
1761395873721547500,7.576547607421875,-0.07558727264404297,-0.07122331857681274,0.036297574639320374
1761395873740925400,7.595925537109375,-0.10333824157714844,-0.04947859048843384,0.01852498948574066
1761395873760303400,7.615303466796875,0.051131248474121094,-0.025757253170013428,0.003440767526626587
1761395873779681300,7.634681396484375,0.16510963439941406,-0.01616007089614868,-0.013399645686149597
1761395873799059200,7.65405908203125,0.024791717529296875,-0.005342721939086914,-0.0188799649477005
1761395873818436900,7.673436767578125,-0.08751392364501953,-0.02648913860321045,-0.009549453854560852
1761395873837814800,7.692814697265625,-0.06688213348388672,-0.028425157070159912,-0.061177656054496765
1761395873857192700,7.712192626953125,0.23096847534179688,-0.03889870643615723,-0.11163058876991272
1761395873876570600,7.731570556640625,0.09099388122558594,0.002410709857940674,-0.18757446110248566
1761395873895948500,7.750948486328125,-0.18860816955566406,0.02983647584915161,-0.14606386423110962
1761395873915326200,7.770326171875,-0.1180419921875,0.042283594608306885,-0.06014271080493927
1761395873934704000,7.7897041015625,0.12285327911376953,0.010703086853027344,-0.044554129242897034
1761395873954082000,7.80908203125,0.18041706085205078,0.031730592250823975,-0.059080079197883606
1761395873973460000,7.8284599609375,-0.024562835693359375,0.02687746286392212,-0.0798439234495163
1761395873992838000,7.847837890625,-0.1624603271484375,0.010742545127868652,-0.05885528028011322
1761395874012215600,7.867215576171875,-0.014767646789550781,0.00046813488006591797,-0.08293666690587997
1761395874031593500,7.886593505859375,0.17440414428710938,-0.004865765571594238,-0.052110686898231506
1761395874050971400,7.905971435546875,0.12518978118896484,-0.026330292224884033,-0.04861840605735779
1761395874070349300,7.925349365234375,-0.11417007446289062,-0.0533716082572937,-0.0792563334107399
1761395874089727200,7.944727294921875,-0.16342926025390625,-0.05544006824493408,-0.03714229166507721
1761395874109105000,7.96410498046875,0.15189266204833984,-0.07744663953781128,-0.021012336015701294
1761395874128482800,7.98348291015625,0.24542236328125,-0.06332159042358398,-0.0022658109664916992
1761395874147860700,8.00286083984375,-0.05440330505371094,-0.04942941665649414,0.003826513886451721
1761395874167238700,8.02223876953125,-0.2643556594848633,-0.024289429187774658,0.041790008544921875
1761395874186616300,8.0416162109375,-0.024659156799316406,-0.024449586868286133,0.023383304476737976
1761395874205994200,8.060994140625,0.41187477111816406,-0.04780447483062744,-0.03491942584514618
1761395874225372200,8.0803720703125,0.12566089630126953,-0.05529427528381348,-0.06394778192043304
1761395874244750000,8.09975,-0.4677553176879883,-0.005269348621368408,-0.03821633756160736
1761395874264128000,8.1191279296875,-0.14315319061279297,0.0058705806732177734,-0.050035297870635986
1761395874283505700,8.138505615234376,0.5518989562988281,0.027473092079162598,-0.07498632371425629
1761395874302883600,8.157883544921875,0.18616580963134766,0.03721284866333008,-0.04067501425743103
1761395874322261500,8.177261474609375,-0.536189079284668,0.01438218355178833,-0.029285132884979248
1761395874341625900,8.1966259765625,-0.19249629974365234,0.03286486864089966,-0.029651090502738953
1761395874361017300,8.216017333984375,0.5426845550537109,-0.009952425956726074,-0.11541469395160675
1761395874380395000,8.23539501953125,0.34615612030029297,-0.026108384132385254,-0.11145462840795517
1761395874399759600,8.254759521484376,-0.4233131408691406,-0.023519158363342285,-0.031513914465904236
1761395874419150800,8.27415087890625,-0.3969697952270508,-0.02347099781036377,0.021212488412857056
1761395874438528800,8.29352880859375,0.36517906188964844,-0.03916376829147339,0.001630142331123352
1761395874457906700,8.31290673828125,0.49228858947753906,-0.026919662952423096,-0.045570939779281616
1761395874477284400,8.332284423828124,-0.16434955596923828,-0.02714914083480835,-0.06608294695615768
1761395874496662300,8.351662353515625,-0.5180444717407227,-0.010366559028625488,-0.020766228437423706
1761395874516026600,8.371026611328125,0.02603435516357422,-0.018262088298797607,-0.037665173411369324
1761395874535418000,8.390418212890625,0.5987462997436523,-0.029466569423675537,-0.045425623655319214
1761395874554796000,8.409796142578125,0.1423778533935547,-0.04847288131713867,-0.05516583472490311
1761395874574160400,8.429160400390625,-0.5145511627197266,-0.009237706661224365,-0.045860499143600464
1761395874593551600,8.448551513671875,-0.25127410888671875,-0.002312004566192627,-0.04792281240224838
1761395874612929500,8.467929443359376,0.5051670074462891,-0.011435449123382568,-0.08895061910152435
1761395874632307500,8.487307373046875,0.3681812286376953,0.005722701549530029,-0.09213800728321075
1761395874651685400,8.506685302734375,-0.33495426177978516,-0.006052076816558838,-0.044923290610313416
1761395874671063000,8.52606298828125,-0.02235126495361328,-0.0009095072746276855,-0.03389096260070801
1761395874690441000,8.54544091796875,0.00033473968505859375,-0.024046719074249268,-0.04727880656719208
1761395874709819000,8.56481884765625,0.02433490753173828,-0.005658090114593506,-0.021491438150405884
1761395874729196800,8.58419677734375,0.01963329315185547,-0.012629866600036621,-0.04146742820739746
1761395874748574700,8.60357470703125,0.0184783935546875,-0.00904148817062378,-0.03988228738307953
1761395874767952400,8.622952392578124,-0.011455535888671875,-0.01157224178314209,-0.03910858929157257
1761395874787330300,8.642330322265625,0.013922691345214844,-0.038107097148895264,-0.028661102056503296
1761395874806708200,8.661708251953126,0.0439910888671875,-0.05099970102310181,-0.03531455993652344
1761395874826086100,8.681086181640625,0.004086494445800781,-0.01762145757675171,-0.044830262660980225
1761395874845463800,8.7004638671875,0.013661384582519531,-0.010426938533782959,-0.07190757244825363
1761395874864841700,8.719841796875,0.020929336547851562,-0.02638840675354004,-0.06129802018404007
1761395874884219600,8.7392197265625,0.041129112243652344,-0.007425248622894287,-0.04737541079521179
1761395874903597600,8.75859765625,0.011208534240722656,0.0031702518463134766,-0.028200820088386536
1761395874922975500,8.7779755859375,0.025568008422851562,0.015355408191680908,-0.038620755076408386
1761395874942353400,8.797353515625,0.0052280426025390625,0.021435320377349854,-0.044423580169677734
1761395874961731000,8.81673095703125,-0.011610984802246094,-0.0027216076850891113,-0.023590385913848877
1761395874981109000,8.83610888671875,0.027034759521484375,-0.0382004976272583,-0.022492438554763794
1761395875000487000,8.85548681640625,0.037448883056640625,-0.02054983377456665,-0.03078785538673401
1761395875019864800,8.87486474609375,0.007598876953125,-0.00961911678314209,-0.05432713031768799
1761395875039242800,8.89424267578125,0.00440216064453125,-0.037342190742492676,-0.06494123488664627
1761395875058620400,8.913620361328125,0.006642341613769531,-0.03743976354598999,-0.046987369656562805
1761395875077998300,8.932998291015625,0.00789642333984375,-0.04269230365753174,-0.01652805507183075
1761395875097376300,8.952376220703124,0.04126167297363281,-0.032914161682128906,-0.01666739583015442
1761395875116754200,8.971754150390625,-0.011644363403320312,-0.011397838592529297,-0.011871829628944397
1761395875136131800,8.9911318359375,-0.01653289794921875,-0.010771393775939941,-0.03684227168560028
1761395875155509800,9.010509765625,0.06255626678466797,-0.02446204423904419,-0.020672127604484558
1761395875174887700,9.0298876953125,0.012286186218261719,-0.025893568992614746,-0.03936268389225006
1761395875194265600,9.049265625,0.029491424560546875,-0.034556567668914795,-0.061136290431022644
1761395875213643500,9.0686435546875,0.010000228881835938,-0.018154919147491455,-0.041403934359550476
1761395875233021400,9.088021484375,-0.030796051025390625,0.022858381271362305,-0.042841844260692596
1761395875252399000,9.107399169921875,0.040981292724609375,0.019662141799926758,-0.06346164643764496
1761395875271777000,9.126777099609376,0.02662944793701172,0.011172592639923096,-0.0566839724779129
1761395875291155000,9.146155029296875,-0.021322250366210938,-0.004797816276550293,-0.06189296394586563
1761395875310532900,9.165532958984375,0.0664520263671875,-0.016803264617919922,-0.06287349760532379
1761395875329910500,9.18491064453125,-0.0009984970092773438,-0.014064490795135498,-0.04411537945270538
1761395875349288400,9.204288330078125,0.01960277557373047,-0.02888047695159912,-0.052045658230781555
1761395875368666400,9.223666259765626,0.013718605041503906,-0.03077012300491333,-0.04003612697124481
1761395875388044300,9.243044189453125,0.007450103759765625,-0.03458136320114136,-0.02144712209701538
1761395875407422200,9.262422119140625,0.028882980346679688,-0.0075533390045166016,-0.02516050636768341
1761395875426799900,9.2817998046875,0.012142181396484375,-0.007729649543762207,-0.04079289734363556
1761395875446177800,9.301177734375,-0.0010595321655273438,-0.0038001537322998047,-0.04061320424079895
1761395875465555700,9.3205556640625,0.03354930877685547,-0.02031230926513672,-0.032381728291511536
1761395875484933600,9.33993359375,0.02185535430908203,-0.028388798236846924,-0.035497620701789856
1761395875504311600,9.3593115234375,0.027832984924316406,-0.029698431491851807,-0.03761540353298187
1761395875523689500,9.378689453125,0.02650737762451172,-0.022575020790100098,-0.05321887135505676
1761395875543067100,9.398067138671875,0.014611244201660156,-0.025988280773162842,-0.03575383126735687
1761395875562445000,9.417445068359376,0.0001544952392578125,0.006752312183380127,-0.027277201414108276
1761395875581823000,9.436822998046875,-0.009494781494140625,0.014435887336730957,-0.040095895528793335
1761395875601201000,9.456200927734375,0.07111358642578125,-0.020732343196868896,-0.07016070932149887
1761395875620578600,9.47557861328125,-0.011893272399902344,-0.005049526691436768,-0.04516804218292236
1761395875639956500,9.49495654296875,-0.009515762329101562,-0.015213370323181152,-0.04561835527420044
1761395875659334400,9.51433447265625,0.16675662994384766,-0.03825145959854126,-0.04510693997144699
1761395875678712300,9.53371240234375,-0.1475200653076172,-0.0017636418342590332,-0.0349140465259552
1761395875698090200,9.55309033203125,-0.10690593719482422,0.0040132999420166016,-0.014705821871757507
1761395875717468200,9.57246826171875,0.17725276947021484,-0.023550093173980713,-0.03954857587814331
1761395875736845800,9.591845703125,0.14134693145751953,-0.03089761734008789,-0.04764619469642639
1761395875756223700,9.6112236328125,-0.11189746856689453,-0.004625201225280762,-0.03002561628818512
1761395875775601700,9.6306015625,-0.08077335357666016,0.010929226875305176,-0.01679927110671997
1761395875794979600,9.6499794921875,0.06077098846435547,-0.01135319471359253,-0.01360572874546051
1761395875814357200,9.669357177734375,0.17481517791748047,-0.03704941272735596,-0.04084382951259613
1761395875833735200,9.688735107421875,0.022403717041015625,-0.011855244636535645,-0.01637992262840271
1761395875853113000,9.708113037109374,-0.1561756134033203,-0.01775902509689331,-0.016973361372947693
1761395875872491000,9.727490966796875,-0.023038864135742188,-0.01345360279083252,-0.015005022287368774
1761395875891869000,9.746868896484376,0.17229938507080078,-0.027450919151306152,-0.029554039239883423
1761395875911246800,9.766246826171875,0.1339588165283203,-0.02844846248626709,-0.03194953501224518
1761395875930624500,9.78562451171875,-0.1311054229736328,0.0020905137062072754,-0.047274477779865265
1761395875950002400,9.80500244140625,-0.13004493713378906,0.005445003509521484,-0.030908122658729553
1761395875969380400,9.82438037109375,0.1556720733642578,-0.03787827491760254,-0.06153382360935211
1761395875988758300,9.84375830078125,0.1927652359008789,-0.022656679153442383,-0.04371419548988342
1761395876008136200,9.86313623046875,-0.12114810943603516,-0.02236032485961914,-0.03087356686592102
1761395876027513900,9.882513916015625,-0.0971841812133789,-0.03171330690383911,-0.04243817180395126
1761395876046891800,9.901891845703124,0.04394721984863281,0.01048189401626587,-0.07931143045425415
1761395876066269700,9.921269775390625,0.1399545669555664,0.008729696273803711,-0.09299734234809875
1761395876085647600,9.940647705078124,0.12668132781982422,0.001252591609954834,-0.06629510223865509
1761395876105025500,9.960025634765625,-0.15486812591552734,-0.01044076681137085,-0.03557431697845459
1761395876124403200,9.9794033203125,-0.11309814453125,0.008925139904022217,-0.028583407402038574
1761395876143781000,9.998781005859374,0.1912374496459961,0.019450604915618896,-0.04322443902492523
1761395876163159000,10.018158935546875,0.24537372589111328,-0.008773982524871826,-0.05753978341817856
1761395876182537000,10.037536865234374,-0.15970230102539062,-0.0293387770652771,-0.03370530903339386
1761395876201915000,10.056914794921875,-0.2795867919921875,-0.02549731731414795,0.01520906388759613
1761395876221292500,10.07629248046875,0.17247581481933594,-0.061627984046936035,0.0052932798862457275
1761395876240670500,10.09567041015625,0.4122276306152344,-0.04607856273651123,-0.028877750039100647
1761395876260034800,10.115034912109374,-0.11142826080322266,-0.03794008493423462,-0.05364615470170975
1761395876279426300,10.13442626953125,-0.49141407012939453,-0.021312296390533447,-0.009215295314788818
1761395876298804000,10.153803955078125,0.1554880142211914,0.0008676648139953613,0.002651304006576538
1761395876318182000,10.173181884765626,0.5942697525024414,-0.028148353099822998,-0.042375192046165466
1761395876337559800,10.192559814453125,-0.13309764862060547,-0.021621763706207275,-0.01559700071811676
1761395876356937700,10.211937744140625,-0.5129489898681641,-0.014890015125274658,-0.01991121470928192
1761395876376302000,10.231302001953125,0.001918792724609375,0.03366589546203613,-0.04245348274707794
1761395876395693600,10.250693603515625,0.5944061279296875,-0.027239441871643066,-0.07943031191825867
1761395876415071200,10.2700712890625,0.1691732406616211,-0.034068942070007324,-0.07713868468999863
1761395876434435600,10.289435546875,-0.50006103515625,-0.0026050209999084473,-0.028126850724220276
1761395876453827000,10.3088271484375,-0.28201770782470703,0.022685468196868896,-0.01497282087802887
1761395876473205000,10.328205078125,0.49957275390625,-0.00946587324142456,-0.05605404078960419
1761395876492583000,10.3475830078125,0.4071054458618164,0.0007655024528503418,-0.05920147895812988
1761395876511960600,10.366960693359376,-0.3178272247314453,0.0012801885604858398,-0.04761487990617752
1761395876531338500,10.38633837890625,-0.4881763458251953,-0.004526913166046143,0.013591259717941284
1761395876550702800,10.405702880859375,0.24068832397460938,-0.026335179805755615,-0.006629526615142822
1761395876570094300,10.42509423828125,0.5598678588867188,-0.060749948024749756,-0.047333985567092896
1761395876589472300,10.44447216796875,0.014559745788574219,-0.0632743239402771,-0.06314730644226074
1761395876608850000,10.463849853515624,-0.5359001159667969,-0.028677403926849365,0.018996715545654297
1761395876628227800,10.483227783203125,-0.13660144805908203,-0.05083423852920532,-0.004043787717819214
1761395876647605800,10.502605712890626,0.4596691131591797,-0.11253583431243896,0.015826910734176636
1761395876666983700,10.521983642578125,0.4294910430908203,-0.20517927408218384,-0.1231147050857544
1761395876686361600,10.541361572265625,0.10777473449707031,-0.03603994846343994,-0.0010468065738677979
1761395876725117200,10.5801171875,-0.20568466186523438,0.21850132942199707,-0.028207525610923767
1761395876744495000,10.5994951171875,-0.1787872314453125,0.11947894096374512,0.013005539774894714
1761395876763873000,10.618873046875,-0.13591957092285156,0.05702883005142212,0.038578301668167114
1761395876783251000,10.6382509765625,-0.008854866027832031,-0.1193276047706604,0.013200744986534119
1761395876802628600,10.657628662109374,0.46729278564453125,-0.1373726725578308,-0.131571426987648
