time,seconds_elapsed,z,y,x
1761395866270307800,0.125307861328125,-0.008093725889921188,0.010231691412627697,0.0007635590736754239
1761395866290073000,0.145072998046875,0.0029015245381742716,0.006413896102458239,-0.007482878863811493
1761395866309838300,0.16483837890625,0.011606098152697086,0.01252236869186163,-0.016187451779842377
1761395866329603800,0.184603759765625,0.009315420873463154,0.01588202826678753,-0.01038440316915512
1761395866349369300,0.204369384765625,-0.0010689827613532543,0.016645587980747223,-0.007177455350756645
1761395866369134600,0.224134521484375,-0.00916270911693573,0.021226942539215088,-0.01435491070151329
1761395866388900000,0.243900146484375,-0.0030542362947016954,0.032222192734479904,-0.018630841746926308
1761395866408665300,0.263665283203125,0.0029015245381742716,0.02214321307837963,-0.007482878863811493
1761395866428430800,0.283430908203125,0.009315420873463154,0.014965757727622986,-0.0004581354442052543
1761395866448196000,0.303196044921875,0.0032069480512291193,0.003970507066696882,-0.0004581354442052543
1761395866467961600,0.322961669921875,-0.0021379655227065086,-0.0030542362947016954,0.0038177953101694584
1761395866487638000,0.342637939453125,-0.005803049076348543,-0.0038177953101694584,0.017409147694706917
1761395866507016000,0.362015869140625,-0.005803049076348543,-0.001374406274408102,0.013744063675403595
1761395866526393900,0.381393798828125,0.0038177953101694584,0.0015271181473508477,-0.001374406274408102
1761395866545771800,0.400771728515625,0.014813045971095562,-0.0022906772792339325,0.0029015245381742716
1761395866565149700,0.420149658203125,0.01725643500685692,-0.011147962883114815,0.0016798300202935934
1761395866584527400,0.43952734375,0.012980503961443901,-0.014202198944985867,-0.004734066314995289
1761395866603905300,0.4589052734375,0.007788302376866341,-0.006261184345930815,0.0004581354442052543
1761395866623283200,0.478283203125,0.007177455350756645,-0.004275931045413017,-0.0004581354442052543
1761395866642661000,0.4976611328125,0.009620844386518002,-0.0036650835536420345,0.008857285603880882
1761395866662039000,0.5170390625,0.01175880990922451,-0.004275931045413017,0.006261184345930815
1761395866681417000,0.5364169921875,0.014202198944985867,-0.00259610079228878,0.0004581354442052543
1761395866700795000,0.555794921875,0.016645587980747223,0.0032069480512291193,0.006261184345930815
1761395866720172500,0.575172607421875,0.012980503961443901,-0.0009162708884105086,0.0038177953101694584
1761395866739550500,0.594550537109375,0.005955760832875967,-0.0021379655227065086,0.0010689827613532543
1761395866758928400,0.613928466796875,0.0038177953101694584,0.005803049076348543,0.00916270911693573
1761395866778306300,0.633306396484375,0.004428642801940441,0.007482878863811493,0.012216945178806782
1761395866797684200,0.652684326171875,0.003970507066696882,0.0016798300202935934,0.01832541823387146
1761395866817062000,0.672061767578125,0.002748812548816204,-0.001374406274408102,0.01435491070151329
1761395866836439800,0.691439697265625,0.00015271181473508477,0.004123218823224306,0.00015271181473508477
1761395866855817700,0.710817626953125,-0.0038177953101694584,0.006261184345930815,0.0010689827613532543
1761395866875195600,0.730195556640625,-0.003359660040587187,0.0035123717971146107,0.010995250195264816
1761395866894573600,0.749573486328125,-0.0021379655227065086,-0.0029015245381742716,0.014049487188458443
1761395866913951500,0.768951416015625,-0.001374406274408102,0.005955760832875967,0.004734066314995289
1761395866933329200,0.7883291015625,-0.001374406274408102,0.010537114925682545,0.004123218823224306
1761395866952707000,0.80770703125,0.0016798300202935934,0.009468132629990578,0.00259610079228878
1761395866972085000,0.8270849609375,0.0035123717971146107,0.005803049076348543,-0.0065666078589856625
1761395866991463000,0.846462890625,0.005650337319821119,0.0036650835536420345,-0.005955760832875967
1761395867010840800,0.8658408203125,0.010537114925682545,0.003359660040587187,0.007330167107284069
1761395867030218500,0.885218505859375,0.010842538438737392,-0.004123218823224306,0.0022906772792339325
1761395867049596400,0.904596435546875,0.012064233422279358,-0.007177455350756645,-0.0038177953101694584
1761395867068974300,0.923974365234375,0.00519220158457756,-0.007330167107284069,0.013744063675403595
1761395867088352300,0.943352294921875,0.0050394898280501366,0.012675080448389053,0.016492875292897224
1761395867107730200,0.962730224609375,0.0010689827613532543,0.007482878863811493,0.013438640162348747
1761395867127108000,0.982108154296875,0.0029015245381742716,0.0030542362947016954,0.0032069480512291193
1761395867146485800,1.00148583984375,0.008551862090826035,0.0018325417768210173,0.007941014133393764
1761395867165863700,1.02086376953125,0.012216945178806782,-0.0021379655227065086,0.011911521665751934
1761395867185241600,1.04024169921875,0.0065666078589856625,-0.011911521665751934,0.004123218823224306
1761395867204619500,1.05961962890625,0.001985253533348441,-0.010078979656100273,-0.006719320081174374
1761395867223997400,1.07899755859375,0.004734066314995289,0.005803049076348543,-0.0038177953101694584
1761395867243375000,1.098375,0.00259610079228878,0.010842538438737392,-0.004428642801940441
1761395867262753000,1.1177529296875,-0.006261184345930815,0.00030542362947016954,-0.007635590620338917
1761395867282131000,1.137130859375,-0.012064233422279358,-0.004734066314995289,0.0035123717971146107
1761395867301508900,1.1565087890625,-0.007482878863811493,-0.0038177953101694584,0.0035123717971146107
1761395867320888800,1.175888916015625,-0.001374406274408102,-0.004581354558467865,0.004734066314995289
1761395867340264700,1.1952646484375,0.0024433890357613564,0.005650337319821119,0.02076880633831024
1761395867359642400,1.214642333984375,0.00030542362947016954,0.0050394898280501366,0.01710372418165207
1761395867379020300,1.234020263671875,-0.001985253533348441,0.007788302376866341,0.008093725889921188
1761395867398398200,1.253398193359375,-0.004123218823224306,0.006261184345930815,-0.0004581354442052543
1761395867417776000,1.272776123046875,-0.007177455350756645,-0.005803049076348543,-0.007941014133393764
1761395867437154000,1.292154052734375,-0.007177455350756645,-0.0035123717971146107,0.007177455350756645
1761395867456532000,1.311531982421875,-0.00259610079228878,0.00259610079228878,0.007482878863811493
1761395867475909600,1.33090966796875,-0.001374406274408102,0.00015271181473508477,0.005650337319821119
1761395867495287600,1.35028759765625,0.0004581354442052543,0.0006108472589403391,0.005344913341104984
1761395867514665500,1.36966552734375,-0.001374406274408102,-0.0015271181473508477,-0.005650337319821119
1761395867534043400,1.38904345703125,-0.0032069480512291193,0.0006108472589403391,-0.007024743594229221
1761395867553421300,1.40842138671875,-0.005344913341104984,-0.00015271181473508477,0.004734066314995289
1761395867572799000,1.427799072265625,-0.0029015245381742716,0.001374406274408102,0.010995250195264816
1761395867592177000,1.447177001953125,0.0016798300202935934,0,-0.0004581354442052543
1761395867611554800,1.466554931640625,0.005344913341104984,-0.005803049076348543,-0.001374406274408102
1761395867630932700,1.4859326171875,0.0050394898280501366,-0.00030542362947016954,0.0038177953101694584
1761395867650310700,1.505310546875,-0.0010689827613532543,-0.004275931045413017,-0.0065666078589856625
1761395867669688600,1.5246884765625,-0.0016798300202935934,-0.002748812548816204,-0.0007635590736754239
1761395867689066200,1.544066162109375,0.0016798300202935934,-0.00015271181473508477,0.009468132629990578
1761395867708444200,1.563444091796875,0.007788302376866341,0.002748812548816204,0.009468132629990578
1761395867727822000,1.582822021484375,0.0068720318377017975,0.00519220158457756,0.0065666078589856625
1761395867747200000,1.602199951171875,0.0007635590736754239,-0.0024433890357613564,-0.0050394898280501366
1761395867766577700,1.62157763671875,-0.00259610079228878,-0.007024743594229221,-0.006413896102458239
1761395867786051600,1.641051513671875,0.00030542362947016954,-0.0036650835536420345,0.0065666078589856625
1761395867805333500,1.66033349609375,0.0032069480512291193,0.008399149402976036,0.0065666078589856625
1761395867824711400,1.67971142578125,0.0016798300202935934,0.007177455350756645,0.001985253533348441
1761395867844089300,1.69908935546875,-0.001374406274408102,0.001985253533348441,0.0050394898280501366
1761395867863467300,1.71846728515625,-0.0016798300202935934,-0.006719320081174374,0.0004581354442052543
1761395867882845000,1.737844970703125,-0.001985253533348441,-0.004581354558467865,-0.0032069480512291193
1761395867902222800,1.757222900390625,0.00015271181473508477,0.004123218823224306,-0.00015271181473508477
1761395867940978700,1.795978759765625,0.001985253533348441,0.004581354558467865,0.001374406274408102
1761395867960356600,1.815356689453125,0.0007635590736754239,-0.0012216945178806782,0.0010689827613532543
1761395867979734300,1.834734375,-0.001985253533348441,-0.006719320081174374,-0.006108472589403391
1761395867999112200,1.8541123046875,-0.0035123717971146107,-0.00030542362947016954,0.0010689827613532543
1761395868018490000,1.873489990234375,-0.0029015245381742716,-0.003970507066696882,0.0022906772792339325
1761395868037868000,1.892867919921875,-0.00259610079228878,-0.00519220158457756,0.0035123717971146107
1761395868057246000,1.912245849609375,0.0016798300202935934,0.008093725889921188,0.009773556143045425
1761395868076624000,1.931623779296875,0.0022906772792339325,0.00992626789957285,0.010689826682209969
1761395868096001500,1.95100146484375,-0.00030542362947016954,0.0010689827613532543,0.0038177953101694584
1761395868115379500,1.97037939453125,0.00015271181473508477,-0.002748812548816204,0.00259610079228878
1761395868134757400,1.98975732421875,0.0029015245381742716,0.0068720318377017975,0.0038177953101694584
1761395868154135300,2.00913525390625,0.0016798300202935934,0.00519220158457756,0.0035123717971146107
1761395868173513200,2.02851318359375,-0.004275931045413017,-0.005497625097632408,0.0004581354442052543
1761395868192891000,2.047890869140625,-0.006719320081174374,-0.004428642801940441,0.0032069480512291193
1761395868212268800,2.067268798828125,-0.0029015245381742716,-0.002748812548816204,-0.0007635590736754239
1761395868231646700,2.086646728515625,-0.0004581354442052543,-0.005497625097632408,-0.0038177953101694584
1761395868251024600,2.106024658203125,0.0016798300202935934,-0.0006108472589403391,-0.010689826682209969
1761395868270484200,2.125484130859375,0.0035123717971146107,-0.0021379655227065086,-0.007482878863811493
1761395868309144800,2.164144775390625,-0.00030542362947016954,-0.0030542362947016954,0.008551862090826035
1761395868328536000,2.1835361328125,-0.0035123717971146107,0.0018325417768210173,-0.0022906772792339325
1761395868347914000,2.2029140625,0.0010689827613532543,0.004275931045413017,0.00259610079228878
1761395868367278300,2.2222783203125,0.0018325417768210173,-0.0012216945178806782,0.008093725889921188
1761395868386669600,2.241669677734375,-0.0015271181473508477,-0.0024433890357613564,0.007177455350756645
1761395868406047500,2.261047607421875,-0.00259610079228878,0.009315420873463154,0.004123218823224306
1761395868425425400,2.28042529296875,-0.0022906772792339325,0.01511846948415041,0.0035123717971146107
1761395868444803300,2.29980322265625,-0.0038177953101694584,0.0038177953101694584,0.0050394898280501366
1761395868464181200,2.31918115234375,-0.004581354558467865,-0.00015271181473508477,0.00916270911693573
1761395868483545600,2.338545654296875,-0.004123218823224306,0.0015271181473508477,0.00015271181473508477
1761395868502936800,2.357936767578125,-0.0010689827613532543,-0.0006108472589403391,-0.009773556143045425
1761395868522314800,2.377314697265625,0.0012216945178806782,-0.005803049076348543,0.0022906772792339325
1761395868541679000,2.39667919921875,0.0015271181473508477,-0.0006108472589403391,0.009468132629990578
1761395868561070600,2.416070556640625,-0.0012216945178806782,0.0068720318377017975,0.0050394898280501366
1761395868580448500,2.435448486328125,-0.0035123717971146107,0.0065666078589856625,0.0032069480512291193
1761395868599826200,2.454826171875,-0.004123218823224306,0.004734066314995289,0.001985253533348441
1761395868619204000,2.4742041015625,-0.0004581354442052543,0.0024433890357613564,0.001985253533348441
1761395868638582000,2.49358203125,0.005650337319821119,0.008246437646448612,0.0035123717971146107
1761395868657960000,2.5129599609375,0.005344913341104984,-0.00030542362947016954,-0.0016798300202935934
1761395868677337900,2.532337890625,0.005344913341104984,-0.007635590620338917,-0.00259610079228878
1761395868696715500,2.551715576171875,0.005955760832875967,-0.007635590620338917,-0.0016798300202935934
1761395868716093400,2.571093505859375,0.0068720318377017975,-0.0012216945178806782,-0.001374406274408102
1761395868735471400,2.590471435546875,0.0050394898280501366,0.002748812548816204,0.0007635590736754239
1761395868754849300,2.609849365234375,0.0038177953101694584,0.002748812548816204,-0.0035123717971146107
1761395868774227200,2.629227294921875,0.00259610079228878,-0.0030542362947016954,-0.0029015245381742716
1761395868793604900,2.64860498046875,0.0007635590736754239,-0.0030542362947016954,0.005650337319821119
1761395868812982800,2.667982666015625,0.00015271181473508477,-0.004275931045413017,-0.0016798300202935934
1761395868832360700,2.687360595703125,-0.0004581354442052543,-0.007635590620338917,-0.007941014133393764
1761395868851738600,2.706738525390625,-0.001374406274408102,-0.006413896102458239,-0.0016798300202935934
1761395868871116500,2.726116455078125,-0.0016798300202935934,0.006261184345930815,0.006261184345930815
1761395868890494200,2.745494140625,-0.0035123717971146107,0.014813045971095562,-0.001374406274408102
1761395868909872000,2.7648720703125,-0.0068720318377017975,0.00992626789957285,-0.0050394898280501366
1761395868929250000,2.78425,-0.007482878863811493,-0.003970507066696882,-0.0038177953101694584
1761395868948628000,2.8036279296875,-0.0022906772792339325,-0.008857285603880882,-0.0022906772792339325
1761395868968006000,2.823005859375,0.001985253533348441,-0.0036650835536420345,0.0032069480512291193
1761395868987383600,2.842383544921875,0.007177455350756645,0.003359660040587187,0.004428642801940441
1761395869006761500,2.861761474609375,0.006261184345930815,0.0021379655227065086,-0.0035123717971146107
1761395869026139400,2.881139404296875,0.0022906772792339325,-0.005497625097632408,0.001985253533348441
1761395869045517300,2.900517333984375,0.0015271181473508477,-0.00259610079228878,0.01435491070151329
1761395869064895200,2.919895263671875,0.0007635590736754239,0.0024433890357613564,0.0038177953101694584
1761395869084273000,2.93927294921875,0.0007635590736754239,0.0050394898280501366,0.00015271181473508477
1761395869103650800,2.95865087890625,-0.00015271181473508477,-0.004275931045413017,-0.00015271181473508477
1761395869123028700,2.97802880859375,0.0016798300202935934,-0.002748812548816204,-0.007635590620338917
1761395869142406700,2.99740673828125,0.004734066314995289,0.0036650835536420345,-0.0029015245381742716
1761395869161784600,3.01678466796875,0.0038177953101694584,0.006108472589403391,-0.0007635590736754239
1761395869181162200,3.036162353515625,0.00015271181473508477,0.00030542362947016954,-0.00015271181473508477
1761395869200540200,3.0555400390625,-0.001374406274408102,-0.0007635590736754239,0.007177455350756645
1761395869219918000,3.07491796875,-0.0038177953101694584,0.0015271181473508477,-0.001374406274408102
1761395869239296000,3.0942958984375,-0.0035123717971146107,-0.0024433890357613564,-0.00519220158457756
1761395869258674000,3.113673828125,-0.0022906772792339325,-0.001374406274408102,0.004428642801940441
1761395869278051600,3.133051513671875,0.0035123717971146107,0.004275931045413017,0.0022906772792339325
1761395869297429500,3.152429443359375,0.010231691412627697,0.010078979656100273,0.001985253533348441
1761395869316807400,3.171807373046875,0.009315420873463154,0.007330167107284069,0.0010689827613532543
1761395869336185300,3.191185302734375,-0.0022906772792339325,-0.005803049076348543,-0.0022906772792339325
1761395869374941200,3.229941162109375,-0.0065666078589856625,-0.0035123717971146107,-0.0035123717971146107
1761395869394318800,3.24931884765625,-0.00015271181473508477,-0.002748812548816204,-0.006261184345930815
1761395869413696800,3.26869677734375,0.0065666078589856625,-0.0018325417768210173,-0.0035123717971146107
1761395869433074700,3.28807470703125,0.007788302376866341,-0.0030542362947016954,0.001985253533348441
1761395869452452600,3.30745263671875,0.004123218823224306,-0.006719320081174374,-0.00015271181473508477
1761395869471830300,3.326830322265625,-0.0016798300202935934,-0.005803049076348543,-0.001985253533348441
1761395869491208200,3.346208251953125,-0.0016798300202935934,-0.005497625097632408,-0.0010689827613532543
1761395869510586000,3.365586181640625,0.00259610079228878,-0.003970507066696882,-0.0032069480512291193
1761395869529964000,3.384964111328125,0.004734066314995289,-0.008093725889921188,-0.008857285603880882
1761395869549342000,3.404342041015625,0.0050394898280501366,-0.0036650835536420345,-0.0007635590736754239
1761395869568719600,3.4237197265625,0.0035123717971146107,0.0018325417768210173,0.0010689827613532543
1761395869588097500,3.44309765625,0.004734066314995289,0.007330167107284069,0.0016798300202935934
1761395869607475500,3.462475341796875,0.004123218823224306,0.005803049076348543,0.00015271181473508477
1761395869626853400,3.481853271484375,-0.001374406274408102,-0.00030542362947016954,-0.001374406274408102
1761395869646231300,3.501231201171875,-0.008093725889921188,-0.0010689827613532543,0.00015271181473508477
1761395869665609000,3.52060888671875,-0.005955760832875967,0.0022906772792339325,0.007788302376866341
1761395869684987000,3.53998681640625,-0.0010689827613532543,0.0006108472589403391,0.001985253533348441
1761395869704364800,3.55936474609375,0.0035123717971146107,-0.0024433890357613564,-0.0068720318377017975
1761395869723742700,3.57874267578125,0.005650337319821119,0.0009162708884105086,0.0016798300202935934
1761395869743120600,3.59812060546875,0.001985253533348441,0.0018325417768210173,0.0035123717971146107
1761395869762498300,3.617498291015625,-0.0016798300202935934,0.0009162708884105086,-0.0050394898280501366
1761395869781876200,3.636876220703125,-0.0029015245381742716,-0.0021379655227065086,-0.004734066314995289
1761395869801254100,3.656254150390625,0.001985253533348441,-0.0021379655227065086,-0.00259610079228878
1761395869820632000,3.675632080078125,0.0050394898280501366,-0.0024433890357613564,0.0004581354442052543
1761395869840010000,3.695010009765625,0.005344913341104984,-0.0024433890357613564,0.006261184345930815
1761395869859388000,3.714387939453125,0.0038177953101694584,0.0006108472589403391,0.001985253533348441
1761395869878765600,3.733765625,0.0029015245381742716,-0.0018325417768210173,-0.0007635590736754239
1761395869898143500,3.7531435546875,0.0050394898280501366,0.002748812548816204,-0.0032069480512291193
1761395869917521400,3.772521484375,0.005650337319821119,-0.0006108472589403391,0.00015271181473508477
1761395869936899300,3.7918994140625,0.0022906772792339325,-0.007024743594229221,-0.0029015245381742716
1761395869956277000,3.811277099609375,-0.001374406274408102,-0.004886778071522713,-0.005803049076348543
1761395869975655000,3.830655029296875,-0.00015271181473508477,0.004734066314995289,-0.001374406274408102
1761395869995032800,3.85003271484375,0.00259610079228878,0.0032069480512291193,0.005344913341104984
1761395870014410800,3.86941064453125,0.0038177953101694584,-0.0015271181473508477,0.004123218823224306
1761395870033788700,3.88878857421875,0.004428642801940441,0.0012216945178806782,-0.007330167107284069
1761395870053166300,3.908166259765625,0.004734066314995289,0.0024433890357613564,-0.004123218823224306
1761395870072544300,3.927544189453125,0.0029015245381742716,-0.0012216945178806782,0.005650337319821119
1761395870091922200,3.946922119140625,0.0010689827613532543,-0.00519220158457756,0.0010689827613532543
1761395870111300000,3.966300048828125,0.001374406274408102,-0.004275931045413017,-0.0050394898280501366
1761395870130678000,3.985677978515625,0.0035123717971146107,0.004581354558467865,-0.004123218823224306
1761395870150055700,4.0050556640625,0.004734066314995289,0.0012216945178806782,-0.0035123717971146107
1761395870169433600,4.02443359375,0.0038177953101694584,-0.007330167107284069,-0.0035123717971146107
1761395870188811500,4.0438115234375,0.0016798300202935934,-0.008246437646448612,-0.0010689827613532543
1761395870208189400,4.063189453125,0.0029015245381742716,0.005497625097632408,-0.00015271181473508477
1761395870227567400,4.0825673828125,0.0032069480512291193,0.011300674639642239,-0.0022906772792339325
1761395870246945000,4.101945068359375,0.001985253533348441,0.0006108472589403391,-0.001985253533348441
1761395870266323000,4.121322998046875,0.004275931045413017,-0.008857285603880882,0.0007635590736754239
1761395870285687300,4.140687255859375,0.005344913341104984,0.0006108472589403391,-0.0035123717971146107
1761395870305078800,4.160078857421875,0.0035123717971146107,0.003970507066696882,-0.004123218823224306
1761395870324456700,4.179456787109375,0.00030542362947016954,-0.003970507066696882,0.004123218823224306
1761395870343834400,4.19883447265625,0.0021379655227065086,-0.0006108472589403391,0.007482878863811493
1761395870363212300,4.21821240234375,0.0036650835536420345,0.004275931045413017,0.0016798300202935934
1761395870382590200,4.237590087890625,0.005344913341104984,-0.00030542362947016954,-0.004734066314995289
1761395870401954600,4.25695458984375,0.0012216945178806782,-0.007635590620338917,-0.0032069480512291193
1761395870421345800,4.276345703125,-0.0030542362947016954,-0.011606098152697086,0.00015271181473508477
1761395870440723700,4.2957236328125,-0.0024433890357613564,-0.00015271181473508477,0.009773556143045425
1761395870460088000,4.315088134765625,0.001374406274408102,0.010689826682209969,0.0035123717971146107
1761395870479479600,4.3344794921875,0.004428642801940441,0.005803049076348543,-0.004123218823224306
1761395870498857500,4.353857421875,0.0032069480512291193,-0.006413896102458239,-0.0038177953101694584
1761395870518235400,4.3732353515625,-0.003359660040587187,-0.008246437646448612,0.0007635590736754239
1761395870537613000,4.392613037109375,-0.005497625097632408,-0.00030542362947016954,0.0004581354442052543
1761395870556991000,4.411990966796875,0.001985253533348441,0.0012216945178806782,-0.0038177953101694584
1761395870576355300,4.431355224609375,0.009620844386518002,-0.001985253533348441,0.0010689827613532543
1761395870595746800,4.450746826171875,0.007788302376866341,-0.0021379655227065086,-0.00259610079228878
1761395870615124500,4.47012451171875,-0.001374406274408102,0.0030542362947016954,-0.001374406274408102
1761395870634489000,4.489489013671875,-0.0032069480512291193,-0.005497625097632408,-0.0029015245381742716
1761395870653880300,4.50888037109375,0.0018325417768210173,-0.013438640162348747,0.0010689827613532543
1761395870673258200,4.52825830078125,0.009009997360408306,-0.0006108472589403391,-0.004428642801940441
1761395870692636200,4.54763623046875,0.00992626789957285,-0.0068720318377017975,0.0010689827613532543
1761395870712013800,4.567013916015625,0.007788302376866341,-0.0024433890357613564,0.009773556143045425
1761395870731391700,4.586391845703125,0.0007635590736754239,-0.0021379655227065086,-0.00015271181473508477
1761395870750769700,4.605769775390625,-0.0022906772792339325,0.0068720318377017975,0.00259610079228878
1761395870770147600,4.625147705078125,-0.001985253533348441,0.006261184345930815,0.007482878863811493
1761395870789525500,4.644525390625,-0.001374406274408102,-0.0015271181473508477,0.0004581354442052543
1761395870808903200,4.663903076171875,0.0004581354442052543,-0.005803049076348543,-0.0029015245381742716
1761395870828281000,4.683281005859375,0.001985253533348441,-0.0021379655227065086,-0.004734066314995289
1761395870847659000,4.702658935546875,-0.0004581354442052543,-0.0018325417768210173,-0.004123218823224306
1761395870867037000,4.722036865234375,-0.00259610079228878,0.00259610079228878,0.005344913341104984
1761395870886414600,4.74141455078125,-0.004428642801940441,0.0029015245381742716,0.005344913341104984
1761395870905792500,4.76079248046875,-0.0029015245381742716,0.004123218823224306,-0.00015271181473508477
1761395870925170400,4.78017041015625,-0.0004581354442052543,-0.00030542362947016954,0.001374406274408102
1761395870944548400,4.79954833984375,0.001985253533348441,-0.004581354558467865,-0.001985253533348441
1761395870963926300,4.81892626953125,0.0032069480512291193,-0.006719320081174374,-0.007635590620338917
1761395870983304200,4.83830419921875,0.0022906772792339325,-0.0024433890357613564,-0.0050394898280501366
1761395871002681900,4.857681884765625,-0.0016798300202935934,-0.0018325417768210173,0.0022906772792339325
1761395871022059800,4.877059814453125,-0.0038177953101694584,-0.005650337319821119,0.007788302376866341
1761395871041437700,4.896437744140625,-0.005650337319821119,0.0038177953101694584,0.007177455350756645
1761395871060815600,4.915815673828125,-0.0032069480512291193,0.007788302376866341,-0.0022906772792339325
1761395871080193500,4.935193603515625,0.0022906772792339325,0.009620844386518002,0.00259610079228878
1761395871099571200,4.9545712890625,0.001374406274408102,0,0.005650337319821119
1761395871118949000,4.97394921875,0.0007635590736754239,-0.0015271181473508477,-0.0029015245381742716
1761395871138327000,4.9933271484375,-0.00259610079228878,0.004734066314995289,-0.0004581354442052543
1761395871157705000,5.012705078125,-0.004123218823224306,-0.0010689827613532543,0.004123218823224306
1761395871177082600,5.03208251953125,-0.005650337319821119,-0.0038177953101694584,0.001985253533348441
1761395871196460500,5.05146044921875,-0.005650337319821119,-0.0004581354442052543,-0.004428642801940441
1761395871215838500,5.07083837890625,-0.004428642801940441,-0.0022906772792339325,0.005344913341104984
1761395871235216400,5.09021630859375,0.00015271181473508477,-0.0021379655227065086,0.007788302376866341
1761395871254594300,5.10959423828125,0.0038177953101694584,-0.006261184345930815,-0.004734066314995289
1761395871273972000,5.128971923828125,0.005955760832875967,-0.01695101149380207,-0.004123218823224306
1761395871293350000,5.148349853515625,0.003970507066696882,-0.012980503961443901,0.008093725889921188
1761395871312727800,5.167727783203125,0.0022906772792339325,0.0024433890357613564,0.004123218823224306
1761395871332105700,5.187105712890625,-0.0004581354442052543,0.021837789565324783,0.00916270911693573
1761395871351483400,5.2064833984375,0.00015271181473508477,0.02626643143594265,0.010689826682209969
1761395871370861300,5.225861328125,0.0004581354442052543,0.010078979656100273,0.00259610079228878
1761395871390239200,5.2452392578125,0.001985253533348441,0.007024743594229221,-0.001985253533348441
1761395871409617200,5.2646171875,-0.001985253533348441,-0.004275931045413017,-0.004123218823224306
1761395871428995000,5.2839951171875,-0.005650337319821119,-0.009468132629990578,-0.001985253533348441
1761395871448372700,5.303372802734375,-0.0065666078589856625,-0.005344913341104984,0.0022906772792339325
1761395871467750700,5.322750732421875,-0.0016798300202935934,-0.001985253533348441,0.004428642801940441
1761395871487128600,5.342128662109375,0.0016798300202935934,0.0006108472589403391,0.0029015245381742716
1761395871506506500,5.361506591796875,-0.004123218823224306,-0.012827792204916477,-0.004275931045413017
1761395871525884400,5.380884521484375,-0.01175880990922451,-0.012216945178806782,-0.0029015245381742716
1761395871545262000,5.400261962890625,-0.010231691412627697,0.005650337319821119,0.004734066314995289
1761395871564640000,5.419639892578125,-0.0035123717971146107,0.008093725889921188,0.0010689827613532543
1761395871584018000,5.439017822265625,-0.0010689827613532543,-0.004581354558467865,-0.006719320081174374
1761395871603395800,5.458395751953125,0.0007635590736754239,-0.008246437646448612,-0.011911521665751934
1761395871622773500,5.4777734375,0.0007635590736754239,-0.006719320081174374,-0.007941014133393764
1761395871642151400,5.4971513671875,0.001374406274408102,-0.00030542362947016954,-0.00015271181473508477
1761395871661529300,5.516529296875,0.001985253533348441,0.009468132629990578,0.001374406274408102
1761395871680907300,5.5359072265625,0.001374406274408102,0.012064233422279358,0.006261184345930815
1761395871700285200,5.55528515625,-0.0029015245381742716,0.0068720318377017975,0.007788302376866341
1761395871719663000,5.5746630859375,-0.004428642801940441,0.0030542362947016954,0.0010689827613532543
1761395871739040800,5.594040771484375,-0.0032069480512291193,-0.017561858519911766,-0.00916270911693573
1761395871758418700,5.613418701171875,0.0032069480512291193,-0.019088976085186005,-0.011911521665751934
1761395871777796600,5.632796630859375,0.004428642801940441,-0.007177455350756645,-0.004734066314995289
1761395871797174500,5.652174560546875,-0.001985253533348441,-0.00030542362947016954,0.00259610079228878
1761395871816552200,5.67155224609375,-0.006413896102458239,-0.0029015245381742716,0.006261184345930815
1761395871835930000,5.69093017578125,-0.006261184345930815,0.0007635590736754239,0.001374406274408102
1761395871855308000,5.71030810546875,-0.001374406274408102,0.007177455350756645,0.005650337319821119
1761395871874686000,5.72968603515625,0.00015271181473508477,-0.0018325417768210173,0.005344913341104984
1761395871894063900,5.74906396484375,-0.001374406274408102,-0.004886778071522713,-0.004734066314995289
1761395871913441500,5.768441650390625,-0.0038177953101694584,0.007788302376866341,0.0004581354442052543
1761395871932819500,5.7878193359375,-0.005955760832875967,0.01954711228609085,0.004123218823224306
1761395871952197400,5.807197265625,-0.004428642801940441,0.014813045971095562,-0.001374406274408102
1761395871971575300,5.8265751953125,0.0010689827613532543,0.008399149402976036,0.007177455350756645
1761395871990953200,5.845953125,-0.0004581354442052543,0.001374406274408102,0.00259610079228878
1761395872010331000,5.865330810546875,-0.00259610079228878,-0.00030542362947016954,-0.0010689827613532543
1761395872029708800,5.884708740234375,0.0009162708884105086,-0.006719320081174374,0.007482878863811493
1761395872049086700,5.904086669921875,0.006719320081174374,-0.012675080448389053,0.008093725889921188
1761395872068464600,5.923464599609375,0.010231691412627697,-0.007788302376866341,-0.001374406274408102
1761395872087842300,5.94284228515625,0.011453386396169662,-0.00015271181473508477,0.0010689827613532543
1761395872107220200,5.96222021484375,0.004123218823224306,-0.004886778071522713,-0.0035123717971146107
1761395872126598100,5.98159814453125,0.001985253533348441,-0.006413896102458239,-0.007024743594229221
1761395872145976000,6.00097607421875,0.00259610079228878,-0.0006108472589403391,0.0004581354442052543
1761395872165354000,6.02035400390625,0.0004581354442052543,0.0006108472589403391,0.0029015245381742716
1761395872184731600,6.039731689453125,-0.00259610079228878,0.0009162708884105086,-0.0038177953101694584
1761395872204109600,6.059109619140625,-0.004428642801940441,0.0029015245381742716,0.0032069480512291193
1761395872223487500,6.078487548828125,-0.0065666078589856625,0.012369656935334206,0.008399149402976036
1761395872242865400,6.097865478515625,-0.00992626789957285,0.01710372418165207,0.006261184345930815
1761395872262243300,6.117243408203125,-0.007788302376866341,0.017561858519911766,-0.001985253533348441
1761395872281621000,6.13662109375,-0.007177455350756645,0.007788302376866341,0.0004581354442052543
1761395872300999000,6.1559990234375,-0.0007635590736754239,0.006261184345930815,0.0050394898280501366
1761395872320363300,6.17536328125,0.0032069480512291193,0.010078979656100273,-0.008857285603880882
1761395872339754800,6.194754638671875,0.0016798300202935934,-0.0006108472589403391,-0.007024743594229221
1761395872359132400,6.21413232421875,-0.0021379655227065086,-0.002748812548816204,0.0035123717971146107
1761395872378497000,6.2334970703125,-0.00519220158457756,0.009620844386518002,0.013438640162348747
1761395872397888300,6.25288818359375,-0.006108472589403391,0.021379653364419937,0.02367033064365387
1761395872417266200,6.27226611328125,-0.003359660040587187,0.016034740954637527,0.01435491070151329
1761395872436644000,6.29164404296875,-0.0030542362947016954,0.00259610079228878,0.004734066314995289
1761395872456021800,6.311021728515625,0.0018325417768210173,-0.00519220158457756,-0.0004581354442052543
1761395872475399700,6.330399658203125,0.0018325417768210173,-0.006413896102458239,0.004123218823224306
1761395872494764000,6.349763916015625,0.003970507066696882,0.00030542362947016954,0.0035123717971146107
1761395872514155500,6.369155517578125,-0.00015271181473508477,0.005497625097632408,-0.0007635590736754239
1761395872533533200,6.388533203125,-0.0018325417768210173,0.014202198944985867,0.010689826682209969
1761395872552897800,6.407897705078125,-0.00030542362947016954,0.007788302376866341,0.008857285603880882
1761395872572289000,6.4272890625,0.00519220158457756,0.0024433890357613564,0.0022906772792339325
1761395872591667000,6.4466669921875,0.010842538438737392,-0.00015271181473508477,-0.004428642801940441
1761395872611044900,6.466044921875,0.009315420873463154,-0.00259610079228878,-0.007788302376866341
1761395872630422500,6.485422607421875,0.007482878863811493,-0.005650337319821119,0.00015271181473508477
1761395872649800400,6.504800537109375,0.004581354558467865,-0.0030542362947016954,0.0022906772792339325
1761395872669178400,6.524178466796875,0.004734066314995289,0.0009162708884105086,0.0010689827613532543
1761395872688556300,6.543556396484375,0.0065666078589856625,0.0006108472589403391,0.005344913341104984
1761395872707934200,6.562934326171875,0.0032069480512291193,-0.004275931045413017,-0.0010689827613532543
1761395872727312100,6.58231201171875,-0.0004581354442052543,-0.005497625097632408,-0.00259610079228878
1761395872746689800,6.601689697265625,-0.004734066314995289,-0.008246437646448612,0.0022906772792339325
1761395872766067700,6.621067626953125,-0.00259610079228878,-0.0004581354442052543,0.0004581354442052543
1761395872785445600,6.640445556640625,-0.0004581354442052543,0.0015271181473508477,-0.001985253533348441
1761395872804823600,6.659823486328125,0.0022906772792339325,-0.0012216945178806782,-0.004428642801940441
1761395872824201200,6.679201171875,-0.0004581354442052543,0.0009162708884105086,-0.0029015245381742716
1761395872843579100,6.6985791015625,-0.004123218823224306,0.005650337319821119,-0.00015271181473508477
1761395872862957000,6.71795703125,-0.0007635590736754239,0.0015271181473508477,0.0007635590736754239
1761395872882335000,6.7373349609375,0.005344913341104984,0.0018325417768210173,-0.00015271181473508477
1761395872901713000,6.756712890625,0.0065666078589856625,0.007024743594229221,-0.0016798300202935934
1761395872921090600,6.776090576171875,-0.004123218823224306,-0.004581354558467865,-0.007330167107284069
1761395872940468500,6.795468505859375,-0.009009997360408306,-0.011606098152697086,-0.001985253533348441
1761395872959846400,6.814846435546875,-0.004428642801940441,-0.011606098152697086,-0.001374406274408102
1761395872979224300,6.834224365234375,0.0065666078589856625,-0.008399149402976036,-0.005344913341104984
1761395872998602000,6.85360205078125,0.014507622458040714,0.0007635590736754239,0.004734066314995289
1761395873017980000,6.87297998046875,0.012064233422279358,-0.00259610079228878,-0.004734066314995289
1761395873037357800,6.89235791015625,0.0050394898280501366,-0.011147962883114815,-0.010689826682209969
1761395873056735700,6.91173583984375,0.00015271181473508477,-0.009773556143045425,-0.0038177953101694584
1761395873076113700,6.93111376953125,0.0007635590736754239,-0.005803049076348543,-0.004123218823224306
1761395873095491300,6.9504912109375,0.006261184345930815,-0.007482878863811493,-0.00259610079228878
1761395873114869200,6.969869140625,0.011147962883114815,-0.0050394898280501366,0.0007635590736754239
1761395873134247200,6.9892470703125,0.006261184345930815,-0.004581354558467865,-0.00015271181473508477
1761395873153625000,7.008625,-0.00015271181473508477,0.003359660040587187,-0.0022906772792339325
1761395873173003000,7.0280029296875,-0.0032069480512291193,0.006261184345930815,-0.001374406274408102
1761395873192380700,7.047380615234375,0.001985253533348441,0.009468132629990578,0.0004581354442052543
1761395873211758600,7.066758544921875,0.005955760832875967,-0.0022906772792339325,-0.01038440316915512
1761395873231136500,7.086136474609375,0.005955760832875967,-0.007177455350756645,-0.008857285603880882
1761395873250514400,7.105514404296875,0.004123218823224306,-0.01252236869186163,0.0035123717971146107
1761395873269892400,7.124892333984375,0.0009162708884105086,-0.021226942539215088,-0.0032069480512291193
1761395873289270000,7.14427001953125,0.005955760832875967,-0.014813045971095562,-0.005650337319821119
1761395873308648000,7.16364794921875,0.013285927474498749,-0.0004581354442052543,0.001374406274408102
1761395873328025900,7.18302587890625,0.017867282032966614,0.0032069480512291193,0.007024743594229221
1761395873347403800,7.20240380859375,0.012216945178806782,-0.00916270911693573,0.014049487188458443
1761395873366781700,7.22178173828125,0.0015271181473508477,-0.02076880633831024,0.013744063675403595
1761395873386159400,7.241159423828125,-0.00030542362947016954,-0.01252236869186163,0.013438640162348747
1761395873405537300,7.260537353515625,0.004428642801940441,-0.004581354558467865,0.010689826682209969
1761395873424915200,7.279915283203125,0.007482878863811493,-0.0068720318377017975,-0.00015271181473508477
1761395873444293000,7.299293212890625,0.014507622458040714,0.004428642801940441,-0.004428642801940441
1761395873463670800,7.3186708984375,0.013896775431931019,0.0009162708884105086,0.004734066314995289
1761395873483048700,7.338048583984375,0.007024743594229221,-0.008857285603880882,0.008093725889921188
1761395873502426600,7.357426513671875,-0.0010689827613532543,-0.007941014133393764,0.004123218823224306
1761395873521804500,7.376804443359375,-0.0010689827613532543,0.005344913341104984,0.00259610079228878
1761395873541182500,7.396182373046875,-0.0007635590736754239,0.004123218823224306,0.005955760832875967
1761395873560560000,7.41556005859375,0.0004581354442052543,-0.0021379655227065086,0.007482878863811493
1761395873579938000,7.43493798828125,0.0022906772792339325,-0.0018325417768210173,0.00259610079228878
1761395873599316000,7.45431591796875,0.0035123717971146107,-0.003970507066696882,-0.004428642801940441
1761395873618694000,7.47369384765625,0.004428642801940441,-0.01695101149380207,-0.011300674639642239
1761395873638071800,7.49307177734375,0.009009997360408306,-0.013896775431931019,-0.007024743594229221
1761395873657449500,7.512449462890625,0.007788302376866341,-0.004734066314995289,-0.005955760832875967
1761395873676827400,7.531827392578125,0.005955760832875967,-0.0012216945178806782,-0.0035123717971146107
1761395873696205300,7.551205322265625,0.0010689827613532543,-0.003359660040587187,-0.0004581354442052543
1761395873715583200,7.570583251953125,0.0004581354442052543,0.00030542362947016954,0.0007635590736754239
1761395873734961200,7.589961181640625,-0.0032069480512291193,0.008093725889921188,-0.0035123717971146107
1761395873754338800,7.6093388671875,-0.007788302376866341,0.0004581354442052543,0.0007635590736754239
1761395873773716700,7.628716796875,-0.007482878863811493,-0.0007635590736754239,0.007788302376866341
1761395873793094700,7.6480947265625,-0.0068720318377017975,0.007788302376866341,0.0050394898280501366
1761395873812472600,7.66747265625,-0.009773556143045425,0.014049487188458443,0.011606098152697086
1761395873831850500,7.6868505859375,-0.016798298805952072,0.010078979656100273,0.018019994720816612
1761395873851228200,7.706228271484375,-0.014660334214568138,-0.0012216945178806782,0.01832541823387146
1761395873870606000,7.725606201171875,-0.012980503961443901,-0.018783552572131157,0.030695075169205666
1761395873889984000,7.74498388671875,-0.0036650835536420345,-0.011300674639642239,0.0068720318377017975
1761395873909362000,7.76436181640625,0.004428642801940441,-0.0024433890357613564,-0.006261184345930815
1761395873928739600,7.783739501953125,0.007482878863811493,0.004581354558467865,-0.00015271181473508477
1761395873948117500,7.803117431640625,0.0035123717971146107,-0.0030542362947016954,-0.0007635590736754239
1761395873967495400,7.822495361328125,0.001985253533348441,-0.0018325417768210173,-0.006413896102458239
1761395873986873300,7.841873291015625,0.004428642801940441,0.0015271181473508477,-0.007941014133393764
1761395874006251300,7.861251220703125,0.007788302376866341,-0.0009162708884105086,-0.0007635590736754239
1761395874025629000,7.88062890625,0.010537114925682545,-0.0065666078589856625,-0.004734066314995289
1761395874045006800,7.9000068359375,0.008704573847353458,-0.0022906772792339325,-0.007024743594229221
1761395874064384800,7.919384765625,0.005650337319821119,0.0021379655227065086,0.0010689827613532543
1761395874083762700,7.9387626953125,0.004123218823224306,-0.0012216945178806782,-0.0007635590736754239
1761395874103140600,7.958140625,0.004428642801940441,-0.004275931045413017,-0.005803049076348543
1761395874122518300,7.977518310546875,0.0035123717971146107,-0.00030542362947016954,0.001985253533348441
1761395874141896200,7.996896240234375,0.0029015245381742716,0.006413896102458239,0.0035123717971146107
1761395874161274000,8.016274169921875,0.0004581354442052543,0.011147962883114815,0.007024743594229221
1761395874180652000,8.035652099609376,-0.004734066314995289,0.021226942539215088,0.005955760832875967
1761395874200030000,8.055030029296875,-0.00992626789957285,0.015271181240677834,-0.00015271181473508477
1761395874219407600,8.07440771484375,-0.009468132629990578,0.008551862090826035,0.010995250195264816
1761395874238785500,8.09378564453125,-0.006719320081174374,0.004734066314995289,0.010689826682209969
1761395874258163500,8.11316357421875,-0.005650337319821119,0.0038177953101694584,-0.00519220158457756
1761395874277541400,8.132541259765626,-0.00259610079228878,-0.0012216945178806782,0.0010689827613532543
1761395874296905700,8.15190576171875,0.0006108472589403391,-0.0021379655227065086,0.008704573847353458
1761395874316297000,8.171296875,-0.0022906772792339325,0.006261184345930815,0.0022906772792339325
1761395874335675000,8.1906748046875,-0.004123218823224306,0.016340164467692375,-0.0004581354442052543
1761395874355052800,8.210052734375,-0.0038177953101694584,0.010537114925682545,-0.0004581354442052543
1761395874374430700,8.2294306640625,-0.004123218823224306,-0.007941014133393764,-0.0010689827613532543
1761395874393808600,8.24880859375,-0.0021379655227065086,-0.015576604753732681,-0.001374406274408102
1761395874413173000,8.268173095703125,-0.001985253533348441,-0.003359660040587187,-0.0022906772792339325
1761395874432564200,8.287564208984374,-0.0032069480512291193,0.004886778071522713,-0.00259610079228878
1761395874451942100,8.306942138671875,-0.0030542362947016954,0.005955760832875967,0.008704573847353458
1761395874471320000,8.326320068359376,-0.0018325417768210173,0.006261184345930815,0.007941014133393764
1761395874490697700,8.34569775390625,-0.0015271181473508477,0.00030542362947016954,-0.0010689827613532543
1761395874510075600,8.36507568359375,-0.001985253533348441,-0.005803049076348543,-0.008246437646448612
1761395874529440000,8.38443994140625,-0.00015271181473508477,-0.0015271181473508477,-0.0029015245381742716
1761395874548831500,8.40383154296875,-0.00030542362947016954,0.0032069480512291193,0.005650337319821119
1761395874568209400,8.42320947265625,-0.001985253533348441,0.008551862090826035,-0.0032069480512291193
1761395874587573800,8.44257373046875,-0.0032069480512291193,0.010537114925682545,-0.005955760832875967
1761395874606965000,8.461965087890626,-0.004123218823224306,0.0012216945178806782,-0.00259610079228878
1761395874626343000,8.481343017578125,-0.0018325417768210173,-0.008246437646448612,-0.001374406274408102
1761395874645720800,8.500720947265625,-0.0007635590736754239,-0.004581354558467865,-0.004123218823224306
1761395874665098800,8.5200986328125,0.0004581354442052543,-0.005497625097632408,-0.001374406274408102
1761395874684476400,8.539476318359375,-0.0004581354442052543,-0.0009162708884105086,-0.001985253533348441
1761395874703854300,8.558854248046876,0.0010689827613532543,0.0009162708884105086,0.0010689827613532543
1761395874723232300,8.578232177734375,0.0004581354442052543,0.0035123717971146107,0.0065666078589856625
1761395874742610200,8.597610107421875,-0.001374406274408102,-0.004275931045413017,0.001985253533348441
1761395874761988000,8.616988037109374,0.00015271181473508477,-0.0030542362947016954,0.0004581354442052543
1761395874781365800,8.63636572265625,0.00015271181473508477,-0.003359660040587187,-0.0032069480512291193
1761395874800743700,8.65574365234375,-0.0004581354442052543,0.0021379655227065086,-0.0007635590736754239
1761395874820121600,8.67512158203125,0.001985253533348441,0.0050394898280501366,0.004123218823224306
1761395874839499500,8.69449951171875,0.0029015245381742716,0.008093725889921188,0.00259610079228878
1761395874858877400,8.71387744140625,0.0022906772792339325,0.006413896102458239,-0.0016798300202935934
1761395874878255000,8.733255126953125,0.001374406274408102,-0.0024433890357613564,-0.001374406274408102
1761395874897633000,8.752633056640626,-0.00259610079228878,-0.005803049076348543,-0.00015271181473508477
1761395874917011000,8.772010986328125,-0.0035123717971146107,-0.00519220158457756,-0.001374406274408102
1761395874936388900,8.791388916015626,0.0007635590736754239,-0.005497625097632408,-0.0007635590736754239
1761395874955766800,8.810766845703125,0.004123218823224306,-0.003970507066696882,-0.0038177953101694584
1761395874975144400,8.83014453125,0.0035123717971146107,-0.0024433890357613564,-0.006719320081174374
1761395874994522400,8.8495224609375,0.00015271181473508477,0.005497625097632408,0.0032069480512291193
1761395875013900300,8.868900390625,-0.00259610079228878,0.00259610079228878,0.007482878863811493
1761395875033278200,8.8882783203125,-0.005344913341104984,-0.0004581354442052543,-0.001985253533348441
1761395875052656000,8.90765625,-0.001374406274408102,-0.00030542362947016954,-0.00015271181473508477
1761395875072033800,8.92703369140625,0.001374406274408102,0.0021379655227065086,-0.0032069480512291193
1761395875091411700,8.94641162109375,0.0004581354442052543,-0.0015271181473508477,-0.001985253533348441
1761395875110789600,8.96578955078125,0.0022906772792339325,0.005955760832875967,0.005344913341104984
1761395875130167600,8.98516748046875,0.001985253533348441,0.010842538438737392,-0.001374406274408102
1761395875149545500,9.00454541015625,-0.001374406274408102,0.01175880990922451,-0.0032069480512291193
1761395875168923100,9.023923095703125,-0.0050394898280501366,-0.0022906772792339325,0.0007635590736754239
1761395875188301000,9.043301025390624,-0.008704573847353458,-0.009468132629990578,-0.001985253533348441
1761395875207679000,9.062678955078125,-0.006261184345930815,-0.005650337319821119,0.004123218823224306
1761395875227057000,9.082056884765626,-0.0010689827613532543,0.0035123717971146107,0.005344913341104984
1761395875246434800,9.101434814453125,0.0010689827613532543,0.002748812548816204,-0.0016798300202935934
1761395875265812500,9.1208125,0.0016798300202935934,-0.0006108472589403391,-0.0004581354442052543
1761395875285190400,9.1401904296875,-0.001374406274408102,-0.0024433890357613564,-0.001985253533348441
1761395875304568300,9.159568359375,-0.001985253533348441,-0.002748812548816204,-0.0050394898280501366
1761395875323946200,9.1789462890625,0.00015271181473508477,-0.0015271181473508477,0.0016798300202935934
1761395875343324200,9.19832421875,0.0016798300202935934,0.0030542362947016954,-0.0010689827613532543
1761395875362701800,9.217701904296876,0.0004581354442052543,-0.00030542362947016954,-0.0022906772792339325
1761395875382079700,9.237079833984374,-0.0007635590736754239,-0.002748812548816204,-0.0004581354442052543
1761395875401457700,9.256457763671875,0.00015271181473508477,-0.0009162708884105086,0.001985253533348441
1761395875420835600,9.275835693359374,0.0032069480512291193,-0.0012216945178806782,0.001374406274408102
1761395875440213500,9.295213623046875,0.005344913341104984,0.0009162708884105086,-0.00015271181473508477
1761395875459591200,9.314591064453126,0.004123218823224306,0,-0.005650337319821119
1761395875478969000,9.333968994140625,0.0010689827613532543,0,-0.001985253533348441
1761395875498347000,9.353346923828125,-0.0010689827613532543,0.0021379655227065086,0.00015271181473508477
1761395875517725000,9.372724853515624,-0.0010689827613532543,-0.0006108472589403391,0.0010689827613532543
1761395875537102800,9.392102783203125,0.0004581354442052543,-0.002748812548816204,0.0035123717971146107
1761395875556480500,9.41148046875,0.0007635590736754239,-0.0012216945178806782,0.0038177953101694584
1761395875575858400,9.4308583984375,-0.0007635590736754239,0.0065666078589856625,-0.0007635590736754239
1761395875595236400,9.450236328125,-0.0010689827613532543,0.007482878863811493,-0.0032069480512291193
1761395875614614300,9.4696142578125,0.0029015245381742716,0.003970507066696882,0.0038177953101694584
1761395875633992200,9.4889921875,0.005344913341104984,0.0024433890357613564,-0.005650337319821119
1761395875653369900,9.508369873046876,0.005344913341104984,0.0015271181473508477,-0.009009997360408306
1761395875672747800,9.527747802734375,0.0035123717971146107,-0.002748812548816204,0.0032069480512291193
1761395875692125700,9.547125732421875,0.0022906772792339325,-0.0021379655227065086,-0.0029015245381742716
1761395875711503600,9.566503662109374,-0.0010689827613532543,-0.0006108472589403391,-0.008857285603880882
1761395875730881500,9.585881591796875,-0.0007635590736754239,0.0016798300202935934,0.0016798300202935934
1761395875750259200,9.60525927734375,0.00015271181473508477,-0.0024433890357613564,-0.0029015245381742716
1761395875769637000,9.62463720703125,0.0022906772792339325,0.0009162708884105086,-0.0032069480512291193
1761395875789015000,9.64401513671875,0.00259610079228878,0.0012216945178806782,0.0010689827613532543
1761395875808393000,9.66339306640625,0.0004581354442052543,-0.0024433890357613564,-0.0050394898280501366
1761395875827771000,9.68277099609375,0.0016798300202935934,-0.0006108472589403391,0.0010689827613532543
1761395875847148500,9.7021484375,-0.0004581354442052543,-0.0021379655227065086,0.004428642801940441
1761395875866526500,9.7215263671875,-0.0016798300202935934,-0.006719320081174374,-0.0022906772792339325
1761395875885904400,9.740904296875,-0.0016798300202935934,-0.0009162708884105086,-0.0029015245381742716
1761395875905282300,9.7602822265625,-0.0004581354442052543,-0.0006108472589403391,-0.00259610079228878
1761395875924660200,9.77966015625,-0.0010689827613532543,-0.0007635590736754239,0.0038177953101694584
1761395875944038000,9.799037841796874,-0.0016798300202935934,0.0007635590736754239,0.0010689827613532543
1761395875963415800,9.818415771484375,-0.004123218823224306,-0.004886778071522713,-0.00519220158457756
1761395875982793700,9.837793701171876,-0.001374406274408102,-0.00519220158457756,0.005955760832875967
1761395876002171600,9.857171630859375,-0.0032069480512291193,0.001985253533348441,0.005955760832875967
1761395876021549600,9.876549560546875,-0.0038177953101694584,0.008399149402976036,-0.008551862090826035
1761395876040927500,9.895927490234374,-0.0010689827613532543,0.004123218823224306,0.007941014133393764
1761395876060305200,9.91530517578125,0.0030542362947016954,0.00519220158457756,0.0038177953101694584
1761395876079683000,9.93468310546875,0.0068720318377017975,0.002748812548816204,-0.005650337319821119
1761395876099061000,9.95406103515625,0.005344913341104984,-0.0036650835536420345,0.00015271181473508477
1761395876118439000,9.97343896484375,0.0004581354442052543,-0.012827792204916477,-0.0022906772792339325
1761395876137816600,9.992816650390624,0.0015271181473508477,-0.006719320081174374,-0.0004581354442052543
1761395876157194500,10.012194580078125,0.0065666078589856625,-0.0015271181473508477,-0.00015271181473508477
1761395876176572400,10.031572509765626,0.01175880990922451,-0.008093725889921188,-0.0016798300202935934
1761395876195950300,10.050950439453125,0.010231691412627697,-0.008399149402976036,-0.007024743594229221
1761395876215328300,10.070328369140626,0.0035123717971146107,-0.0006108472589403391,0.0010689827613532543
1761395876234706000,10.089705810546874,-0.003970507066696882,0.00259610079228878,0.007330167107284069
1761395876254083800,10.109083740234375,-0.004886778071522713,-0.01252236869186163,0.0022906772792339325
1761395876273448200,10.1284482421875,-0.00030542362947016954,-0.00916270911693573,-0.001985253533348441
1761395876292839700,10.147839599609375,0.006413896102458239,0,0.00259610079228878
1761395876312217600,10.167217529296876,0.005955760832875967,0.00030542362947016954,0.0016798300202935934
1761395876331595300,10.18659521484375,0.004123218823224306,0.0021379655227065086,0.0007635590736754239
1761395876350973200,10.20597314453125,0.0010689827613532543,0.009468132629990578,-0.0010689827613532543
1761395876370351000,10.22535107421875,0.001374406274408102,0.010078979656100273,0.001374406274408102
1761395876389715500,10.244715576171876,-0.00015271181473508477,-0.005803049076348543,-0.0007635590736754239
1761395876409107000,10.26410693359375,-0.0015271181473508477,-0.015576604753732681,0.0016798300202935934
1761395876428484600,10.283484619140625,-0.00030542362947016954,-0.010078979656100273,-0.001374406274408102
1761395876447849000,10.302848876953124,0.0010689827613532543,0.003359660040587187,-0.0007635590736754239
1761395876467240400,10.322240478515624,-0.0032069480512291193,0.004581354558467865,-0.0016798300202935934
1761395876486618400,10.341618408203125,-0.0024433890357613564,-0.00015271181473508477,0.004123218823224306
1761395876505996300,10.360996337890626,-0.002748812548816204,-0.0009162708884105086,0.0016798300202935934
1761395876525374200,10.380374267578125,-0.005344913341104984,0.0035123717971146107,-0.007024743594229221
1761395876544751900,10.399751953125,-0.007177455350756645,0.0038177953101694584,-0.007788302376866341
1761395876564116200,10.4191162109375,-0.0032069480512291193,0.0050394898280501366,0.005344913341104984
1761395876583507700,10.4385078125,0.0009162708884105086,0.007788302376866341,0.008246437646448612
1761395876602885600,10.4578857421875,0.003359660040587187,0.007941014133393764,0.009773556143045425
1761395876622250000,10.47725,-0.00015271181473508477,0.007635590620338917,-0.00259610079228878
1761395876641641200,10.49664111328125,-0.0012216945178806782,0.00030542362947016954,-0.0010689827613532543
1761395876661019100,10.51601904296875,-0.0068720318377017975,0.017867282032966614,0.05726693198084831
1761395876680397000,10.53539697265625,0.0012216945178806782,0.08322793990373611,0.20509196817874908
1761395876699775000,10.55477490234375,0.015271181240677834,0.054365407675504684,0.16645587980747223
1761395876719153000,10.57415283203125,0.024128466844558716,0.028404397889971733,0.09544488787651062
1761395876738530600,10.593530517578126,0.010231691412627697,0.007024743594229221,0.004123218823224306
1761395876757908500,10.612908447265625,-0.024128466844558716,-0.06642963737249374,-0.09208522737026215
1761395876777286400,10.632286376953125,-0.0525328628718853,-0.10277505218982697,-0.17057909071445465
1761395876796664300,10.651664306640624,-0.055739812552928925,-0.06001574173569679,-0.11774080991744995
