time,seconds_elapsed,z,y,x
1761397172309016300,0.226016357421875,-0.033329010009765625,0.09598064422607422,-0.30775582790374756
1761397172328393200,0.245393310546875,0.051100730895996094,0.04208803176879883,0.00883495807647705
1761397172347769900,0.264769775390625,0.15771770477294922,0.10320663452148438,-0.06367111206054688
1761397172367146800,0.284146728515625,0.1772928237915039,0.13098382949829102,0.10756534337997437
1761397172386523400,0.3035234375,0.17976951599121094,0.11054039001464844,0.4722468852996826
1761397172405900300,0.322900390625,-0.5634217262268066,0.19011926651000977,0.4860277771949768
1761397172425277200,0.342277099609375,-0.9073638916015625,0.17178964614868164,0.08946764469146729
1761397172444653800,0.36165380859375,-0.5317692756652832,0.1876692771911621,-0.19904088973999023
1761397172464030700,0.38103076171875,-0.15190696716308594,0.1937851905822754,0.17317521572113037
1761397172483407600,0.40040771484375,-0.3369913101196289,0.20822763442993164,0.37828993797302246
1761397172502784300,0.4197841796875,-0.3998565673828125,0.1953716278076172,0.03985393047332764
1761397172522161200,0.4391611328125,0.013918876647949219,0.09993982315063477,-0.17875277996063232
1761397172541537800,0.458537841796875,0.30540943145751953,0.11979007720947266,-0.039096951484680176
1761397172560914700,0.477914794921875,0.09485721588134766,0.2209172248840332,0.2952113151550293
1761397172580291600,0.49729150390625,-0.12808895111083984,0.21281099319458008,0.2631259560585022
1761397172599668200,0.516668212890625,-0.03063488006591797,0.1653447151184082,0.03187215328216553
1761397172619045000,0.536045166015625,0.05931568145751953,0.1518230438232422,0.0041658878326416016
1761397172638421800,0.555421875,-0.04678535461425781,0.15677165985107422,0.06108295917510986
1761397172657798700,0.574798583984375,-0.0699758529663086,0.13261747360229492,0.02524387836456299
1761397172677175300,0.59417529296875,-0.14939403533935547,0.11040496826171875,0.016979336738586426
1761397172696552200,0.61355224609375,-0.1560497283935547,0.1270432472229004,-0.11859548091888428
1761397172715929000,0.63292919921875,-0.3660011291503906,0.15778541564941406,0.022965848445892334
1761397172735305700,0.6523056640625,-0.3234977722167969,0.11012983322143555,-0.05885779857635498
1761397172754682600,0.6716826171875,-0.058203697204589844,0.1093440055847168,-0.20582902431488037
1761397172774059500,0.6910595703125,0.0058765411376953125,0.14956378936767578,0.116424560546875
1761397172793436200,0.710436279296875,-0.3261899948120117,0.15618467330932617,0.27300119400024414
1761397172812813000,0.72981298828125,-0.26023006439208984,0.14574384689331055,-0.06491708755493164
1761397172832189700,0.749189697265625,0.01748371124267578,0.13886690139770508,-0.04423415660858154
1761397172851566600,0.768566650390625,-0.0294647216796875,0.12468290328979492,0.1707150936126709
1761397172870943500,0.787943603515625,-0.0748443603515625,0.08964300155639648,-0.058179616928100586
1761397172890320100,0.807320068359375,-0.014922142028808594,0.08363866806030273,-0.20027542114257812
1761397172909697000,0.826697021484375,-0.12562179565429688,0.13438987731933594,0.16554200649261475
1761397172929073700,0.84607373046875,-0.13338088989257812,0.0789632797241211,0.3416253924369812
1761397172948450600,0.865450439453125,-0.12142753601074219,0.04163932800292969,-0.07941889762878418
1761397172967827500,0.884827392578125,-0.2899646759033203,0.1267223358154297,-0.1916799545288086
1761397172987204000,0.9042041015625,-0.48014259338378906,0.1437821388244629,0.20698821544647217
1761397173006581000,0.9235810546875,-0.3791494369506836,0.2035675048828125,0.1291896104812622
1761397173025957600,0.94295751953125,-0.06344985961914062,0.24733448028564453,0.023920416831970215
1761397173045334500,0.96233447265625,-0.03743267059326172,0.39664459228515625,0.2558908462524414
1761397173064711400,0.98171142578125,0.16761493682861328,0.5069642066955566,0.45530545711517334
1761397173084088000,1.001088134765625,0.8705062866210938,0.4259815216064453,0.388793408870697
1761397173103465000,1.02046484375,0.6644210815429688,0.5007843971252441,0.41708242893218994
1761397173122841600,1.039841552734375,-0.045487403869628906,0.636204719543457,0.6260433197021484
1761397173142218500,1.059218505859375,-0.27111244201660156,0.6241636276245117,0.5257755517959595
1761397173161595400,1.078595458984375,-0.2337493896484375,0.534550666809082,0.10125696659088135
1761397173180972000,1.097971923828125,-0.8611011505126953,0.38941192626953125,0.09928542375564575
1761397173200349000,1.117348876953125,-1.525902271270752,0.4155144691467285,0.2140224277973175
1761397173219725600,1.1367255859375,-2.212026596069336,0.326601505279541,0.24390169978141785
1761397173239089000,1.1560888671875,-3.1307291984558105,0.16309499740600586,0.20468008518218994
1761397173258479400,1.175479248046875,-3.495637893676758,0.3568606376647949,0.16264081001281738
1761397173277856000,1.19485595703125,-2.6528658866882324,0.1310582160949707,0.2513259947299957
1761397173297233000,1.21423291015625,-1.3186101913452148,-0.2735872268676758,-0.09349632263183594
1761397173316609500,1.233609619140625,-2.5041112899780273,-0.6102800369262695,-0.18283021450042725
1761397173335986400,1.252986328125,-3.5915732383728027,0.1411590576171875,-1.092954158782959
1761397173355363300,1.27236328125,-2.666567802429199,0.5360283851623535,-1.4274318218231201
1761397173374740000,1.291739990234375,-1.024848461151123,0.5361113548278809,-0.5423329472541809
1761397173394116900,1.311116943359375,-0.9446697235107422,1.5070552825927734,-0.623604953289032
1761397173413480200,1.330480224609375,2.1299686431884766,1.4683988094329834,-1.5992809534072876
1761397173432870400,1.349870361328125,2.5039329528808594,0.325793981552124,-2.8650553226470947
1761397173452247300,1.369247314453125,3.272271156311035,-3.7729897499084473,1.2626484632492065
1761397173471610600,1.388610595703125,12.15717887878418,2.837343692779541,0.16139064729213715
1761397173491000800,1.408000732421875,12.280350685119629,1.4316737651824951,-1.3387864828109741
1761397173510377700,1.427377685546875,14.295812606811523,1.3390858173370361,0.5163724422454834
1761397173529740800,1.44674072265625,14.11266803741455,0.8320422172546387,4.880362033843994
1761397173549131300,1.46613134765625,8.247182846069336,1.1152114868164062,5.301470756530762
1761397173568508000,1.4855078125,4.187639236450195,0.016578197479248047,3.2804152965545654
1761397173587871200,1.504871337890625,-1.0165481567382812,-1.0434985160827637,1.7747386693954468
1761397173607261400,1.524261474609375,-6.581958293914795,-1.5951576232910156,1.025305151939392
1761397173626638300,1.543638427734375,-8.746562957763672,-2.247697591781616,0.25841212272644043
1761397173646001700,1.563001708984375,-9.18416976928711,-3.181173801422119,-1.896885871887207
1761397173665391900,1.582391845703125,-9.819280624389648,-5.190277099609375,-1.5187933444976807
1761397173684768800,1.601768798828125,-9.889235496520996,-5.985405921936035,-1.0538275241851807
1761397173704132000,1.621132080078125,-10.905200004577637,-6.0124688148498535,-1.0622987747192383
1761397173723522300,1.640522216796875,-12.837367057800293,-6.249353885650635,-0.9436763525009155
1761397173742899200,1.659899169921875,-13.902603149414062,-6.374013423919678,-1.1680991649627686
1761397173762275800,1.67927587890625,-12.63484001159668,-5.616782188415527,-1.3749783039093018
1761397173781652700,1.69865283203125,-9.95660400390625,-3.96087908744812,-1.9052128791809082
1761397173801029600,1.718029541015625,-5.386727333068848,-1.9079599380493164,-2.037274122238159
1761397173820392700,1.737392822265625,10.298194885253906,1.3054924011230469,-3.506936550140381
1761397173839783200,1.756783203125,18.36009407043457,1.7214417457580566,1.3808892965316772
1761397173859159800,1.776159912109375,17.399921417236328,1.4045305252075195,4.011505126953125
1761397173878523100,1.795523193359375,16.59215545654297,1.000000238418579,4.166400909423828
1761397173897913600,1.81491357421875,22.601608276367188,-0.2380664348602295,5.686990737915039
1761397173917290200,1.834290283203125,20.550945281982422,0.3226439952850342,4.802584648132324
1761397173936653600,1.853653564453125,8.989639282226562,1.9341700077056885,1.5646021366119385
1761397173956043800,1.873043701171875,-0.5267086029052734,3.4177162647247314,0.1565392017364502
1761397173975420700,1.892420654296875,-5.831538677215576,3.7329049110412598,0.4198894500732422
1761397173994784000,1.911783935546875,-8.9608736038208,2.9953126907348633,-0.2489997148513794
1761397174014174200,1.93117431640625,-10.032564163208008,1.4219915866851807,-1.4452650547027588
1761397174033551000,1.950551025390625,-8.872300148010254,-0.1719965934753418,-0.90092933177948
1761397174052914400,1.96991455078125,-8.222491264343262,-1.0046391487121582,-0.5546982288360596
1761397174072304600,1.9893046875,-8.551671981811523,-1.357957363128662,-1.3012073040008545
1761397174091681500,2.008681640625,-10.46716022491455,-1.6404194831848145,-2.155388593673706
1761397174111044900,2.028044921875,-12.094707489013672,-1.8580574989318848,-3.4550392627716064
1761397174130435000,2.04743505859375,-12.617562294006348,-2.009549140930176,-3.5489919185638428
1761397174149811700,2.066811767578125,-11.252838134765625,-1.7943251132965088,-2.2821857929229736
1761397174169175000,2.086175048828125,-5.987789630889893,0.9419269561767578,-3.216970205307007
1761397174188565500,2.1055654296875,6.707082748413086,5.432749271392822,-6.79030704498291
1761397174207942100,2.124942138671875,17.775272369384766,4.7440032958984375,-3.5794601440429688
1761397174227305500,2.144305419921875,26.619369506835938,1.8549964427947998,3.7133474349975586
1761397174246695700,2.16369580078125,33.26954650878906,-1.5258071422576904,11.73279857635498
1761397174266072600,2.183072509765625,26.186195373535156,-1.1941108703613281,12.513758659362793
1761397174285436000,2.202435791015625,12.08727741241455,0.3199644088745117,8.537044525146484
1761397174304826000,2.221826171875,1.3285808563232422,0.9265074729919434,4.690605640411377
1761397174324203000,2.241203125,-5.924837112426758,0.5136170387268066,1.8507272005081177
1761397174343566300,2.26056640625,-9.08240795135498,-0.14839792251586914,0.33739161491394043
1761397174362956500,2.27995654296875,-10.605269432067871,-1.9119985103607178,1.16487717628479
1761397174382333400,2.29933349609375,-10.993017196655273,-3.42030668258667,1.3087867498397827
1761397174401696800,2.31869677734375,-11.608762741088867,-4.518130302429199,1.276817798614502
1761397174421087000,2.3380869140625,-12.34322452545166,-5.084235191345215,0.4846896529197693
1761397174440464000,2.3574638671875,-13.110130310058594,-5.319225311279297,0.10223701596260071
1761397174459827000,2.376826904296875,-13.719348907470703,-5.260523796081543,-0.20902404189109802
1761397174479217400,2.396217529296875,-14.259435653686523,-4.799839973449707,-1.3206876516342163
1761397174498594000,2.415593994140625,-12.570816040039062,-3.6000900268554688,-2.253323554992676
1761397174517957400,2.434957275390625,-8.506662368774414,-0.44568824768066406,-2.3915185928344727
1761397174537347600,2.45434765625,0.6549301147460938,3.224824905395508,-1.8881924152374268
1761397174556724500,2.473724365234375,12.670830726623535,4.384711742401123,-2.001218795776367
1761397174576087800,2.493087890625,21.523826599121094,3.98397159576416,-1.8110053539276123
1761397174595478000,2.51247802734375,24.06948471069336,2.8858938217163086,1.1048856973648071
1761397174614855000,2.53185498046875,21.612377166748047,3.0068044662475586,3.8156070709228516
1761397174634218200,2.55121826171875,15.076515197753906,3.2142539024353027,3.321580648422241
1761397174653608400,2.5706083984375,6.289137840270996,2.5647854804992676,0.525618314743042
1761397174672985300,2.5899853515625,-0.09986114501953125,1.0798540115356445,0.22984492778778076
1761397174692348700,2.6093486328125,-5.519092559814453,-0.49469995498657227,0.322753369808197
1761397174711739000,2.62873876953125,-7.684287071228027,-1.899960994720459,1.7874984741210938
1761397174731115800,2.64811572265625,-9.214746475219727,-2.781776189804077,2.6885275840759277
1761397174750478800,2.667478759765625,-11.292389869689941,-3.742125988006592,2.9536705017089844
1761397174769869300,2.686869384765625,-12.626181602478027,-4.554330348968506,2.8901872634887695
1761397174789246000,2.706245849609375,-12.871030807495117,-4.805068016052246,2.0986976623535156
1761397174808622800,2.725622802734375,-12.534753799438477,-4.914422035217285,1.4380202293395996
1761397174827999700,2.744999755859375,-12.58954906463623,-4.80715799331665,0.5472478270530701
1761397174847376400,2.76437646484375,-11.773531913757324,-4.312761306762695,-0.3656121492385864
1761397174866739700,2.78373974609375,-8.3451566696167,-2.1080212593078613,-1.7835638523101807
1761397174886130000,2.8031298828125,-1.5081796646118164,1.4262428283691406,-2.2217986583709717
1761397174905506800,2.8225068359375,10.245353698730469,5.028379917144775,-3.197023868560791
1761397174924870100,2.8418701171875,17.474750518798828,8.067734718322754,-3.712136745452881
1761397174944260400,2.86126025390625,17.720598220825195,7.6308112144470215,-0.9597941040992737
1761397174963637200,2.88063720703125,19.108882904052734,5.379946708679199,2.131298303604126
1761397174983000600,2.90000048828125,18.18219757080078,3.6836495399475098,2.350977897644043
1761397175002390800,2.919390869140625,11.61518383026123,3.16139554977417,1.044265627861023
1761397175021767700,2.938767578125,3.7228593826293945,2.063760280609131,0.1780107021331787
1761397175041131000,2.958131103515625,-1.3617777824401855,0.6009325981140137,0.054073870182037354
1761397175060521200,2.977521240234375,-4.727010726928711,-0.7648534774780273,0.417544424533844
1761397175079897900,2.99689794921875,-6.804903507232666,-1.8302936553955078,1.3258764743804932
1761397175099261200,3.01626123046875,-8.37344741821289,-2.5042061805725098,2.7032108306884766
1761397175118651600,3.035651611328125,-9.779487609863281,-3.135446310043335,3.7367401123046875
1761397175138028300,3.0550283203125,-10.379545211791992,-3.4977684020996094,2.5840680599212646
1761397175157391600,3.0743916015625,-10.12446403503418,-3.5686168670654297,0.7999575138092041
1761397175176781800,3.09378173828125,-9.565464973449707,-3.473083734512329,-0.2222387194633484
1761397175196158700,3.11315869140625,-8.890793800354004,-3.4107985496520996,-0.9186238050460815
1761397175215522000,3.13252197265625,-7.506106376647949,-2.9755120277404785,-0.03786814212799072
1761397175234912300,3.151912353515625,-4.451220512390137,-2.080469846725464,0.39314985275268555
1761397175254289200,3.1712890625,1.100137710571289,-0.7855410575866699,0.33721065521240234
1761397175273652500,3.190652587890625,7.475218772888184,0.7243466377258301,0.46829116344451904
1761397175293042700,3.210042724609375,11.948467254638672,3.5349059104919434,-1.1391191482543945
1761397175312419600,3.229419677734375,13.853965759277344,6.343559265136719,-2.2336058616638184
1761397175331783000,3.248782958984375,13.004325866699219,8.152835845947266,-0.5600526332855225
1761397175351173000,3.268173095703125,13.244431495666504,6.018970489501953,3.5962462425231934
1761397175370550000,3.287550048828125,15.362544059753418,2.880481243133545,4.517269611358643
1761397175389913000,3.3069130859375,13.828365325927734,0.789130687713623,2.2698354721069336
1761397175409303600,3.326303466796875,7.6657915115356445,0.5029683113098145,0.6103367805480957
1761397175428680200,3.34568017578125,1.290496826171875,-0.5397262573242188,0.5813126564025879
1761397175448043500,3.36504345703125,-2.89143705368042,-1.59549880027771,0.011956572532653809
1761397175467433700,3.384433837890625,-5.551455497741699,-2.5006103515625,-0.21034181118011475
1761397175486810600,3.403810546875,-8.083259582519531,-4.145061016082764,0.5087343454360962
1761397175506174000,3.423174072265625,-10.219623565673828,-5.382612228393555,-0.19030451774597168
1761397175525564200,3.442564208984375,-11.252500534057617,-7.10798978805542,0.7974272966384888
1761397175544941000,3.461941162109375,-12.609716415405273,-7.609708309173584,0.7748287916183472
1761397175564304400,3.481304443359375,-13.507818222045898,-7.70164680480957,-0.2588469982147217
1761397175583694600,3.500694580078125,-13.96590805053711,-7.119597434997559,-1.646430492401123
1761397175603071500,3.520071533203125,-13.398609161376953,-6.0991339683532715,-2.751406669616699
1761397175622434800,3.539434814453125,-10.573453903198242,-4.772691249847412,-4.315675735473633
1761397175641825000,3.558824951171875,-6.169653415679932,-1.7137045860290527,-4.392168045043945
1761397175661202000,3.578201904296875,0.5801787376403809,4.178164958953857,-3.879612445831299
1761397175680565000,3.59756494140625,9.396218299865723,6.861804008483887,-1.235886573791504
1761397175699955500,3.61695556640625,20.305992126464844,6.615901947021484,2.7210140228271484
1761397175719332000,3.63633203125,26.505355834960938,4.54848051071167,7.34315824508667
1761397175738695400,3.6556953125,23.242206573486328,3.821280002593994,4.615562915802002
1761397175758086000,3.6750859375,16.05544090270996,4.462180137634277,1.9915179014205933
1761397175777462500,3.694462646484375,9.079651832580566,4.089687347412109,2.2500977516174316
1761397175796825900,3.713825927734375,2.828932762145996,2.4394235610961914,2.3852286338806152
1761397175816216300,3.73321630859375,-3.044297695159912,0.6835145950317383,1.1762088537216187
1761397175835593000,3.752593017578125,-6.784231185913086,-1.1139583587646484,0.5963661670684814
1761397175854956300,3.771956298828125,-8.888251304626465,-2.840956926345825,1.1294769048690796
1761397175874346500,3.791346435546875,-10.144237518310547,-4.43309211730957,1.5928966999053955
1761397175893723400,3.810723388671875,-10.672300338745117,-5.607878684997559,0.9638499021530151
1761397175913086700,3.830086669921875,-10.190454483032227,-6.202216148376465,-0.367496132850647
1761397175932477000,3.849476806640625,-9.508390426635742,-6.433830738067627,-1.1624122858047485
1761397175951853800,3.868853759765625,-9.117536544799805,-6.529568672180176,-0.9068116545677185
1761397175971230500,3.88823046875,-8.585075378417969,-5.837706565856934,-1.3631951808929443
1761397175990607400,3.907607421875,-7.322528839111328,-4.404818534851074,-2.1251461505889893
1761397176009984000,3.92698388671875,-4.73556661605835,-2.7719569206237793,-1.2823760509490967
1761397176029347300,3.946347412109375,-1.4306254386901855,0.13480710983276367,-0.0007290467619895935
1761397176048737800,3.96573779296875,2.655867576599121,3.8976683616638184,-2.4424686431884766
1761397176068114400,3.985114501953125,7.845437526702881,7.795936107635498,-4.401283264160156
1761397176087477800,4.004477783203125,12.97488021850586,8.327802658081055,0.9432151913642883
1761397176106868200,4.0238681640625,17.747177124023438,7.785492897033691,3.02822208404541
1761397176126244900,4.043244873046875,19.322784423828125,7.517876148223877,-0.03910088539123535
1761397176145608200,4.062608154296875,17.706754684448242,6.6462836265563965,-0.1391778588294983
1761397176164998400,4.081998291015625,13.030872344970703,3.9399704933166504,3.4559202194213867
1761397176184375300,4.101375244140625,6.0973358154296875,1.2640514373779297,4.818356513977051
1761397176203738600,4.120738525390625,-2.52799654006958,-0.6176419258117676,3.137434244155884
1761397176223128800,4.14012890625,-9.120437622070312,-1.8649349212646484,1.5233466625213623
1761397176242505700,4.159505615234375,-11.38463020324707,-4.398484706878662,1.3380234241485596
1761397176261869000,4.178869140625,-10.32511043548584,-6.554433822631836,0.26900744438171387
1761397176281259300,4.19825927734375,-7.233296871185303,-7.957725524902344,-1.7830634117126465
1761397176300636200,4.21763623046875,-3.3311381340026855,-8.555116653442383,-3.1157805919647217
1761397176319999500,4.23699951171875,-1.3399057388305664,-8.514151573181152,-2.829904794692993
1761397176339389700,4.2563896484375,-2.2729616165161133,-8.041282653808594,-1.4581801891326904
1761397176358766300,4.275766357421875,-4.329408168792725,-6.827863693237305,-1.1122978925704956
1761397176378129700,4.295129638671875,-6.447314262390137,-5.181495666503906,-0.961756706237793
1761397176397520100,4.31452001953125,-6.367208480834961,-3.410046100616455,-0.028041362762451172
1761397176416896800,4.333896728515625,-2.3428821563720703,-1.3492546081542969,1.1809184551239014
1761397176436260000,4.353260009765625,2.305264949798584,1.9867286682128906,0.5590676069259644
1761397176455650300,4.372650390625,3.564791202545166,5.155857563018799,-1.4707276821136475
1761397176475027200,4.392027099609375,5.294114112854004,7.004505634307861,-1.466483235359192
1761397176494390500,4.411390625,8.044474601745605,8.603681564331055,-0.9406870603561401
1761397176513780700,4.43078076171875,8.18187141418457,8.433904647827148,-0.2508060932159424
1761397176533157600,4.45015771484375,8.53442096710205,6.743691444396973,0.19187724590301514
1761397176552521000,4.46952099609375,10.287105560302734,4.250153541564941,0.8669105768203735
1761397176571911200,4.4889111328125,7.715848445892334,1.03717041015625,2.787497043609619
1761397176591288000,4.5082880859375,1.250669002532959,-1.2207860946655273,2.708743095397949
1761397176610651400,4.5276513671875,-4.711995601654053,-3.1338677406311035,1.326051115989685
1761397176630041600,4.54704150390625,-8.137907028198242,-5.085495948791504,0.32318758964538574
1761397176649418500,4.56641845703125,-9.362771987915039,-6.904423713684082,-0.23064970970153809
1761397176668781600,4.585781494140625,-8.953513145446777,-8.155677795410156,-0.7792121767997742
1761397176688172000,4.605172119140625,-7.711864948272705,-8.519332885742188,-1.668046474456787
1761397176707548700,4.624548583984375,-6.7693352699279785,-8.395140647888184,-2.1293816566467285
1761397176726925600,4.643925537109375,-6.624030590057373,-7.790372848510742,-2.473931074142456
1761397176746302500,4.663302490234375,-7.658084869384766,-6.675326347351074,-2.517845630645752
1761397176765679000,4.68267919921875,-8.06412124633789,-5.48914909362793,-1.9592697620391846
1761397176785042400,4.70204248046875,-5.985751152038574,-3.7593419551849365,-0.6051554679870605
1761397176804432600,4.7214326171875,-3.0063118934631348,0.12044906616210938,0.18848049640655518
1761397176823809500,4.7408095703125,2.1136274337768555,4.586666107177734,-1.6638998985290527
1761397176843172900,4.7601728515625,11.311344146728516,7.780451774597168,-3.7806921005249023
1761397176862563000,4.77956298828125,17.456253051757812,8.684539794921875,-0.6834154725074768
1761397176881940000,4.79893994140625,17.275955200195312,7.766422271728516,2.8845319747924805
1761397176901303300,4.81830322265625,17.14765739440918,5.869250297546387,5.389837265014648
1761397176920693500,4.837693603515625,14.371604919433594,4.206833839416504,5.744781494140625
1761397176940070400,4.8570703125,7.459582805633545,2.9516725540161133,2.8066136837005615
1761397176959433500,4.87643359375,1.4600753784179688,1.5031652450561523,0.7127156257629395
1761397176978824000,4.895823974609375,-2.116147994995117,0.23894977569580078,-0.6663957834243774
1761397176998200600,4.91520068359375,-4.795351982116699,-0.9556412696838379,-1.4511805772781372
1761397177017564000,4.93456396484375,-8.414134979248047,-2.2380571365356445,-1.1629786491394043
1761397177036954400,4.953954345703125,-11.302709579467773,-3.289033889770508,-1.646894097328186
1761397177056331000,4.9733310546875,-12.219976425170898,-3.9083662033081055,-2.756274700164795
1761397177075708000,4.9927080078125,-11.283594131469727,-4.276756286621094,-3.4333043098449707
1761397177095084800,5.012084716796875,-9.022254943847656,-4.458703517913818,-3.3915340900421143
1761397177114461400,5.03146142578125,-7.214171409606934,-4.126800537109375,-3.81261944770813
1761397177133824800,5.05082470703125,-6.528682708740234,-3.652193546295166,-2.9548797607421875
1761397177153215000,5.070215087890625,-5.498334884643555,-2.394857168197632,-1.8717893362045288
1761397177172591900,5.089591796875,0.9860296249389648,1.0080156326293945,-2.456359386444092
1761397177191955200,5.108955078125,10.14795970916748,3.7872581481933594,0.17339730262756348
1761397177211345400,5.128345458984375,12.829401016235352,6.694469451904297,1.5230507850646973
1761397177230722300,5.147722412109375,12.287484169006348,6.5841498374938965,4.670775413513184
1761397177250085600,5.167085693359375,16.974971771240234,3.345365524291992,6.837148666381836
1761397177269475800,5.186475830078125,21.672544479370117,-0.12096357345581055,5.90596866607666
1761397177288852700,5.205852783203125,19.406356811523438,-1.2746975421905518,4.261745452880859
1761397177308215800,5.2252158203125,10.253252983093262,-0.5664856433868408,2.9212393760681152
1761397177327606300,5.244606201171875,0.060105323791503906,0.10995912551879883,2.1053404808044434
1761397177346983000,5.26398291015625,-8.295222282409668,0.4089212417602539,1.54027259349823
1761397177366346200,5.28334619140625,-13.064849853515625,-0.2100367546081543,2.112055778503418
1761397177385736700,5.30273681640625,-15.094529151916504,-1.5700039863586426,2.7964982986450195
1761397177405113300,5.32211328125,-14.497774124145508,-3.213841438293457,1.8639551401138306
1761397177424476700,5.3414765625,-11.869231224060059,-4.144986152648926,0.021425604820251465
1761397177443867100,5.3608671875,-9.797632217407227,-4.432507514953613,-2.4376373291015625
1761397177463243800,5.380243896484375,-8.903717041015625,-4.466844081878662,-3.236926555633545
1761397177482620700,5.39962060546875,-8.982332229614258,-4.424698829650879,-2.9950201511383057
1761397177501997300,5.418997314453125,-8.925345420837402,-4.19475793838501,-2.7161383628845215
1761397177521374200,5.438374267578125,-6.955843925476074,-2.8430569171905518,-3.065596103668213
1761397177540737500,5.457737548828125,-1.9751834869384766,-0.3148984909057617,-4.362617015838623
1761397177560127700,5.477127685546875,5.683498382568359,4.047815799713135,-3.7787976264953613
1761397177579504600,5.496504638671875,11.829368591308594,9.097936630249023,-3.5917673110961914
1761397177598868000,5.515867919921875,16.675506591796875,7.2163214683532715,2.0500636100769043
1761397177618258200,5.535258056640625,25.411367416381836,1.3682022094726562,7.9780192375183105
1761397177637635000,5.554635009765625,27.180870056152344,-1.8449363708496094,5.088144302368164
1761397177656998400,5.573998291015625,19.812511444091797,-1.5632362365722656,1.911630392074585
1761397177676388600,5.593388671875,7.5884504318237305,-0.9215364456176758,1.2258392572402954
1761397177695765200,5.61276513671875,-2.8139991760253906,-1.0210089683532715,1.5543946027755737
1761397177715128600,5.632128662109375,-9.383313179016113,-1.6204805374145508,1.6643893718719482
1761397177734519000,5.65151904296875,-12.09399127960205,-2.6957693099975586,2.0096402168273926
1761397177753895700,5.670895751953125,-12.22310733795166,-4.036538124084473,3.3248720169067383
1761397177773259000,5.690259033203125,-11.551214218139648,-4.8358612060546875,4.536706447601318
1761397177792649200,5.709649169921875,-10.851608276367188,-5.299654960632324,4.037951469421387
1761397177812026000,5.729026123046875,-10.151233673095703,-5.71693754196167,2.1283230781555176
1761397177831389400,5.748389404296875,-9.953506469726562,-5.756580352783203,-0.3306093215942383
1761397177850779600,5.767779541015625,-9.839147567749023,-5.563802719116211,-1.6695702075958252
1761397177870156500,5.787156494140625,-9.35891342163086,-4.7473859786987305,-1.5176831483840942
1761397177889519900,5.806519775390625,-6.516927242279053,-2.056155204772949,-2.075237274169922
1761397177908910000,5.82591015625,0.8770503997802734,2.388059616088867,-3.16105055809021
1761397177928287000,5.845286865234375,9.38604736328125,6.7786664962768555,-1.2736899852752686
1761397177947650300,5.864650390625,12.822502136230469,9.307901382446289,1.339863896369934
1761397177967040500,5.88404052734375,18.572389602661133,9.82506275177002,2.6162850856781006
1761397177986417400,5.90341748046875,20.39238166809082,8.522867202758789,1.47797429561615
1761397178005780700,5.92278076171875,17.15074348449707,6.0489702224731445,0.5232254266738892
1761397178025171000,5.9421708984375,11.968606948852539,3.2405972480773926,-0.49829232692718506
1761397178044547600,5.961547607421875,5.301835060119629,1.154676914215088,-1.0705475807189941
1761397178063911000,5.980910888671875,-1.6144294738769531,-0.1395111083984375,-0.07550084590911865
1761397178083301400,6.00030126953125,-6.1445159912109375,-1.480215072631836,0.6134763956069946
1761397178102678000,6.019677978515625,-7.643581390380859,-2.520218849182129,0.5055210590362549
1761397178122041300,6.039041259765625,-7.773428916931152,-3.9419243335723877,1.531376838684082
1761397178141431600,6.058431640625,-7.385173797607422,-5.494044780731201,2.478672504425049
1761397178160808400,6.077808349609375,-7.072138786315918,-6.538207054138184,1.9669835567474365
1761397178180171800,6.097171875,-6.880137920379639,-7.1910810470581055,0.7391422986984253
1761397178199562000,6.11656201171875,-7.05530309677124,-7.481210231781006,-0.5195420980453491
1761397178218939000,6.13593896484375,-8.23060417175293,-7.490628719329834,-1.5837204456329346
1761397178238302200,6.15530224609375,-8.634401321411133,-7.374413967132568,-2.0303151607513428
1761397178257692400,6.1746923828125,-7.010915279388428,-6.265966415405273,-2.9934613704681396
1761397178277069300,6.1940693359375,-4.528744220733643,-3.9522414207458496,-3.6945607662200928
1761397178296432600,6.2134326171875,-0.6681933403015137,-1.01851224899292,-1.8398120403289795
1761397178315822800,6.23282275390625,8.800552368164062,2.635615825653076,1.70215904712677
1761397178335199700,6.25219970703125,15.715471267700195,5.968674659729004,0.31205475330352783
1761397178354563000,6.27156298828125,9.281515121459961,8.582587242126465,-2.44899320602417
1761397178373953300,6.290953369140625,5.851805686950684,8.604623794555664,-0.7088088989257812
1761397178393330200,6.310330078125,9.964069366455078,5.213475227355957,0.24033963680267334
1761397178412693200,6.329693359375,15.004194259643555,2.9687552452087402,-2.1455180644989014
1761397178432083700,6.349083740234375,13.41939926147461,1.6711888313293457,-0.9493910074234009
1761397178451460400,6.36846044921875,5.500526428222656,0.47093868255615234,2.0139312744140625
1761397178470823700,6.38782373046875,-4.11262845993042,-0.8426094055175781,2.7021126747131348
1761397178490214000,6.4072138671875,-9.898223876953125,-2.120785713195801,1.6739221811294556
1761397178509590800,6.4265908203125,-12.096738815307617,-3.7597055435180664,1.2264585494995117
1761397178528954000,6.4459541015625,-11.392107009887695,-5.561264991760254,0.9969691038131714
1761397178548344300,6.46534423828125,-8.563469886779785,-6.443751335144043,0.23133206367492676
1761397178567721200,6.48472119140625,-5.543929576873779,-6.429938316345215,-0.7232428789138794
1761397178587084500,6.50408447265625,-2.7528390884399414,-5.8837361335754395,-1.3752185106277466
1761397178606474800,6.523474853515625,-1.6891255378723145,-5.091496467590332,-1.9455379247665405
1761397178625851600,6.5428515625,-2.701697587966919,-3.6960859298706055,-1.8846189975738525
1761397178645215000,6.562215087890625,-2.5008721351623535,-2.2283573150634766,-0.8094627857208252
1761397178664605200,6.581605224609375,1.628401756286621,0.23627424240112305,-0.2980756461620331
1761397178683982000,6.600982177734375,5.861172199249268,4.0961408615112305,-0.5696296691894531
1761397178703345400,6.620345458984375,6.708258152008057,5.9582366943359375,-0.16176575422286987
1761397178722735600,6.639735595703125,7.535163402557373,6.188167095184326,-0.2562462091445923
1761397178742112500,6.659112548828125,9.79019546508789,5.4496283531188965,0.778526782989502
1761397178761475600,6.6784755859375,11.185056686401367,3.1914262771606445,1.1812381744384766
1761397178780866000,6.697865966796875,12.058062553405762,2.4752864837646484,-1.040367841720581
1761397178800242700,6.71724267578125,8.583386421203613,2.0794811248779297,-0.8897386789321899
1761397178819606000,6.73660595703125,2.0637264251708984,1.248845100402832,0.8019646406173706
1761397178838996500,6.75599658203125,-3.0185914039611816,-0.08164119720458984,1.038804054260254
1761397178858373000,6.775373046875,-6.257412910461426,-1.6177105903625488,0.3423005938529968
1761397178877736400,6.794736328125,-7.601971626281738,-3.2339906692504883,-0.1388106346130371
1761397178897126700,6.814126708984375,-7.076528549194336,-4.617932319641113,-0.271947979927063
1761397178916503600,6.833503662109375,-5.681187629699707,-5.604527473449707,-0.4301488995552063
1761397178935867000,6.852866943359375,-4.002444267272949,-6.062105178833008,-0.5564419627189636
1761397178955257000,6.872257080078125,-3.2543976306915283,-6.142685890197754,-0.28087711334228516
1761397178974634000,6.891634033203125,-3.949392557144165,-5.752401351928711,0.10172462463378906
1761397178993997300,6.910997314453125,-5.14963436126709,-4.7695817947387695,0.7204445004463196
1761397179013387500,6.930387451171875,-4.783080101013184,-2.8228445053100586,1.0261592864990234
1761397179032764400,6.949764404296875,-2.5418622493743896,-0.3154630661010742,0.9833031892776489
1761397179052127700,6.969127685546875,1.2389979362487793,2.746626377105713,1.3777458667755127
1761397179071518000,6.98851806640625,5.2339887619018555,5.45697546005249,-0.1025109589099884
1761397179090894800,7.007894775390625,6.985675811767578,6.994006156921387,-3.0971767902374268
1761397179110258000,7.0272578125,5.8726420402526855,8.109701156616211,-2.604365110397339
1761397179129648400,7.0466484375,3.9468650817871094,7.015417098999023,-1.7923386096954346
1761397179149025000,7.06602490234375,6.13485050201416,4.086230278015137,-0.3586624264717102
1761397179168388400,7.085388427734375,9.327081680297852,1.3425593376159668,0.36316952109336853
1761397179187778800,7.10477880859375,8.26809310913086,-1.1732258796691895,1.4982104301452637
1761397179207155500,7.124155517578125,3.297651767730713,-2.5351710319519043,1.9503157138824463
1761397179226518800,7.143518798828125,-2.0983142852783203,-3.032022476196289,0.7486087679862976
1761397179245909000,7.162908935546875,-6.391543865203857,-3.2813243865966797,-0.4201274812221527
1761397179265286000,7.182285888671875,-8.598726272583008,-3.970914840698242,-0.06460314989089966
1761397179284649200,7.201649169921875,-7.880971908569336,-4.833525657653809,0.4216947555541992
1761397179304039400,7.221039306640625,-6.038318634033203,-5.314566135406494,0.4421532154083252
1761397179323416300,7.240416259765625,-4.099586009979248,-5.4751787185668945,0.44057947397232056
1761397179342779600,7.259779541015625,-2.8708906173706055,-5.174586296081543,0.35435885190963745
1761397179362169900,7.279169921875,-1.9619574546813965,-4.259321689605713,0.22750236093997955
1761397179381546800,7.298546630859375,-2.001204013824463,-3.185225009918213,1.0123677253723145
1761397179400910000,7.31791015625,-1.6732192039489746,-1.7239813804626465,1.5362950563430786
1761397179420300300,7.33730029296875,1.7850470542907715,0.9077897071838379,-0.11383630335330963
1761397179439677200,7.35667724609375,4.774482727050781,4.758142948150635,-3.359412431716919
1761397179459040300,7.376040283203125,2.8376760482788086,6.6470046043396,-3.085944414138794
1761397179478430700,7.3954306640625,0.21426153182983398,7.394976615905762,0.6944900751113892
1761397179497807400,7.414807373046875,3.313140392303467,5.238185405731201,4.76821231842041
1761397179517170700,7.434170654296875,9.674203872680664,1.9979238510131836,4.9713544845581055
1761397179536561200,7.45356103515625,13.794021606445312,1.2747197151184082,1.801905632019043
1761397179555937800,7.472937744140625,12.672342300415039,2.4960107803344727,0.7716131806373596
1761397179575301000,7.492301025390625,6.483700752258301,0.4463071823120117,1.947902798652649
1761397179594691600,7.511691650390625,-0.5989913940429688,-1.0455527305603027,0.8099120855331421
1761397179614068200,7.531068115234375,-5.281321048736572,-2.157538414001465,-0.25106605887413025
1761397179633431600,7.550431640625,-8.497062683105469,-3.341247797012329,-0.4748450517654419
1761397179652821800,7.56982177734375,-8.129453659057617,-4.711082458496094,-0.0786098837852478
1761397179672198700,7.58919873046875,-6.195370674133301,-6.049045562744141,0.4639325737953186
1761397179691562000,7.60856201171875,-4.36600399017334,-6.845003604888916,0.3478596806526184
1761397179710952200,7.6279521484375,-3.3499326705932617,-6.705425262451172,-0.07125473022460938
1761397179730329000,7.6473291015625,-4.372016429901123,-5.711912631988525,-0.6645553708076477
1761397179749692400,7.6666923828125,-5.497507095336914,-4.211416721343994,-1.3333485126495361
1761397179769082600,7.68608251953125,-4.293757438659668,-1.550285816192627,-2.482689142227173
1761397179788459500,7.70545947265625,-0.056775569915771484,2.2149600982666016,-2.827315092086792
1761397179807822600,7.724822509765625,4.550114154815674,5.349781036376953,-4.26265811920166
1761397179827213000,7.744213134765625,5.611870288848877,5.625921249389648,-3.5784995555877686
1761397179846589700,7.763589599609375,6.948672294616699,6.629627704620361,-1.1358784437179565
1761397179865953000,7.782953125,12.728487014770508,5.273009777069092,1.8310853242874146
1761397179885343500,7.802343505859375,16.111669540405273,3.4189767837524414,1.3475325107574463
1761397179904720100,7.82172021484375,13.223129272460938,2.524836540222168,0.2896841764450073
1761397179924083500,7.84108349609375,6.013640403747559,0.32634544372558594,2.0272865295410156
1761397179943474000,7.860473876953125,-0.47461986541748047,-0.6749744415283203,1.0019794702529907
1761397179962850600,7.8798505859375,-4.912825107574463,-1.4278759956359863,-0.20863209664821625
1761397179982214000,7.8992138671875,-6.3577656745910645,-2.3469719886779785,-0.039877213537693024
1761397180001604000,7.91860400390625,-5.890404224395752,-3.5892128944396973,0.7018026113510132
1761397180020981000,7.93798095703125,-5.368953704833984,-5.258364677429199,1.885095477104187
1761397180040344300,7.95734423828125,-4.3580780029296875,-6.247507095336914,2.0785672664642334
1761397180059734500,7.976734619140625,-3.79001784324646,-6.504404544830322,1.7400256395339966
1761397180079111400,7.996111328125,-4.69951868057251,-6.702415466308594,2.087120532989502
1761397180098474800,8.015474853515625,-5.668272495269775,-5.903825759887695,0.6332777142524719
1761397180117865000,8.034864990234375,-5.899081230163574,-4.77672004699707,-0.8688752055168152
1761397180137241900,8.054241943359376,-5.096190929412842,-2.8539938926696777,-2.237621545791626
1761397180156605000,8.07360498046875,-2.214900493621826,0.5555810928344727,-2.9740781784057617
1761397180175995400,8.092995361328125,1.81502103805542,4.705564498901367,-3.2388815879821777
1761397180195372000,8.1123720703125,3.0605382919311523,7.193708419799805,-2.6714818477630615
1761397180214735400,8.1317353515625,1.0245380401611328,7.092595100402832,-0.9423284530639648
1761397180234125800,8.151125732421875,4.768317222595215,5.23974084854126,0.8006311655044556
1761397180253502500,8.17050244140625,12.826559066772461,2.723832607269287,0.6379575729370117
1761397180272865800,8.18986572265625,15.669740676879883,2.982738971710205,-1.9967801570892334
1761397180292256300,8.20925634765625,10.818265914916992,2.9132652282714844,-2.378474235534668
1761397180311633000,8.2286328125,4.274141788482666,1.603342056274414,-1.6067070960998535
1761397180330996200,8.247996337890624,-1.5207204818725586,0.24407482147216797,-1.5752720832824707
1761397180350386400,8.267386474609374,-4.734143257141113,-1.217911720275879,-1.4122321605682373
1761397180369763300,8.286763427734375,-4.75237512588501,-2.536440849304199,-0.23138251900672913
1761397180389126700,8.306126708984374,-4.2889556884765625,-3.942054271697998,1.8343228101730347
1761397180408516900,8.325516845703126,-3.3587615489959717,-5.331492900848389,2.4214768409729004
1761397180427893800,8.344893798828124,-2.163379192352295,-6.277791976928711,1.4671276807785034
1761397180447257000,8.364257080078126,-2.424466609954834,-6.612090110778809,0.6841776371002197
1761397180466647300,8.383647216796875,-3.419161081314087,-6.629630088806152,0.7028061151504517
1761397180486024200,8.403024169921874,-3.4947566986083984,-6.172569274902344,1.04404878616333
1761397180505400800,8.42240087890625,-3.2170729637145996,-5.484356880187988,0.5816086530685425
1761397180524777700,8.44177783203125,-3.0608839988708496,-4.378409385681152,-0.17578589916229248
1761397180544154400,8.461154296875,-2.1544179916381836,-2.5650739669799805,0.5884724855422974
1761397180563517700,8.480517578125,-0.9300651550292969,0.5616641044616699,1.6385993957519531
1761397180582908200,8.499908203125,0.1688995361328125,4.143895149230957,2.0646305084228516
1761397180602284800,8.519284912109375,1.6391730308532715,6.302829742431641,1.914281964302063
1761397180621648100,8.538648193359375,3.340775966644287,6.237462997436523,0.10415476560592651
1761397180641038600,8.55803857421875,6.6311564445495605,5.638693332672119,-2.1881916522979736
1761397180660415200,8.577415283203125,12.979246139526367,3.8613762855529785,-3.3141465187072754
1761397180679778600,8.596778564453125,19.35919761657715,3.465914726257324,-3.5493180751800537
1761397180699168800,8.616168701171874,15.73123550415039,1.9054198265075684,0.00620684027671814
1761397180718545700,8.635545654296875,4.762289524078369,0.17098617553710938,3.2103803157806396
1761397180737909000,8.654908935546874,-4.05864953994751,-0.5036907196044922,3.0379691123962402
1761397180757299200,8.67429931640625,-8.755046844482422,-1.251678466796875,2.093817710876465
1761397180776676000,8.693676025390625,-10.464584350585938,-2.5788450241088867,1.7178313732147217
1761397180796039400,8.713039306640624,-9.376169204711914,-4.0354108810424805,0.462274432182312
1761397180815429600,8.7324296875,-6.243067741394043,-5.354979515075684,-0.6808835864067078
1761397180834806500,8.751806640625,-3.8456759452819824,-6.648890018463135,-1.309017300605774
1761397180854169900,8.771169921875,-2.693775177001953,-6.921574115753174,-2.4571399688720703
1761397180873560000,8.79056005859375,-2.7242517471313477,-5.763425350189209,-2.919931650161743
1761397180892936700,8.809936767578124,-3.1159276962280273,-5.155738830566406,-1.8137212991714478
1761397180912313600,8.829313720703125,-2.9328742027282715,-4.524477005004883,-1.15378999710083
1761397180931690500,8.8486904296875,-1.977259635925293,-2.250217914581299,-1.6122891902923584
1761397180951067100,8.868067138671876,-0.2549285888671875,1.4641451835632324,-2.1189346313476562
1761397180970430500,8.887430419921875,2.908203125,5.148345947265625,-2.4505181312561035
1761397180989821000,8.906821044921875,7.717767715454102,6.142755031585693,-1.0450787544250488
1761397181009197600,8.926197509765625,9.067855834960938,4.813467979431152,0.827364981174469
1761397181028561000,8.945560791015625,10.3434476852417,3.930014133453369,0.8583031892776489
1761397181047951000,8.964951171875,10.886173248291016,4.449103355407715,-1.01287841796875
1761397181067328000,8.984327880859375,7.522743225097656,4.694649696350098,-1.228141188621521
1761397181086691300,9.00369140625,3.169309616088867,3.6394243240356445,0.39315181970596313
1761397181106081500,9.02308154296875,-1.1531720161437988,0.8847823143005371,2.4183449745178223
1761397181125458400,9.04245849609375,-4.661690711975098,-2.311319351196289,1.3808999061584473
1761397181144821800,9.06182177734375,-4.632617473602295,-4.7235918045043945,-1.4444234371185303
1761397181164212000,9.0812119140625,-3.339021921157837,-5.863302707672119,-2.8060214519500732
1761397181183588900,9.1005888671875,-2.2077279090881348,-6.315022945404053,-1.5604586601257324
1761397181202965500,9.119965576171875,-2.0316529273986816,-6.176797866821289,-0.44412925839424133
1761397181222342400,9.13934228515625,-3.714045524597168,-5.79632568359375,-0.5215430855751038
1761397181241719000,9.158718994140624,-6.10900354385376,-5.143109321594238,-0.7506293058395386
1761397181261096000,9.178095947265625,-6.7123894691467285,-4.848269462585449,-0.15712696313858032
1761397181280472800,9.197472900390625,-4.24492073059082,-4.695631980895996,0.18794918060302734
1761397181299849500,9.216849365234374,-1.6968770027160645,-3.577075719833374,0.7590769529342651
1761397181319212800,9.236212890625,-0.5982928276062012,-2.201676845550537,0.5654518604278564
1761397181338603300,9.255603271484375,1.1818828582763672,0.5318217277526855,-2.3068690299987793
1761397181357980000,9.27497998046875,3.9935874938964844,5.325434684753418,-3.5727195739746094
1761397181377343200,9.29434326171875,5.66317892074585,8.58350944519043,-0.4950583577156067
1761397181396733400,9.3137333984375,4.494474411010742,8.625044822692871,1.8231145143508911
1761397181416110300,9.3331103515625,8.632699012756348,5.168699741363525,2.352898597717285
1761397181454864000,9.37186376953125,22.006088256835938,0.787407398223877,2.4913218021392822
1761397181474240800,9.39124072265625,16.332000732421875,0.1840829849243164,5.821722984313965
1761397181493604000,9.41060400390625,4.199502944946289,-0.6691584587097168,4.9778733253479
1761397181512994300,9.429994384765624,-4.640958309173584,-0.6147427558898926,3.003685474395752
1761397181532371200,9.44937109375,-9.441923141479492,-2.388662815093994,2.378730297088623
1761397181551734500,9.468734619140625,-11.976527214050293,-5.127640247344971,1.5359253883361816
1761397181571124700,9.488124755859374,-11.544698715209961,-7.197497367858887,0.10409605503082275
1761397181590501600,9.507501708984375,-9.51843547821045,-6.963285446166992,-2.0080790519714355
1761397181609865000,9.526864990234374,-7.954473495483398,-6.423388481140137,-3.22946834564209
1761397181629255200,9.546255126953126,-7.976130962371826,-6.0827956199646,-3.020559072494507
1761397181648631800,9.5656318359375,-8.415569305419922,-5.739343643188477,-1.2614344358444214
1761397181667995100,9.5849951171875,-8.310846328735352,-4.847361087799072,0.4182078242301941
1761397181687385600,9.604385498046875,-6.426150798797607,-1.8405108451843262,0.3174607753753662
1761397181706762200,9.62376220703125,-0.07100772857666016,3.0086584091186523,0.6969394087791443
1761397181726125600,9.64312548828125,8.580154418945312,6.560075283050537,-1.886002540588379
1761397181745515800,9.662515869140625,13.288887977600098,6.256316184997559,-4.920995712280273
1761397181764892700,9.681892578125,12.017843246459961,4.453439235687256,-0.05827624350786209
1761397181784256000,9.701256103515625,14.902599334716797,1.1612977981567383,3.0097315311431885
1761397181803646200,9.720646240234375,17.516159057617188,0.31200695037841797,0.9108133316040039
1761397181823023000,9.740023193359375,14.079229354858398,-0.9216518402099609,0.444068968296051
1761397181842386400,9.759386474609375,4.620478630065918,-2.1859636306762695,0.595613420009613
1761397181861776600,9.778776611328125,-4.670742034912109,-2.0471081733703613,-1.1505743265151978
1761397181881153500,9.798153564453125,-9.644681930541992,-2.122403621673584,-1.5609171390533447
1761397181900516900,9.817516845703125,-11.169281005859375,-3.339984893798828,-0.569751501083374
1761397181919907000,9.836906982421874,-11.047988891601562,-5.110775947570801,0.05448318272829056
1761397181939284000,9.856283935546875,-8.418910026550293,-5.803806304931641,0.1464785635471344
1761397181958647000,9.87564697265625,-4.597458839416504,-5.592878341674805,-0.4954795837402344
1761397181978037500,9.89503759765625,-2.3685646057128906,-5.2794928550720215,-1.0907955169677734
1761397181997414100,9.9144140625,-1.861922264099121,-4.669944763183594,-1.0948677062988281
1761397182016777500,9.933777587890624,-2.67891788482666,-3.6417338848114014,-0.4412357211112976
1761397182036168000,9.95316796875,-2.7930102348327637,-1.2035236358642578,-0.3329389691352844
1761397182055544600,9.972544677734374,-1.3135857582092285,2.103030204772949,-0.634777307510376
1761397182074908000,9.991907958984376,3.3764381408691406,6.271394729614258,-2.7513463497161865
1761397182094298000,10.011298095703125,9.131113052368164,7.10333251953125,-4.761683464050293
1761397182113675000,10.030675048828124,12.6309175491333,6.398110866546631,-1.1188254356384277
1761397182133038300,10.050038330078126,10.265251159667969,4.526401996612549,3.053831100463867
1761397182152428500,10.069428466796875,7.2947258949279785,2.5765233039855957,2.421745777130127
1761397182171805400,10.088805419921876,7.82934045791626,0.12294626235961914,1.944113850593567
1761397182191168800,10.108168701171875,7.1387038230896,-1.522228717803955,1.9974350929260254
1761397182210559000,10.12755908203125,3.422125816345215,-2.0465786457061768,2.7241382598876953
1761397182229935900,10.146935791015625,-0.34148693084716797,-2.219093084335327,3.441538095474243
1761397182249299200,10.16629931640625,-3.5270891189575195,-2.268324851989746,2.094722270965576
1761397182268689400,10.185689453125,-6.544843673706055,-2.530658721923828,1.023750901222229
1761397182288066300,10.20506640625,-7.66052770614624,-2.9192938804626465,1.0324281454086304
1761397182307429400,10.224429443359375,-7.35441255569458,-3.1962220668792725,1.8964422941207886
1761397182326819800,10.24381982421875,-6.951180934906006,-3.733704090118408,2.2851693630218506
1761397182346196500,10.263196533203125,-6.032601356506348,-3.779879570007324,2.1613504886627197
1761397182365573400,10.282573486328126,-5.035335063934326,-3.439441204071045,1.9526073932647705
1761397182384950300,10.3019501953125,-3.717319965362549,-1.7878813743591309,0.5050168633460999
1761397182404327000,10.321326904296875,-1.3154048919677734,0.49298858642578125,-2.021820306777954
1761397182423690200,10.340690185546874,4.738073825836182,3.38010835647583,-4.103021144866943
1761397182443080400,10.36008056640625,5.934747219085693,4.856851100921631,-2.6681082248687744
1761397182462457300,10.379457275390624,3.637092113494873,7.323142051696777,-0.8169983625411987
1761397182481820700,10.398820556640626,5.857380390167236,4.834240913391113,2.285752296447754
1761397182501211000,10.4182109375,8.44210433959961,2.029080867767334,-0.22899174690246582
1761397182520587800,10.437587890625,6.747073173522949,0.7389755249023438,-2.6857080459594727
1761397182539951000,10.456951171875,5.127217769622803,0.10777854919433594,-1.9233851432800293
1761397182559341300,10.47634130859375,4.6268181800842285,-1.5385918617248535,0.8704672455787659
1761397182578718200,10.49571826171875,3.586528778076172,-2.6767265796661377,0.37928271293640137
1761397182598081300,10.515081298828125,-0.6922502517700195,-3.0935137271881104,-0.7577571868896484
1761397182617471700,10.5344716796875,-4.941048622131348,-3.5731117725372314,0.6393758058547974
1761397182636848400,10.553848388671875,-5.955282688140869,-4.309281349182129,2.5618295669555664
1761397182656225300,10.573225341796874,-5.2211384773254395,-4.814663410186768,2.9923603534698486
1761397182675602200,10.592602294921875,-4.217402458190918,-4.823740005493164,2.0035107135772705
1761397182694978800,10.611978759765625,-4.170552730560303,-4.30294132232666,0.5679869651794434
1761397182714355700,10.631355712890626,-4.193044662475586,-3.677445888519287,0.4582822322845459
1761397182733732600,10.650732666015625,-2.2197775840759277,-2.7533159255981445,-0.1804906725883484
1761397182753109200,10.670109130859375,1.6858291625976562,-0.6335005760192871,-0.17113012075424194
1761397182772472600,10.68947265625,4.644890308380127,0.47725820541381836,2.818660020828247
1761397182791862800,10.70886279296875,6.259698867797852,1.141770839691162,2.4165148735046387
1761397182811239700,10.72823974609375,7.112944602966309,2.909057140350342,-1.7170686721801758
1761397182830603000,10.74760302734375,5.265251159667969,3.8154234886169434,-4.313282012939453
1761397182849993200,10.7669931640625,2.9771933555603027,3.492392063140869,-3.928507089614868
1761397182869370000,10.7863701171875,5.446474075317383,2.6876635551452637,-1.7922112941741943
1761397182888733400,10.8057333984375,8.13906192779541,-0.10370254516601562,4.483975410461426
1761397182908123600,10.82512353515625,4.947941780090332,-1.1267685890197754,6.1284098625183105
1761397182927500300,10.844500244140624,-0.648859977722168,-1.2088384628295898,3.065924644470215
1761397182946863600,10.863863525390625,-3.902705430984497,-1.3539643287658691,0.11953842639923096
1761397182966254000,10.883254150390625,-6.546268463134766,-1.9552335739135742,-1.1956532001495361
1761397182985630700,10.902630615234376,-7.846277236938477,-3.449253797531128,-1.2255254983901978
1761397183005007600,10.922007568359374,-6.420537948608398,-3.9151031970977783,-1.076277256011963
1761397183024384300,10.94138427734375,-3.5799264907836914,-3.5516693592071533,-0.8982517719268799
1761397183043761200,10.96076123046875,-0.47344112396240234,-3.629363536834717,-0.9930753707885742
1761397183063124500,10.98012451171875,0.7731208801269531,-3.255192995071411,-1.2930538654327393
1761397183082514700,10.9995146484375,-1.3087053298950195,-1.7642951011657715,-0.7493786811828613
1761397183101891600,11.0188916015625,-3.3113720417022705,1.0005111694335938,0.5653854608535767
1761397183121255000,11.0382548828125,-0.38736677169799805,3.9531822204589844,-0.010949373245239258
1761397183140645000,11.05764501953125,5.570013523101807,4.734203338623047,-1.0673110485076904
1761397183160022000,11.07702197265625,6.178409099578857,4.658239841461182,-3.058950901031494
1761397183179385300,11.09638525390625,1.8420825004577637,4.818821430206299,-4.4999165534973145
1761397183198775600,11.115775634765624,0.3632545471191406,2.771907329559326,-2.165283441543579
1761397183218152400,11.13515234375,5.060636520385742,0.3145160675048828,1.9725842475891113
1761397183237515500,11.154515625,7.0578436851501465,-0.31966733932495117,4.557314395904541
1761397183256906000,11.173906005859376,3.6811065673828125,-0.824042797088623,5.372951507568359
1761397183276282600,11.19328271484375,0.05193901062011719,-1.344820499420166,2.918259382247925
1761397183295646000,11.21264599609375,-3.801666021347046,-1.8568811416625977,0.1715526431798935
1761397183315036400,11.232036376953126,-4.570594787597656,-2.6803877353668213,-1.1513410806655884
1761397183334413000,11.2514130859375,-2.9482994079589844,-3.7085704803466797,-0.7348377704620361
1761397183353776400,11.2707763671875,-2.4560704231262207,-4.708118438720703,0.5318150520324707
1761397183373166600,11.29016650390625,-2.2205147743225098,-4.90745735168457,1.283987283706665
1761397183392543500,11.30954345703125,-1.8389830589294434,-4.664706707000732,1.0509417057037354
1761397183411920400,11.32892041015625,-1.8620176315307617,-3.8609020709991455,0.0771302878856659
1761397183431297000,11.348297119140625,-1.0289974212646484,-2.665952205657959,-0.554926872253418
1761397183450674000,11.367673828125,0.6010227203369141,-0.8037815093994141,-1.2277569770812988
1761397183470037200,11.387037353515625,1.287661075592041,2.2301816940307617,-2.5921881198883057
1761397183489427500,11.406427490234375,-1.7779626846313477,2.6604604721069336,-2.334526300430298
1761397183508804400,11.425804443359375,-5.2743024826049805,4.000280380249023,-1.9095860719680786
1761397183528167400,11.44516748046875,-1.4844956398010254,2.490626811981201,0.40899381041526794
1761397183547558000,11.464557861328124,7.116376876831055,-0.5562796592712402,4.540449142456055
1761397183566934500,11.4839345703125,11.567276954650879,-0.3838801383972168,3.492540121078491
1761397183586297900,11.5032978515625,8.079370498657227,0.785489559173584,0.19316698610782623
1761397183605688300,11.522688232421874,3.5537185668945312,0.369478702545166,-0.6799145340919495
1761397183625065000,11.54206494140625,-0.4352235794067383,-0.7706589698791504,-0.7724425792694092
1761397183644428300,11.56142822265625,-2.67716908454895,-1.6337642669677734,-0.5662129521369934
1761397183663818500,11.580818603515626,-2.780360460281372,-2.0966668128967285,-0.1278444230556488
1761397183683195400,11.6001953125,-1.8500285148620605,-2.7305707931518555,0.6155914664268494
1761397183702572300,11.619572265625,-0.09249734878540039,-3.200800895690918,0.9971357583999634
1761397183721949000,11.638948974609375,-0.4481043815612793,-3.0975751876831055,0.26042723655700684
1761397183741325800,11.658325927734374,-1.8283534049987793,-2.2846174240112305,-1.243920087814331
1761397183760689200,11.677689208984376,-1.090395450592041,-1.1922264099121094,-1.9530811309814453
1761397183780079400,11.697079345703125,0.11609792709350586,-0.16575098037719727,-0.7229165434837341
1761397183799456300,11.716456298828126,-0.3579378128051758,0.15021896362304688,0.3784739375114441
1761397183818833000,11.7358330078125,-1.6877937316894531,0.5898985862731934,-0.381477952003479
1761397183838209800,11.755209716796875,-1.6157231330871582,0.6304793357849121,-1.4817075729370117
1761397183857586700,11.774586669921876,1.3187885284423828,1.0081787109375,-2.422978401184082
1761397183876949800,11.79394970703125,3.3996071815490723,0.7309212684631348,-2.9507391452789307
1761397183896340200,11.81334033203125,3.9476943016052246,-1.9723124504089355,-0.1019572913646698
1761397183915716900,11.832716796875,4.3508076667785645,-2.3413610458374023,2.0115609169006348
1761397183935080200,11.852080078125,5.215973377227783,-0.8466758728027344,0.9864981174468994
1761397183954470400,11.871470458984374,4.158565521240234,-0.4914703369140625,-0.14607897400856018
1761397183973847300,11.890847412109375,1.7721529006958008,-0.30532121658325195,-0.731969952583313
1761397183993210600,11.910210693359375,-0.6531143188476562,0.024866580963134766,-0.656369149684906
1761397184012600800,11.929600830078124,-1.2686920166015625,-0.13710641860961914,0.00888342410326004
1761397184031977700,11.948977783203125,-0.4092569351196289,-0.34657716751098633,0.7116844058036804
1761397184051354600,11.968354736328125,-0.24019479751586914,-0.48177146911621094,0.7136455774307251
1761397184070731300,11.987731201171876,-0.07169532775878906,-0.14957475662231445,-0.16184529662132263
1761397184090108200,12.007108154296875,-0.9269118309020996,-0.4474515914916992,-0.31466132402420044
1761397184109484800,12.02648486328125,-0.3285341262817383,-0.648679256439209,0.2768326997756958
1761397184128861700,12.04586181640625,1.266202449798584,-1.1089591979980469,-0.2105180025100708
1761397184148238600,12.065238525390624,1.4815359115600586,-1.0088658332824707,-2.033003330230713
1761397184167615200,12.084615234375,2.095463275909424,-1.0442209243774414,-0.16775089502334595
1761397184186992000,12.1039921875,1.4175596237182617,-1.1143503189086914,0.7391798496246338
1761397184206368800,12.12336865234375,1.2123584747314453,-1.2584590911865234,0.07931691408157349
1761397184225745700,12.14274560546875,1.628976821899414,-1.2255706787109375,-1.4181039333343506
