time,seconds_elapsed,z,y,x
1761397172220700700,0.13770068359375,0.042453885078430176,-0.03665083646774292,-0.02733541466295719
1761397172240077600,0.15707763671875,0.036192700266838074,0.04886778071522713,0.04214845970273018
1761397172259454200,0.1764541015625,-0.0015271181473508477,0.05650337040424347,0.13560809195041656
1761397172278831000,0.1958310546875,-0.05115845799446106,0.027029991149902344,0.17454960942268372
1761397172298208000,0.2152080078125,-0.009620844386518002,0.02748812735080719,0.144465371966362
1761397172317584600,0.234584716796875,0.06169557198882103,0.028098974376916885,0.13408097624778748
1761397172336961500,0.25396142578125,0.072843536734581,0.018630841746926308,0.15897299349308014
1761397172356338400,0.27333837890625,0.10552386194467545,0.04443913698196411,0.19272230565547943
1761397172375715000,0.292715087890625,0.10002623498439789,0.03542914241552353,0.23563432693481445
1761397172395092000,0.312092041015625,0.0036650835536420345,-0.024433890357613564,0.28938889503479004
1761397172414468600,0.331468505859375,-0.0784938707947731,-0.0065666078589856625,0.21288026869297028
1761397172433845500,0.350845458984375,-0.059710320085287094,0.01038440316915512,0.06994201242923737
1761397172453222400,0.370222412109375,0.004734066314995289,-0.012369656935334206,0.005955760832875967
1761397172472599000,0.38959912109375,-0.011606098152697086,-0.036039989441633224,0.026877280324697495
1761397172491976000,0.408975830078125,-0.07635590434074402,-0.0713164210319519,0.007941014133393764
1761397172511352600,0.4283525390625,-0.051616594195365906,-0.026724567636847496,-0.032069481909275055
1761397172530729500,0.4477294921875,0.022906772792339325,-0.01175880990922451,-0.0068720318377017975
1761397172550106400,0.4671064453125,0.045202698558568954,-0.07834116369485855,0.05619794875383377
1761397172569483000,0.48648291015625,0.009468132629990578,-0.09544488787651062,0.06047387793660164
1761397172588860000,0.50585986328125,-0.019241688773036003,-0.04810422286391258,0.02092151902616024
1761397172608236500,0.525236572265625,0.0021379655227065086,0.013591351918876171,0.016492875292897224
1761397172627613400,0.544613525390625,0.016187451779842377,0.010537114925682545,0.05467082932591438
1761397172646990300,0.563990234375,0.010689826682209969,-0.03695625811815262,0.08674030750989914
1761397172666367000,0.583366943359375,-0.0015271181473508477,-0.046424392610788345,0.09987352788448334
1761397172685743900,0.602743896484375,-0.004123218823224306,0.004428642801940441,0.09636115282773972
1761397172705120500,0.62212060546875,0.011147962883114815,-0.016492875292897224,0.08521319180727005
1761397172724497400,0.641497314453125,0.003970507066696882,-0.029167955741286278,0.030389651656150818
1761397172743874300,0.660874267578125,0.012675080448389053,0.03145863488316536,-0.018630841746926308
1761397172763251000,0.6802509765625,0.05512896552681923,0.04840964451432228,-0.005955760832875967
1761397172782627800,0.6996279296875,0.034665580838918686,0.025197450071573257,0.03527642786502838
1761397172802004500,0.71900439453125,-0.017561858519911766,0.06261184066534042,0.01252236869186163
1761397172821381400,0.73838134765625,-0.012980503961443901,0.04581354558467865,-0.014049487188458443
1761397172840758300,0.75775830078125,-0.011147962883114815,-0.043828289955854416,0.006413896102458239
1761397172860135000,0.777135009765625,-0.04428642615675926,-0.02901524491608143,0.017561858519911766
1761397172879511800,0.79651171875,-0.018936265259981155,0.01954711228609085,0.01954711228609085
1761397172898888700,0.815888671875,0.02473931387066841,-0.04077405482530594,0.029626091942191124
1761397172918265300,0.835265380859375,0.0015271181473508477,-0.04947862774133682,0.016034740954637527
1761397172937642200,0.854642333984375,-0.04367557913064957,0.005955760832875967,-0.018783552572131157
1761397172957019000,0.874018798828125,0.006413896102458239,0.04367557913064957,-0.039857782423496246
1761397172976395800,0.893395751953125,0.07956285774707794,-0.006108472589403391,-0.053143709897994995
1761397172995772700,0.912772705078125,0.061084724962711334,-0.05207473039627075,-0.09116895496845245
1761397173015149300,0.9321494140625,0.04734066128730774,-0.02076880633831024,-0.12232216447591782
1761397173034526200,0.951526123046875,0.07956285774707794,-0.03512371703982353,-0.10155335813760757
1761397173053902800,0.97090283203125,0.08750387281179428,-0.111632339656353,-0.08383878320455551
1761397173073279700,0.99027978515625,0.06368082761764526,-0.12934690713882446,-0.04443913698196411
1761397173092656400,1.009656494140625,0.06200099736452103,-0.11590826511383057,0.1047603040933609
1761397173112033300,1.029033203125,0.06245913356542587,-0.20661908388137817,0.2163926362991333
1761397173131410200,1.04841015625,0.01969982497394085,-0.31321191787719727,0.21165858209133148
1761397173150786800,1.067786865234375,-0.024128466844558716,-0.39735615253448486,0.17714570462703705
1761397173170163700,1.087163818359375,0.021685076877474785,-0.39170581102371216,0.18737739324569702
1761397173189540400,1.106540283203125,0.10460758954286575,-0.31382277607917786,0.14202198386192322
1761397173208917200,1.125917236328125,0.16431790590286255,-0.2339545041322708,0.04504998400807381
1761397173228294100,1.145294189453125,0.19394400715827942,-0.16813570261001587,-0.07513421028852463
1761397173247670800,1.1646708984375,0.20005246996879578,-0.11499200016260147,-0.30160582065582275
1761397173267047700,1.184047607421875,0.22937314212322235,0.046729814261198044,-0.5613686442375183
1761397173286424600,1.203424560546875,0.2095206081867218,0.2527380585670471,-0.5903838872909546
1761397173305801200,1.22280126953125,0.1372879147529602,0.4683671295642853,-0.2473931461572647
1761397173325178000,1.24217822265625,0.02092151902616024,0.698503851890564,-0.038636088371276855
1761397173344554800,1.2615546875,0.024281177669763565,0.5926745533943176,-0.36039987206459045
1761397173363931600,1.280931640625,0.1632489264011383,0.15714046359062195,-0.8011261820793152
1761397173383308500,1.30030859375,0.34848836064338684,-1.2395617961883545,-1.5022261142730713
1761397173402685200,1.319685302734375,0.7113316059112549,-1.2862915992736816,-1.9403563737869263
1761397173422062000,1.33906201171875,1.5929369926452637,-0.6526902914047241,-1.3389772176742554
1761397173441425400,1.35842529296875,2.8683860301971436,0.2644968628883362,-0.12171131372451782
1761397173460815600,1.377815673828125,1.8630841970443726,0.5491516590118408,-0.1985253542661667
1761397173480192500,1.397192626953125,1.1219737529754639,-0.4193466305732727,0.1319430023431778
1761397173499555800,1.416555908203125,1.5993508100509644,-0.6397097706794739,0.37948885560035706
1761397173518946000,1.435946044921875,1.8991241455078125,0.08994726091623306,0.8724426031112671
1761397173538322700,1.45532275390625,1.1005940437316895,-0.4271349310874939,1.5176500082015991
1761397173557686000,1.47468603515625,0.22616620361804962,-1.9380656480789185,1.325080394744873
1761397173577076500,1.494076416015625,-0.19348587095737457,-2.0964276790618896,1.2073396444320679
1761397173596453000,1.513453125,-0.31565532088279724,-0.8212841153144836,1.100441336631775
1761397173615816400,1.53281640625,-0.4431696832180023,0.4563029110431671,0.7110261917114258
1761397173635206700,1.55220654296875,-0.6927008032798767,0.9781191945075989,0.5083776116371155
1761397173654583600,1.57158349609375,-0.6665870547294617,0.6404733657836914,0.522885262966156
1761397173673947000,1.59094677734375,-0.5375455617904663,0.30664533376693726,0.6236750483512878
1761397173693337000,1.610337158203125,-0.49921491742134094,-0.07421794533729553,0.8557969927787781
1761397173712714000,1.6297138671875,-0.5089884996414185,-0.2695363461971283,1.034011721611023
1761397173732077300,1.649077392578125,-0.5825955867767334,-0.3623851239681244,0.8321266770362854
1761397173751467500,1.668467529296875,-0.6342121958732605,-0.6542174220085144,0.0659715011715889
1761397173770844400,1.687844482421875,-0.6696413159370422,-0.9214630722999573,-0.8776348233222961
1761397173790207500,1.70720751953125,-0.5123481154441833,-1.0944855213165283,-1.8366650342941284
1761397173809598000,1.726597900390625,-0.19806721806526184,-1.86568021774292,-3.067064046859741
1761397173828974800,1.745974853515625,0.5604523420333862,-1.7332791090011597,-2.8705239295959473
1761397173848338000,1.765337890625,0.8243383765220642,-0.1310267299413681,-1.0046910047531128
1761397173867728400,1.784728271484375,0.7588250041007996,-0.5699204802513123,-1.098150610923767
1761397173887105000,1.80410498046875,0.9260444641113281,-0.8706100583076477,-2.2228732109069824
1761397173906468400,1.82346826171875,1.0917367935180664,0.2145601063966751,-1.6030158996582031
1761397173925858800,1.84285888671875,1.0202676057815552,1.0698989629745483,-0.055587101727724075
1761397173945235500,1.8622353515625,0.9588775038719177,1.0020949840545654,0.6313106417655945
1761397173964598800,1.881598876953125,0.8003626465797424,0.4596625566482544,0.5477772951126099
1761397173983989000,1.900989013671875,0.43797749280929565,-0.23242738842964172,0.18966807425022125
1761397174003366000,1.920365966796875,0.13484452664852142,-0.6432221531867981,-0.2229592502117157
1761397174022729200,1.939729248046875,0.005344913341104984,-0.8432746529579163,-0.5369347333908081
1761397174042119400,1.959119384765625,-0.18249061703681946,-0.7759287357330322,-0.4485146105289459
1761397174061496300,1.978496337890625,-0.4618005156517029,-0.314586341381073,0.0035123717971146107
1761397174080859600,1.997859619140625,-0.6578825116157532,0.1656923145055771,0.5015056133270264
1761397174100249900,2.017249755859375,-0.765238881111145,0.6421532034873962,0.7484406232833862
1761397174119626500,2.03662646484375,-0.6621584296226501,0.8559496998786926,0.6668924689292908
1761397174139003400,2.05600341796875,-0.5448757410049438,0.6510104537010193,0.26464956998825073
1761397174158380300,2.07538037109375,-0.6641436815261841,0.09284878522157669,-0.402395635843277
1761397174177757000,2.0947568359375,-0.6473453640937805,-0.858393132686615,-1.1552648544311523
1761397174197120300,2.114120361328125,-0.0325276181101799,-0.8434273600578308,-0.9587247967720032
1761397174216510700,2.1335107421875,0.6126797795295715,-1.7493138313293457,-0.6282563805580139
1761397174235887400,2.152887451171875,1.034317135810852,-2.3884127140045166,-0.3943018913269043
1761397174255250700,2.172250732421875,1.0905150175094604,-0.7475243210792542,0.9520054459571838
1761397174274641000,2.191640869140625,0.9570449590682983,1.6274497509002686,1.9991503953933716
1761397174294017800,2.211017822265625,0.724006712436676,3.236879587173462,2.0758116245269775
1761397174313381000,2.230381103515625,0.42576053738594055,3.5281009674072266,1.8142163753509521
1761397174332771300,2.249771240234375,0.15530791878700256,2.661156177520752,1.3171393871307373
1761397174352148200,2.269148193359375,-0.016492875292897224,1.4235795736312866,0.8938222527503967
1761397174371511600,2.288511474609375,-0.2848075330257416,0.5821374654769897,0.6468872427940369
1761397174390901800,2.30790185546875,-0.5716003179550171,0.2867927849292755,0.6352811455726624
1761397174410278700,2.327278564453125,-0.8157865405082703,0.47890424728393555,0.7574505805969238
1761397174429641700,2.346641845703125,-0.9196305274963379,0.7551599144935608,0.9058864712715149
1761397174449032200,2.3660322265625,-0.9874345660209656,0.6879667043685913,0.9874345660209656
1761397174468408800,2.385408935546875,-1.0459232330322266,0.3139754831790924,0.906802773475647
1761397174487772200,2.404772216796875,-0.9046648144721985,-0.15469707548618317,0.4821111857891083
1761397174507162600,2.42416259765625,-0.5719057321548462,-0.7107207775115967,-0.10078980028629303
1761397174526539300,2.443539306640625,-0.2486148327589035,-1.413347840309143,-0.7473716139793396
1761397174545902600,2.462902587890625,-0.20066332817077637,-1.8734685182571411,-1.0717315673828125
1761397174565292800,2.482292724609375,-0.024128466844558716,-2.5849528312683105,-0.9297095537185669
1761397174584669700,2.501669677734375,0.5781669020652771,-2.9525301456451416,-0.7357655167579651
1761397174604033000,2.521032958984375,1.2878187894821167,-1.4386980533599854,-0.40606072545051575
1761397174623423200,2.54042333984375,1.61874520778656,0.6190937161445618,0.08521319180727005
1761397174642800000,2.559800048828125,1.6121786832809448,2.2552480697631836,0.5871769189834595
1761397174662163500,2.57916357421875,1.6557015180587769,3.1750314235687256,0.7495095729827881
1761397174681553700,2.5985537109375,1.5306304693222046,2.898012161254883,0.7828007340431213
1761397174700930600,2.6179306640625,1.3518049716949463,1.9143953323364258,0.6326850652694702
1761397174720293600,2.637293701171875,1.0355387926101685,0.6766660213470459,0.6377245187759399
1761397174739684000,2.65668408203125,0.5966450572013855,-0.047951508313417435,0.7679877281188965
1761397174759060700,2.676060791015625,0.149199441075325,0.04214845970273018,0.7119424939155579
1761397174778424000,2.695424072265625,-0.27442312240600586,0.5201364159584045,0.559841513633728
1761397174797814500,2.714814453125,-0.6048914790153503,0.812274158000946,0.44759833812713623
1761397174817191200,2.734191162109375,-0.8532009124755859,0.6991146802902222,0.36696648597717285
1761397174836554500,2.753554443359375,-0.9875873327255249,0.4049917459487915,0.16126367449760437
1761397174855945000,2.772945068359375,-0.9773555994033813,-0.08170082420110703,-0.27656111121177673
1761397174875321600,2.792321533203125,-0.7139277458190918,-0.7090409398078918,-0.8170081973075867
1761397174894685000,2.811684814453125,-0.5486935377120972,-1.4602303504943848,-1.281557559967041
1761397174914075100,2.8310751953125,-0.4312581717967987,-1.9921256303787231,-0.9148964881896973
1761397174933452000,2.8504521484375,-0.03680354729294777,-2.3163328170776367,-0.376740038394928
1761397174952815400,2.8698154296875,0.2438807636499405,-2.262120008468628,-0.9451334476470947
1761397174972205600,2.88920556640625,0.5329642295837402,-0.684148907661438,-1.2977449893951416
1761397174991582500,2.90858251953125,0.8379297256469727,1.391510009765625,-0.8412894010543823
1761397175010945800,2.92794580078125,0.9506310224533081,2.4432363510131836,-0.3501681983470917
1761397175030336000,2.9473359375,0.8855758309364319,2.169271230697632,-0.19821994006633759
1761397175049712600,2.966712646484375,0.7699729800224304,0.9223793745040894,-0.11529742181301117
1761397175069076000,2.986075927734375,0.7298097610473633,-0.279920756816864,-0.02504473738372326
1761397175088466400,3.005466552734375,0.6859814524650574,-0.6655181050300598,0.1566823273897171
1761397175107843000,3.024843017578125,0.40071579813957214,-0.645207405090332,0.3118375241756439
1761397175127206400,3.044206298828125,-0.11606097966432571,-0.36284327507019043,0.33413344621658325
1761397175146596600,3.0635966796875,-0.5355603098869324,-0.08383878320455551,0.2420482337474823
1761397175165973500,3.082973388671875,-0.7178982496261597,-0.012827792204916477,0.19226416945457458
1761397175185336800,3.1023369140625,-0.7831062078475952,-0.20875705778598785,0.21685077250003815
1761397175204727000,3.12172705078125,-0.7560762166976929,-0.6612421870231628,0.18523943424224854
1761397175224104000,3.14110400390625,-0.8741224408149719,-1.0538642406463623,0.07605048269033432
1761397175243467300,3.16046728515625,-1.0825740098953247,-1.4275500774383545,-0.014202198944985867
1761397175262857500,3.179857421875,-1.0967762470245361,-1.5268126726150513,0.15591876208782196
1761397175282234400,3.199234375,-0.9506310224533081,-0.8774821162223816,0.6302416324615479
1761397175301597700,3.21859765625,-0.6484143733978271,-0.05787777900695801,0.938872218132019
1761397175320988000,3.23798779296875,-0.1910424828529358,0.1757712960243225,0.8409839868545532
1761397175340364800,3.25736474609375,-0.08185353130102158,-0.6271874308586121,0.10949437320232391
1761397175359727900,3.276727783203125,-0.36314868927001953,-1.6870074272155762,-1.050046443939209
1761397175379118300,3.296118408203125,-0.39979952573776245,-0.6711684465408325,-1.103342890739441
1761397175398495000,3.315494873046875,0.019394399598240852,1.2149752378463745,-0.036192700266838074
1761397175417858300,3.3348583984375,0.3089359998703003,1.9241688251495361,0.9336800575256348
1761397175437248800,3.354248779296875,0.2307475507259369,1.3846380710601807,1.411973476409912
1761397175456625400,3.37362548828125,0.12995775043964386,0.5358657836914062,1.69387948513031
1761397175475988700,3.39298876953125,0.0778830274939537,-0.22433365881443024,2.002051830291748
1761397175495379000,3.41237890625,-0.0787992998957634,-0.6207735538482666,2.1746163368225098
1761397175514755800,3.431755859375,-0.13805148005485535,-0.6151232123374939,2.117501974105835
1761397175534119200,3.451119140625,-0.36574479937553406,-0.5277720093727112,1.9273757934570312
1761397175553509400,3.47050927734375,-0.7464553713798523,-0.3787252902984619,1.4742798805236816
1761397175572886300,3.48988623046875,-1.0060654878616333,-0.11377029865980148,0.8131904006004333
1761397175592249600,3.50924951171875,-1.0857809782028198,0.20096874237060547,0.027793550863862038
1761397175611639800,3.528639892578125,-1.0616525411605835,0.08032641559839249,-0.8464815616607666
1761397175631016700,3.5480166015625,-0.6933116316795349,-0.13942588865756989,-1.4936742782592773
1761397175650379800,3.5673798828125,-0.2279987335205078,-0.17745113372802734,-1.7392348051071167
1761397175669770200,3.586770263671875,-0.012675080448389053,-0.3820849657058716,-1.7928366661071777
1761397175689147000,3.60614697265625,-0.2527380585670471,-1.2307045459747314,-2.065579891204834
1761397175708510200,3.62551025390625,-0.41232189536094666,-1.9809776544570923,-1.9767017364501953
1761397175727900700,3.644900634765625,-0.5883986353874207,-0.2895416021347046,-1.1767972707748413
1761397175747277300,3.66427734375,-0.22036315500736237,1.8275022506713867,-0.4512633979320526
1761397175766640600,3.683640625,0.05665608495473862,2.210503578186035,0
1761397175786031000,3.703031005859375,-0.057114217430353165,1.2678134441375732,0.3637595474720001
1761397175805407700,3.72240771484375,-0.26373329758644104,0.5149442553520203,0.6714738607406616
1761397175824771000,3.74177099609375,-0.29748260974884033,0.30191126465797424,0.7114843726158142
1761397175844161300,3.761161376953125,-0.2501419484615326,0.21303297579288483,0.5424323678016663
1761397175863538200,3.7805380859375,-0.32878854870796204,0.2942756712436676,0.3402419090270996
1761397175882901500,3.799901611328125,-0.5344913601875305,0.46760356426239014,0.15836215019226074
1761397175902291700,3.819291748046875,-0.6839962005615234,0.589314877986908,-0.003359660040587187
1761397175921668600,3.838668701171875,-0.6426113247871399,0.6096255779266357,-0.018019994720816612
1761397175941045200,3.858045166015625,-0.5242596864700317,0.3017585575580597,0.07971556484699249
1761397175960422100,3.877422119140625,-0.4790569543838501,-0.32726141810417175,0.091932512819767
1761397175979799000,3.896799072265625,-0.3953709006309509,-0.8096780180931091,0.04443913698196411
1761397175999162000,3.916162109375,-0.16034740209579468,-1.2876659631729126,-0.0656660795211792
1761397176018552600,3.935552490234375,-0.00519220158457756,-1.4208307266235352,-0.12048961967229843
1761397176037929200,3.95492919921875,-0.13056860864162445,-0.5059342384338379,0.014049487188458443
1761397176057292500,3.97429248046875,0.016645587980747223,0.455539345741272,0.28373855352401733
1761397176076683000,3.99368310546875,0.4799732267856598,-0.5053234100341797,0.37567105889320374
1761397176096059600,4.0130595703125,0.06551336497068405,-2.26456356048584,-0.021685076877474785
1761397176115423000,4.032423095703125,-0.042759306728839874,-1.7543532848358154,-0.022906772792339325
1761397176134813200,4.051813232421875,0.7252284288406372,0.2026485800743103,0.5653391480445862
1761397176154190000,4.071190185546875,1.2617050409317017,0.24159009754657745,1.2775870561599731
1761397176173553400,4.090553466796875,0.9991934299468994,-1.0213366746902466,1.9371494054794312
1761397176192943600,4.109943603515625,0.455539345741272,-1.7542005777359009,2.4349899291992188
1761397176212320500,4.129320556640625,0.15149012207984924,-1.2636902332305908,2.239213228225708
1761397176231683800,4.148683837890625,-0.03527642786502838,-0.25212720036506653,1.1430479288101196
1761397176251074000,4.168073974609375,-0.4515688419342041,0.6296308040618896,-0.2536543309688568
1761397176270451000,4.187450927734375,-0.860683798789978,1.1008994579315186,-1.3371446132659912
1761397176289814300,4.206814208984375,-0.9506310224533081,1.0899041891098022,-1.7409147024154663
1761397176309204500,4.22620458984375,-0.6794148683547974,0.8727480173110962,-1.23940908908844
1761397176328581000,4.2455810546875,-0.30878329277038574,0.6337540149688721,-0.14706148207187653
1761397176347958000,4.2649580078125,-0.168899267911911,0.22433365881443024,0.7893673777580261
1761397176367335000,4.2843349609375,-0.11743538826704025,-0.2011214643716812,1.2882769107818604
1761397176386711600,4.303711669921875,-0.06001574173569679,-0.6484143733978271,1.2168077230453491
1761397176406075000,4.323074951171875,-0.12766708433628082,-1.3382136821746826,0.6438329815864563
1761397176425465000,4.342465087890625,-0.3245126008987427,-1.64165198802948,0.25716668367385864
1761397176444842000,4.361842041015625,-0.3301629424095154,-0.617719292640686,0.5717530250549316
1761397176464205300,4.381205322265625,0.009315420873463154,0.24525517225265503,0.5268557667732239
1761397176483595500,4.400595458984375,0.08399149775505066,-0.011606098152697086,0.037567105144262314
1761397176502972400,4.419972412109375,0.06352811306715012,-0.6997255086898804,-0.3680354654788971
1761397176522335700,4.439335693359375,0.10582929104566574,-0.8089144825935364,-0.8820634484291077
1761397176541726000,4.458725830078125,0.3489464819431305,-0.626882016658783,-1.248266339302063
1761397176561102800,4.478102783203125,0.7046123147010803,-0.3710896968841553,-0.6584933400154114
1761397176580466200,4.497466064453125,0.5978667736053467,-0.05604523420333862,0.40010493993759155
1761397176599856400,4.5168564453125,0.24662958085536957,0.29412296414375305,0.9407047629356384
1761397176619233300,4.5362333984375,0.003359660040587187,0.4813476502895355,0.7762341499328613
1761397176638596400,4.555596435546875,-0.12018419802188873,0.591605544090271,0.2530434727668762
1761397176657986800,4.57498681640625,-0.21532365679740906,0.7368345260620117,-0.3054236173629761
1761397176677363700,4.59436376953125,-0.3313846290111542,0.7069029808044434,-0.7298097610473633
1761397176696726800,4.613726806640625,-0.3045073449611664,0.6331431865692139,-0.8171609044075012
1761397176716117200,4.6331171875,-0.17867282032966614,0.5883986353874207,-0.5821374654769897
1761397176735494000,4.652493896484375,-0.031153209507465363,0.4083513915538788,-0.261442631483078
1761397176754857200,4.671857177734375,0.14034216105937958,0.04306473210453987,-0.19913621246814728
1761397176774247400,4.691247314453125,0.25502872467041016,-0.532353401184082,-0.5621321797370911
1761397176793624300,4.710624267578125,0.22311195731163025,-0.9055810570716858,-1.0315682888031006
1761397176812987600,4.729987548828125,0.06383354216814041,-0.36879903078079224,-1.4341166019439697
1761397176832377900,4.7493779296875,0.0981936976313591,0.18096350133419037,-1.8856854438781738
1761397176851754800,4.768754638671875,0.4706578254699707,-0.16599774360656738,-1.7134265899658203
1761397176871118000,4.7881181640625,0.6161921620368958,-1.300188422203064,-1.1877925395965576
1761397176890508300,4.80750830078125,0.6558972597122192,-2.0460329055786133,-1.1270132064819336
1761397176909885200,4.82688525390625,0.8276980519294739,-1.2902621030807495,-0.9046648144721985
1761397176929248500,4.84624853515625,0.8501466512680054,0.09147437661886215,-0.27564483880996704
1761397176948638700,4.865638671875,0.8017370104789734,0.4963133931159973,0.11957334727048874
1761397176968015600,4.885015625,0.6381826996803284,-0.06887302547693253,0.3567348122596741
1761397176987378700,4.904378662109375,0.5022691488265991,-1.155722975730896,0.6694886088371277
1761397177006769200,4.92376904296875,0.47325390577316284,-1.851478099822998,0.9713998436927795
1761397177026145800,4.943145751953125,0.36971530318260193,-1.372726559638977,0.9568922519683838
1761397177045509000,4.962509033203125,0.2414373755455017,-0.518609344959259,0.45981526374816895
1761397177064899600,4.981899658203125,0.20875705778598785,0.1557660549879074,-0.17943638563156128
1761397177084276200,5.001276123046875,0.22051586210727692,0.5230379700660706,-0.6088619828224182
1761397177103639600,5.0206396484375,0.17241163551807404,0.5468609929084778,-0.6155813336372375
1761397177123030000,5.040030029296875,0.1957765519618988,0.3313846290111542,-0.2764083743095398
1761397177142406700,5.05940673828125,0.21272756159305573,-0.0462716780602932,-0.11529742181301117
1761397177161770000,5.07877001953125,0.20402298867702484,-0.2596100866794586,-0.45019441843032837
1761397177181160200,5.09816015625,0.5299099683761597,-0.09345962852239609,-0.7437065243721008
1761397177200537000,5.117537109375,0.6873558759689331,1.170383334159851,-0.19944162666797638
1761397177219900400,5.136900390625,0.6569662094116211,1.329050898551941,-0.3790307343006134
1761397177239290600,5.15629052734375,0.3336753249168396,0.6927008032798767,-1.9276812076568604
1761397177258667500,5.17566748046875,0.0856713280081749,1.2446012496948242,-2.8328042030334473
1761397177278030800,5.19503076171875,0.28404396772384644,2.7869906425476074,-1.9951798915863037
1761397177297421000,5.214421142578125,0.3599417507648468,3.1522772312164307,-0.22097399830818176
1761397177316797700,5.233797607421875,0.1763821393251419,1.9244742393493652,1.1662601232528687
1761397177336161000,5.2531611328125,-0.021379653364419937,0.5230379700660706,1.776343822479248
1761397177355551500,5.272551513671875,-0.1181989461183548,-0.07406523078680038,1.5962965488433838
1761397177374928100,5.29192822265625,-0.30756160616874695,0.14110571146011353,0.9805625677108765
1761397177394291500,5.31129150390625,-0.6760551929473877,0.8496885299682617,0.2279987335205078
1761397177413682000,5.330681884765625,-1.0384403467178345,1.3383663892745972,-0.34100547432899475
1761397177433058600,5.35005859375,-1.1841274499893188,1.2644537687301636,-0.390942245721817
1761397177452422000,5.369421875,-0.9295567870140076,0.8348754644393921,0.010231691412627697
1761397177471812000,5.38881201171875,-0.5320479869842529,0.29946786165237427,0.5425850749015808
1761397177491189000,5.40818896484375,-0.27411770820617676,-0.20127417147159576,0.92054682970047
1761397177510552300,5.42755224609375,-0.06291726976633072,-0.684148907661438,0.9695672988891602
1761397177529942500,5.446942626953125,0.1692046970129013,-1.1567920446395874,0.7641699314117432
1761397177549319400,5.4663193359375,0.5952706336975098,-1.3456965684890747,0.44958359003067017
1761397177568682800,5.485682861328125,0.9936957955360413,-0.4485146105289459,0.3837648034095764
1761397177588073000,5.505072998046875,1.1280821561813354,-0.37322768568992615,-0.3527642786502838
1761397177607449900,5.524449951171875,0.7928797602653503,-1.945395827293396,-2.1275811195373535
1761397177626813200,5.543813232421875,0.6862868666648865,-0.5996993184089661,-2.021751642227173
1761397177646203400,5.563203369140625,1.2862915992736816,1.887823462486267,-0.13117945194244385
1761397177665580000,5.582580078125,1.7015150785446167,2.227454423904419,1.81818687915802
1761397177684943400,5.601943359375,1.6228684186935425,0.9713998436927795,2.7440786361694336
1761397177704333800,5.621333740234375,1.3088929653167725,-0.3574983477592468,2.615495204925537
1761397177723710500,5.64071044921875,1.0856282711029053,-0.8212841153144836,1.896069884300232
1761397177743073800,5.66007373046875,0.9840749502182007,-0.42637139558792114,1.1041064262390137
1761397177762464300,5.67946435546875,0.6826218366622925,0.1682884246110916,0.511431872844696
1761397177781841000,5.6988408203125,0.08215895295143127,0.6817055344581604,0.22677704691886902
1761397177801217800,5.7182177734375,-0.5702258944511414,0.8628217577934265,0.19974705576896667
1761397177820594400,5.737594482421875,-0.9657495021820068,0.7324058413505554,0.399952232837677
1761397177839971300,5.756971435546875,-1.0259180068969727,0.3736858069896698,0.6855233311653137
1761397177859334700,5.776334716796875,-0.925128161907196,-0.43736663460731506,0.7359182238578796
1761397177878724900,5.795724853515625,-0.8756495714187622,-1.2566654682159424,0.46210595965385437
1761397177898101800,5.815101806640625,-0.8197570443153381,-1.9982341527938843,-0.09620844572782516
1761397177917465000,5.834465087890625,-0.5899257659912109,-1.9734947681427002,-0.2973299026489258
1761397177936855300,5.853855224609375,-0.4480564594268799,-1.2453649044036865,-0.05360184609889984
1761397177956232200,5.873232177734375,-0.5917583107948303,-0.7530219554901123,-0.6633801460266113
1761397177975595500,5.892595458984375,-0.7913526296615601,0.11147962510585785,-0.9245173335075378
1761397177994985700,5.91198583984375,-0.666128933429718,0.5551074743270874,-0.6450546979904175
1761397178014362600,5.931362548828125,-0.45798271894454956,0.8083036541938782,-0.10017894953489304
1761397178033725700,5.9507255859375,-0.17974179983139038,0.7638645172119141,0.712247908115387
1761397178053116200,5.9701162109375,0.09941539168357849,0.15561333298683167,1.3405042886734009
1761397178072492800,5.989492919921875,0.11911521852016449,-0.5615213513374329,1.375780701637268
1761397178091856100,6.008856201171875,0.0584886260330677,-0.8619054555892944,0.9691091775894165
1761397178111246600,6.02824658203125,0.12812520563602448,-0.6572716236114502,0.6047387719154358
1761397178130623200,6.047623291015625,0.05787777900695801,-0.2718270421028137,0.4089622497558594
1761397178149986600,6.066986572265625,-0.23823043704032898,0.0984991192817688,0.3978142738342285
1761397178169376800,6.086376708984375,-0.567018985748291,0.4584408700466156,0.5448757410049438
1761397178188753700,6.105753662109375,-0.7953231334686279,0.5514423847198486,0.8000571727752686
1761397178208117000,6.125116943359375,-0.8848122358322144,0.2864873707294464,1.0608890056610107
1761397178227507200,6.144507080078125,-0.8716790676116943,-0.0975828468799591,1.0645540952682495
1761397178246884000,6.163884033203125,-0.8168554902076721,-0.6117635369300842,0.7591304183006287
1761397178266247400,6.183247314453125,-0.6077930331230164,-0.9623898267745972,0.4474456310272217
1761397178285637600,6.2026376953125,-0.2208212912082672,-1.2242906093597412,0.16095824539661407
1761397178305014500,6.2220146484375,-0.15271180868148804,-1.9498244524002075,-0.3871244490146637
1761397178324377900,6.2413779296875,-0.8050966858863831,-1.6937267780303955,-0.2408265322446823
1761397178343768000,6.26076806640625,-0.9869764447212219,-0.40071579813957214,0.6650599241256714
1761397178363145000,6.28014501953125,-0.6421532034873962,-0.164165198802948,-0.37887802720069885
1761397178382508000,6.299508056640625,-0.48928865790367126,0.03833066672086716,-2.351609230041504
1761397178401898500,6.3188984375,-0.2489202618598938,0.668419599533081,-3.0331621170043945
1761397178421275100,6.338275146484375,0.43614494800567627,0.6626165509223938,-1.648829460144043
1761397178440638500,6.357638427734375,0.7899782061576843,-0.45477578043937683,0.4984513521194458
1761397178460029000,6.37702880859375,0.5347967743873596,-1.3130161762237549,1.9386764764785767
1761397178479405600,6.396405517578125,0.13316470384597778,-1.1635112762451172,2.0008301734924316
1761397178498769000,6.415768798828125,-0.014813045971095562,-0.36482852697372437,1.1476292610168457
1761397178518159000,6.4351591796875,-0.12965233623981476,0.6192464232444763,0.018936265259981155
1761397178537536000,6.454535888671875,-0.3384093940258026,1.1943590641021729,-1.0295830965042114
1761397178556899300,6.4738994140625,-0.4943281412124634,1.4107517004013062,-1.5065020322799683
1761397178576289500,6.49328955078125,-0.5404471158981323,1.356539011001587,-1.305838704109192
1761397178595666400,6.51266650390625,-0.4546230733394623,0.8944330811500549,-0.5311316847801208
1761397178615029800,6.53202978515625,-0.1973036676645279,0.2864873707294464,0.435075968503952
1761397178634420000,6.551419921875,0.02229592576622963,-0.2722851634025574,0.8896990418434143
1761397178653796900,6.570796875,-0.0650552362203598,-0.9423846006393433,0.6552863717079163
1761397178673160200,6.59016015625,-0.1656923145055771,-1.229330062866211,0.5622848868370056
1761397178692550400,6.60955029296875,-0.1247655525803566,-0.4558447599411011,0.7730271816253662
1761397178711927300,6.62892724609375,-0.2919849753379822,0.01572931744158268,0.21654535830020905
1761397178731290400,6.648290283203125,-0.2611372172832489,-0.3229855000972748,-0.825101912021637
1761397178750680800,6.667680908203125,-0.22158484160900116,-0.22066856920719147,-1.458092451095581
1761397178770057700,6.6870576171875,-0.14996300637722015,0.16844113171100616,-1.5567442178726196
1761397178789434400,6.706434326171875,0.2599155008792877,0.4399627447128296,-0.7624900937080383
1761397178808811300,6.725811279296875,0.5311316847801208,0.4593571424484253,0.2591519355773926
1761397178828188000,6.74518798828125,0.33321717381477356,0.08918370306491852,0.6068767309188843
1761397178847551200,6.76455126953125,0.07345438003540039,-0.09865183383226395,0.4074351191520691
1761397178866941400,6.78394140625,0.006261184345930815,0.37444937229156494,-0.04993676394224167
1761397178886318300,6.803318359375,0.03268032893538475,1.1060916185379028,-0.5150969624519348
1761397178905681700,6.822681640625,0.007024743594229221,1.3945642709732056,-0.760657548904419
1761397178925072000,6.84207177734375,-0.0331384651362896,1.183211088180542,-0.6308525204658508
1761397178944448800,6.86144873046875,0.007024743594229221,0.6920899152755737,-0.08154810965061188
1761397178963825400,6.880825439453125,0.11346487700939178,0.22158484160900116,0.6644490957260132
1761397178983202300,6.900202392578125,0.19944162666797638,-0.03161134570837021,1.2065759897232056
1761397179002579200,6.9195791015625,0.197609081864357,-0.032069481909275055,1.3255385160446167
1761397179021942500,6.938942626953125,0.10017894953489304,-0.30481278896331787,1.0367605686187744
1761397179041332700,6.958332763671875,-0.04062134400010109,-0.6725428104400635,0.46012070775032043
1761397179060709600,6.977709716796875,-0.24464432895183563,-0.03436015918850899,0.1313321590423584
1761397179080072700,6.99707275390625,-0.37261682748794556,0.7513421177864075,0.15179555118083954
1761397179099463200,7.016463134765625,-0.19821994006633759,0.41827765107154846,-0.007330167107284069
1761397179118840000,7.035840087890625,-0.1441599577665329,-0.17867282032966614,-0.6238277554512024
1761397179138203100,7.055203125,-0.0036650835536420345,-0.5619794726371765,-1.8073443174362183
1761397179157593600,7.074593505859375,0.2113531529903412,-0.3967452943325043,-2.3500821590423584
1761397179176970200,7.09397021484375,0.4434750974178314,0.254265159368515,-1.5106252431869507
1761397179196333600,7.11333349609375,0.49646610021591187,0.7516475319862366,-0.02886253222823143
1761397179215724000,7.13272412109375,0.2967190444469452,0.6012263894081116,1.0175188779830933
1761397179235100700,7.1521005859375,0.2226538211107254,-0.08429691940546036,1.2342169284820557
1761397179254464000,7.171464111328125,0.3486410677433014,-0.41293275356292725,0.7394306063652039
1761397179273854200,7.190854248046875,0.4405735731124878,0.08261708915233612,-0.013133215717971325
1761397179293231000,7.210231201171875,0.42163732647895813,0.7559235095977783,-0.5328115224838257
1761397179312594400,7.229594482421875,0.3501681983470917,1.0824213027954102,-0.6453601121902466
1761397179331984600,7.248984619140625,0.24067382514476776,0.9517000317573547,-0.3843756318092346
1761397179351361500,7.268361572265625,0.13530266284942627,0.6067240238189697,0.11942064017057419
1761397179370738200,7.28773828125,0.06245913356542587,0.016645587980747223,0.6375718116760254
1761397179390115000,7.307114990234375,-0.13866232335567474,-0.4691306948661804,0.7948650121688843
1761397179409492000,7.326491943359375,-0.41705596446990967,-0.3173351585865021,0.5758762359619141
1761397179428855000,7.34585498046875,-0.47890424728393555,0.30939415097236633,0.7301151752471924
1761397179448245500,7.36524560546875,-0.26006820797920227,0.2651077210903168,1.0680664777755737
1761397179467622400,7.384622314453125,-0.17057909071445465,-1.1922211647033691,0.09575030952692032
1761397179486985500,7.4039853515625,-0.19806721806526184,-1.94081449508667,-2.00785493850708
1761397179506376000,7.4233759765625,-0.30572906136512756,-0.8125795722007751,-3.5801758766174316
1761397179525752600,7.442752685546875,-0.33230090141296387,0.8703046441078186,-3.615910291671753
1761397179545116000,7.462115966796875,0.022906772792339325,1.5384187698364258,-2.134453058242798
1761397179564506400,7.48150634765625,0.1188097894191742,1.306144118309021,0.05635065957903862
1761397179583883000,7.500883056640625,-0.2707580327987671,0.11911521852016449,1.4689348936080933
1761397179603246300,7.520246337890625,-0.5340332388877869,-0.795628547668457,1.8134528398513794
1761397179622636500,7.539636474609375,-0.5505260825157166,-0.9956810474395752,1.463742733001709
1761397179642013400,7.559013427734375,-0.44042086601257324,-0.2673983871936798,0.7023216485977173
1761397179661376800,7.578376708984375,-0.3561239540576935,0.5357130169868469,0.0925433561205864
1761397179680767000,7.59776708984375,-0.3943018913269043,0.934290885925293,-0.03802524134516716
1761397179700143900,7.617143798828125,-0.4253024160861969,0.8669449687004089,0.31382277607917786
1761397179719520500,7.6365205078125,-0.4253024160861969,0.33260634541511536,0.903901219367981
1761397179738897400,7.6558974609375,-0.3171824514865875,-0.17913095653057098,1.1851963996887207
1761397179758274300,7.6752744140625,-0.21211670339107513,-0.4283566474914551,0.9274188280105591
1761397179777637600,7.6946376953125,-0.004123218823224306,-0.6621584296226501,0.42881476879119873
1761397179797027800,7.71402783203125,0.21349111199378967,-0.7870767116546631,0.0844496339559555
1761397179816404700,7.73340478515625,0.4963133931159973,-0.399952232837677,-0.011911521665751934
1761397179835767800,7.752767822265625,0.7214106321334839,-0.5728220343589783,-0.7296570539474487
1761397179855158300,7.772158203125,0.721716046333313,-0.1719534993171692,-1.7503827810287476
1761397179874535000,7.791534912109375,0.33169007301330566,0.27381229400634766,-1.7693190574645996
1761397179893898200,7.810898193359375,0.12995775043964386,0.1763821393251419,-0.6676560640335083
1761397179913288700,7.830288818359375,0.3390202224254608,0.0007635590736754239,0.6998782753944397
1761397179932665300,7.849665283203125,0.1507265567779541,-0.13576079905033112,1.4031161069869995
1761397179952028700,7.869028564453125,0.023823043331503868,-0.31687700748443604,1.4558017253875732
1761397179971419100,7.888419189453125,0.13682979345321655,-0.395218163728714,1.0440906286239624
1761397179990795800,7.907795654296875,0.3130592107772827,-0.2101314514875412,0.6236750483512878
1761397180010159000,7.9271591796875,0.33321717381477356,0.05543438717722893,0.40575528144836426
1761397180029549300,7.94654931640625,0.13347013294696808,0.2238755226135254,0.38605546951293945
1761397180048926200,7.96592626953125,-0.12018419802188873,0.14080029726028442,0.6581879258155823
1761397180068302800,7.985302734375,-0.32161107659339905,-0.03527642786502838,1.102121114730835
1761397180087679700,8.0046796875,-0.626882016658783,-0.02229592576622963,1.3573026657104492
1761397180107056600,8.024056640625,-0.7612683773040771,0.06398624926805496,1.327981948852539
1761397180126420000,8.043419921875,-0.6274928450584412,0.2313583940267563,1.0717315673828125
1761397180145810200,8.06281005859375,-0.2930539846420288,0.3918585181236267,0.6120689511299133
1761397180165187000,8.08218701171875,0.04856235533952713,0.2348707765340805,0.2113531529903412
1761397180184550100,8.101550048828125,0.21959958970546722,0.07177454978227615,0.18340688943862915
1761397180203940600,8.120940673828125,0.15484978258609772,-0.5538857579231262,-0.2727433145046234
1761397180223317200,8.140317138671875,0.16492876410484314,-0.9370396733283997,-1.8861435651779175
1761397180242680600,8.1596806640625,0.2513636350631714,0.28098973631858826,-2.9896392822265625
1761397180262071000,8.179071044921875,0.3280249834060669,1.7244218587875366,-2.2673122882843018
1761397180281447700,8.19844775390625,0.5276193022727966,1.5507885217666626,-0.5352548956871033
1761397180300811000,8.21781103515625,0.5074613690376282,0.13056860864162445,0.7369872331619263
1761397180320201500,8.237201416015624,0.32191649079322815,-1.0407310724258423,1.2244433164596558
1761397180339578000,8.256578125,0.3071034550666809,-1.1348015069961548,0.9515473246574402
1761397180358941400,8.27594140625,0.4700469672679901,-0.575570821762085,0.29503923654556274
1761397180378331600,8.29533154296875,0.499673068523407,-0.3393256664276123,-0.2226538211107254
1761397180397708500,8.31470849609375,0.23028941452503204,-0.2848075330257416,-0.5957288146018982
1761397180417071900,8.33407177734375,-0.07055285573005676,0.005344913341104984,-0.7360709309577942
1761397180436462000,8.353462158203126,-0.17836740612983704,0.2648022770881653,-0.5424323678016663
1761397180455839000,8.3728388671875,-0.13973131775856018,0.3802524209022522,-0.26067906618118286
1761397180475215600,8.392215576171875,-0.09300149232149124,0.2770192325115204,-0.13347013294696808
1761397180494592500,8.411592529296875,-0.1498102843761444,0.09468132257461548,0
1761397180513969400,8.430969482421874,-0.1832541823387146,-0.14049486815929413,0.2029540091753006
1761397180533332500,8.45033251953125,-0.05894676223397255,-0.38849884271621704,0.37353309988975525
1761397180552723000,8.469722900390625,-0.00519220158457756,-0.5920637249946594,0.5525113344192505
1761397180572099600,8.489099609375,-0.11835165321826935,-0.5757235288619995,0.6560499668121338
1761397180591463000,8.508462890625,-0.39766156673431396,-0.5427377820014954,0.3177932798862457
1761397180610853400,8.527853271484375,-0.8406785130500793,-0.5824428796768188,-0.5896202921867371
1761397180630230000,8.54722998046875,-0.8310576677322388,-0.3694098889827728,-1.8194085359573364
1761397180649593300,8.56659326171875,-0.18035265803337097,0.5702258944511414,-2.6654319763183594
1761397180668983800,8.58598388671875,0.6265766024589539,1.1169341802597046,-2.192483425140381
1761397180688360400,8.6053603515625,1.4228159189224243,0.20157960057258606,-0.10277505218982697
1761397180707723800,8.624723876953125,1.6705145835876465,-1.0944855213165283,2.140714168548584
1761397180727114000,8.644114013671874,1.2242906093597412,-2.0032734870910645,2.9717719554901123
1761397180746491000,8.663490966796875,0.7496622800827026,-2.0965805053710938,2.563115119934082
1761397180765854200,8.682854248046874,0.3965925872325897,-1.2389509677886963,1.5839269161224365
1761397180785244400,8.702244384765624,-0.051769305020570755,-0.18249061703681946,0.3313846290111542
1761397180804621300,8.721621337890625,-0.45355409383773804,0.5042544007301331,-0.783869743347168
1761397180823984600,8.740984619140624,-0.6554391384124756,0.7653915882110596,-1.2519314289093018
1761397180843374800,8.760374755859376,-0.7374453544616699,0.7857022881507874,-1.1015102863311768
1761397180862751700,8.779751708984374,-0.580763041973114,0.7829535007476807,-0.5961869359016418
1761397180882128400,8.79912841796875,-0.3309265077114105,0.6200099587440491,-0.12064233422279358
1761397180901505300,8.81850537109375,-0.25411245226860046,0.33291175961494446,0.18218518793582916
1761397180920882000,8.8378818359375,-0.26999449729919434,0.10964708030223846,0.328330397605896
1761397180940245200,8.857245361328125,-0.15927842259407043,0.05543438717722893,0.3439069986343384
1761397180959635700,8.8766357421875,0.03665083646774292,0.197609081864357,0.23502348363399506
1761397180979012400,8.896012451171876,0.14583978056907654,0.03695625811815262,-0.18249061703681946
1761397180998375700,8.915375732421875,-0.09452861547470093,-0.6786513328552246,-0.4590517282485962
1761397181017766100,8.93476611328125,-0.2658712565898895,-1.3330214023590088,-0.8945857882499695
1761397181037142800,8.954142822265625,-0.10338589549064636,-0.36223241686820984,-0.8108997344970703
1761397181056519700,8.973519775390624,0.23227466642856598,0.4928010404109955,-0.10995250940322876
1761397181075896300,8.992896240234375,0.3668137788772583,0.05467082932591438,0.3642176687717438
1761397181095273200,9.012273193359375,0.14202198386192322,-0.7247702479362488,0.5398362874984741
1761397181114636500,9.031636474609375,-0.402395635843277,-0.9956810474395752,0.3038965165615082
1761397181134026800,9.05102685546875,-0.684148907661438,-0.474017471075058,-0.34451785683631897
1761397181153403600,9.070403564453125,-0.38544461131095886,0.24968381226062775,-0.8183826208114624
1761397181172767000,9.08976708984375,0.14186927676200867,0.7154548764228821,-0.7594358325004578
1761397181192157200,9.1091572265625,0.33535513281822205,0.45508119463920593,-0.3158080279827118
1761397181211534000,9.1285341796875,0.22005772590637207,-0.27717193961143494,0.2432699203491211
1761397181230897400,9.1478974609375,0.14049486815929413,-0.7160657048225403,0.5491516590118408
1761397181250287600,9.16728759765625,0.18753011524677277,-0.5858024954795837,0.3458922505378723
1761397181269664300,9.186664306640624,0.13377554714679718,-0.24678228795528412,-0.1569877415895462
1761397181289027600,9.206027587890626,0.0390942245721817,-0.008399149402976036,-0.2560977041721344
1761397181308418000,9.22541796875,-0.1719534993171692,0.0004581354442052543,0.04459185153245926
1761397181327794700,9.244794677734374,-0.3978142738342285,-0.006108472589403391,0.23868857324123383
1761397181347158000,9.264157958984375,-0.10873081535100937,-0.14522893726825714,0.20646637678146362
1761397181366548500,9.283548583984375,0.3217637836933136,-0.2029540091753006,-0.05864133685827255
1761397181385925000,9.302925048828126,0.06688777357339859,-0.2516690790653229,-0.8903098702430725
1761397181405288400,9.322288330078125,-0.1391204595565796,-0.5433486104011536,-3.002619743347168
1761397181424678700,9.3416787109375,0.22341738641262054,0.39888325333595276,-4.655877590179443
1761397181444055600,9.3610556640625,0.961778998374939,1.829945683479309,-4.022887229919434
1761397181463419000,9.3804189453125,1.4556490182876587,2.0923044681549072,-1.0853228569030762
1761397181482809000,9.39980908203125,0.9591829180717468,0.9316948056221008,1.751757264137268
1761397181502186000,9.41918603515625,0.3226800560951233,-0.00030542362947016954,3.051334857940674
1761397181521549300,9.43854931640625,-0.03634541109204292,-0.07452336698770523,3.110128879547119
1761397181540939500,9.457939453125,-0.43889376521110535,0.3158080279827118,2.585869073867798
1761397181560316400,9.47731640625,-0.89107346534729,0.9697200059890747,1.8658329248428345
1761397181579679700,9.4966796875,-1.2413944005966187,1.2471973896026611,1.2126845121383667
1761397181599070000,9.516070068359374,-1.2016892433166504,1.1264023780822754,1.0130901336669922
1761397181618446600,9.535446533203125,-0.8096780180931091,0.4381301999092102,1.0234745740890503
1761397181637823500,9.554823486328125,-0.2802261710166931,-0.09483403712511063,0.9339854717254639
1761397181657200400,9.574200439453126,0.08735115826129913,-0.4349232614040375,0.525175929069519
1761397181676577000,9.593576904296874,0.06520794332027435,-0.6887302994728088,-0.312142938375473
1761397181695940400,9.6129404296875,0.07437065243721008,-0.7371399402618408,-1.2123790979385376
1761397181715330600,9.63233056640625,-0.08170082420110703,-0.543195903301239,-1.6291296482086182
1761397181734707500,9.65170751953125,-0.24540787935256958,0.0659715011715889,-1.4157912731170654
1761397181754070800,9.67107080078125,0.29946786165237427,-0.08215895295143127,-1.3505833148956299
1761397181773461000,9.6904609375,0.3831539452075958,0.1841704547405243,-1.970287799835205
1761397181792838000,9.709837890625,-0.04184303805232048,0.6123743653297424,-1.9026365280151367
1761397181812201200,9.729201171875,-0.09529217332601547,0.6299362182617188,-0.48302745819091797
1761397181831591400,9.74859130859375,-0.07895200699567795,0.15439164638519287,1.4547327756881714
1761397181850968300,9.76796826171875,-0.23410721123218536,-0.39262208342552185,2.514247417449951
1761397181870331600,9.78733154296875,-0.08719844371080399,-0.4343124032020569,2.2717409133911133
1761397181889721900,9.806721923828125,0.1638597846031189,-0.17057909071445465,1.3226370811462402
1761397181909098800,9.8260986328125,0.22372281551361084,0.06826218217611313,0.14904673397541046
1761397181928462000,9.845462158203125,0.18523943424224854,0.3139754831790924,-0.938872218132019
1761397181947852300,9.864852294921874,0.07009471952915192,0.21242213249206543,-1.5570496320724487
1761397181967229200,9.884229248046875,0.030542362481355667,-0.17684027552604675,-1.4040324687957764
1761397181986592300,9.90359228515625,0.15866757929325104,-0.3101576864719391,-0.7044596076011658
1761397182005982700,9.922982666015624,0.38254308700561523,-0.22815145552158356,0.11651911586523056
1761397182025359400,9.942359375,0.5560237169265747,-0.13270656764507294,0.5494571328163147
1761397182044722700,9.96172265625,0.634364902973175,-0.13973131775856018,0.4367557764053345
1761397182064113000,9.98111279296875,0.5942016839981079,-0.01817270554602146,-0.05772506445646286
1761397182083489800,10.00048974609375,0.5212054252624512,0.457830011844635,-0.5671716928482056
1761397182102853000,10.01985302734375,0.9538379907608032,0.5193728804588318,-0.789061963558197
1761397182122243300,10.039243408203125,1.0992196798324585,-0.22280654311180115,-0.8542698621749878
1761397182141620200,10.0586201171875,0.8444963097572327,-0.43477052450180054,-1.5468180179595947
1761397182160983600,10.077983642578126,0.9292513728141785,1.2410888671875,-2.340614080429077
1761397182180373800,10.097373779296875,1.0708152055740356,3.3311028480529785,-2.1918725967407227
1761397182199750700,10.116750732421876,0.8782456517219543,3.9624135494232178,-1.324774980545044
1761397182219114000,10.136114013671875,0.4390464723110199,2.8427305221557617,-0.4674508571624756
1761397182238504200,10.155504150390625,-0.0522274412214756,1.150072693824768,0.19989976286888123
1761397182257881000,10.174881103515625,-0.21975229680538177,-0.0009162708884105086,0.6021426916122437
1761397182277244200,10.194244140625,-0.10796725004911423,-0.0856713280081749,0.7044596076011658
1761397182296634600,10.213634521484375,-0.012064233422279358,-0.06841489672660828,0.6577298045158386
1761397182316011300,10.23301123046875,-0.08887827396392822,-0.13469181954860687,0.7105680704116821
1761397182335388200,10.25238818359375,-0.24662958085536957,-0.3414636254310608,0.8898517489433289
1761397182354765000,10.27176513671875,-0.34512871503829956,-0.9382613897323608,1.173284888267517
1761397182374141700,10.2911416015625,-0.43706122040748596,-1.4942851066589355,1.3938007354736328
1761397182393505000,10.310505126953124,-0.487761527299881,-1.788102626800537,1.5732370615005493
1761397182412895500,10.3298955078125,-0.32939937710762024,-2.3474860191345215,1.4646589756011963
1761397182432272100,10.349272216796875,0.01817270554602146,-2.129566192626953,1.5086400508880615
1761397182451635500,10.368635498046874,0.03787253051996231,-0.8907679915428162,1.112200140953064
1761397182471025700,10.388025634765626,-0.2583884000778198,-0.08612946420907974,-0.5578562617301941
1761397182490402600,10.407402587890624,-0.8574768304824829,1.2154333591461182,-2.079782247543335
1761397182509766000,10.426765869140626,-0.82082599401474,2.921224355697632,-2.5757901668548584
1761397182529156000,10.446156005859375,-0.3877353072166443,3.7533509731292725,-2.5434153079986572
1761397182548533000,10.465532958984374,-0.1516428291797638,2.94168758392334,-2.0988712310791016
1761397182567896300,10.484896240234375,-0.4040754735469818,0.9466605186462402,-1.19191575050354
1761397182587286500,10.50428662109375,-0.45049986243247986,-0.9129112362861633,-0.0975828468799591
1761397182606663400,10.523663330078126,-0.07482878863811493,-1.437628984451294,0.5167768001556396
1761397182626026500,10.543026611328125,0.12690351903438568,-0.996444582939148,0.555260181427002
1761397182645417000,10.5624169921875,-0.030695075169205666,-0.393385648727417,0.5259394645690918
1761397182664793600,10.581793701171875,-0.35856732726097107,-0.31031039357185364,0.6923953890800476
1761397182684170500,10.60117041015625,-0.5441122055053711,-0.7223268747329712,1.0731059312820435
1761397182703547400,10.62054736328125,-0.44820916652679443,-0.9196305274963379,1.3954805135726929
1761397182722924000,10.639924072265625,-0.38132140040397644,-0.9636115431785583,1.4947432279586792
1761397182742287400,10.659287353515625,-0.3226800560951233,-1.6134003400802612,1.4194563627243042
1761397182761677600,10.678677490234374,-0.2727433145046234,-2.1646900177001953,1.386928677558899
1761397182781054500,10.698054443359375,-0.7372926473617554,-1.4503041505813599,1.2696460485458374
1761397182800417800,10.717417724609374,-1.1699252128601074,-0.5497625470161438,0.8687775135040283
1761397182819808000,10.73680810546875,-1.056002140045166,-0.3775036036968231,0.38040512800216675
1761397182839185000,10.756184814453125,-0.5076140761375427,-0.7693621516227722,-0.5854970812797546
1761397182858561800,10.775561767578125,0.2483094036579132,-0.8507575392723083,-1.8971388339996338
1761397182877938400,10.7949384765625,0.9097042679786682,-0.4158342778682709,-2.2928152084350586
1761397182897315300,10.8143154296875,0.6366555690765381,0.9009997248649597,-1.29331636428833
1761397182916678700,10.8336787109375,-0.32191649079322815,1.509861707687378,-0.28847262263298035
1761397182936068900,10.85306884765625,-1.0217947959899902,1.143964171409607,0.10827267915010452
1761397182955445500,10.872445556640624,-1.216196894645691,0.21333840489387512,0.13591352105140686
1761397182974808800,10.891808837890625,-0.9793408513069153,-0.11147962510585785,-0.13957859575748444
1761397182994199300,10.91119921875,-0.5613686442375183,0.3312319219112396,-0.543806791305542
1761397183013576000,10.930575927734376,-0.23303823173046112,0.7169819474220276,-0.7014053463935852
1761397183032939300,10.949939208984375,0.0032069480512291193,0.7649334669113159,-0.3242071866989136
1761397183052329500,10.96932958984375,0.2874036431312561,0.3912476599216461,0.62627112865448
1761397183071706400,10.988706298828125,0.5787777900695801,-0.5311316847801208,1.6827315092086792
1761397183091069700,11.008069580078125,0.6696413159370422,-1.3980766534805298,1.9460066556930542
1761397183110460000,11.0274599609375,0.4614951014518738,-1.2274975776672363,1.2481136322021484
1761397183129836800,11.0468369140625,-0.018783552572131157,-0.6181774139404297,0.4590517282485962
1761397183149200100,11.0662001953125,-0.45355409383773804,-0.5421269536018372,0.3796415627002716
1761397183168590300,11.08559033203125,-0.41171106696128845,-0.8800781965255737,0.29794076085090637
1761397183187967200,11.10496728515625,0.16645587980747223,-1.5327684879302979,-0.9581139087677002
1761397183207330600,11.12433056640625,0.8670976758003235,-1.2575818300247192,-2.458660125732422
1761397183226720800,11.143720703125,1.1002886295318604,0.10628741979598999,-2.3934521675109863
1761397183246097700,11.16309765625,0.6994200944900513,1.010799527168274,-1.2039799690246582
1761397183265460700,11.182460693359374,-0.1701209545135498,0.7759287357330322,-0.18844637274742126
1761397183284851200,11.201851318359376,-0.7229377031326294,-0.4647020399570465,0.33077380061149597
1761397183304227800,11.221227783203124,-0.6945333480834961,-1.0512681007385254,0.23441264033317566
1761397183323591200,11.240591064453126,-0.33230090141296387,-0.5473191738128662,0.014049487188458443
1761397183342981600,11.259981689453125,0.0024433890357613564,0.3052709102630615,0.23746687173843384
1761397183362358300,11.279358154296874,0.037567105144262314,0.8157865405082703,0.6525375843048096
1761397183381735200,11.298735107421875,-0.12400199472904205,0.6539120078086853,1.0424108505249023
1761397183401111800,11.31811181640625,-0.26128992438316345,0.015576604753732681,1.3713520765304565
1761397183420488700,11.33748876953125,-0.20646637678146362,-0.2092151790857315,1.5512466430664062
1761397183439852000,11.35685205078125,-0.051769305020570755,-0.06062658876180649,1.7009042501449585
1761397183459242200,11.3762421875,0.06612421572208405,0.22066856920719147,2.1714093685150146
1761397183478619100,11.395619140625,-0.004275931045413017,0.11621369421482086,2.744994878768921
1761397183497982500,11.414982421875,-0.2895416021347046,-2.016559600830078,1.890114188194275
1761397183517372700,11.43437255859375,-0.2958027720451355,-3.7484641075134277,-0.5112791657447815
1761397183536749600,11.45374951171875,0.38040512800216675,-2.2370753288269043,-2.256164312362671
1761397183556112600,11.473112548828125,0.4750864505767822,0.45859357714653015,-2.062220335006714
1761397183575503000,11.492503173828124,0.12583453953266144,1.210546612739563,-0.7310314774513245
1761397183594879700,11.511879638671875,0.0662769302725792,0.2098260372877121,0.24449162185192108
1761397183614243000,11.5312431640625,0.046729814261198044,-0.691326379776001,0.6899519562721252
1761397183633633500,11.550633544921874,0.12644538283348083,-0.6015318632125854,0.6809419989585876
1761397183653010200,11.57001025390625,0.2166980654001236,0.04489727318286896,0.44820916652679443
1761397183672387000,11.589386962890625,0.22189027070999146,0.43018919229507446,0.34070006012916565
1761397183691763700,11.608763671875,0.0522274412214756,0.312142938375473,0.4280512034893036
1761397183711140600,11.628140625,-0.16126367449760437,0.13408097624778748,0.8533536195755005
1761397183730504000,11.64750390625,-0.31626617908477783,-0.031000498682260513,1.1002886295318604
1761397183749894100,11.66689404296875,-0.266176700592041,0.04062134400010109,0.8762603998184204
1761397183769271000,11.68627099609375,-0.07711946964263916,0.11453386396169662,0.5815265774726868
1761397183788647700,11.705647705078125,-0.14018943905830383,-0.1310267299413681,0.33688226342201233
1761397183808024600,11.725024658203125,-0.3758237659931183,-0.41415444016456604,-0.20066332817077637
1761397183827401500,11.7444013671875,-0.27091076970100403,-0.2438807636499405,-1.1697725057601929
1761397183846764800,11.763764892578125,-0.006261184345930815,0.02993151545524597,-2.2086710929870605
1761397183866155000,11.783155029296875,0.2611372172832489,0.16615045070648193,-2.5738048553466797
1761397183885531600,11.80253173828125,0.569004237651825,0.2638860046863556,-2.3589394092559814
1761397183904895000,11.82189501953125,0.5190674662590027,0.9736905097961426,-1.7439689636230469
1761397183924285400,11.841285400390625,0.0922379344701767,0.7685985565185547,-1.019656777381897
1761397183943662000,11.860662109375,-0.28251686692237854,0.05375456064939499,-0.24006296694278717
1761397183963025400,11.880025390625,-0.2551814317703247,-0.07773031294345856,0.45233240723609924
1761397183982415600,11.89941552734375,-0.016798298805952072,0.2599155008792877,0.7522584199905396
1761397184001792500,11.91879248046875,0.12094775587320328,0.46607646346092224,0.5871769189834595
1761397184021169400,11.93816943359375,0.07834116369485855,0.49921491742134094,0.284654825925827
1761397184040546000,11.957546142578124,-0.10750912129878998,0.2166980654001236,0.16737215220928192
1761397184059923000,11.9769228515625,-0.2919849753379822,0.14370182156562805,0.09987352788448334
1761397184079299600,11.996299560546875,-0.3014531135559082,0.29916244745254517,0.03558185324072838
1761397184098676500,12.015676513671876,-0.26907822489738464,0.48333290219306946,-0.2345653474330902
1761397184118053400,12.035053466796874,-0.365286648273468,0.5392253994941711,-0.40667155385017395
1761397184137416400,12.05441650390625,-0.388651579618454,0.12064233422279358,-0.3174878656864166
1761397184156807000,12.073806884765625,0.033443886786699295,-0.050547610968351364,-0.25060009956359863
1761397184176183600,12.09318359375,0.1969982385635376,0.2707580327987671,-0.0012216945178806782
1761397184195560400,12.112560546875,0.06459710001945496,0.2673983871936798,0.1904316395521164
1761397184214937300,12.131937255859375,-0.05405998229980469,-0.19424942135810852,0.30817243456840515
