time,seconds_elapsed,z,y,x
1761397172220700700,0.13770068359375,0.041232191026210785,-0.03955236077308655,-0.031916771084070206
1761397172240077600,0.15707763671875,0.03497100621461868,0.0459662564098835,0.037567105144262314
1761397172259454200,0.1764541015625,-0.0029015245381742716,0.05375456064939499,0.1310267299413681
1761397172278831000,0.1958310546875,-0.0525328628718853,0.024128466844558716,0.16996824741363525
1761397172298208000,0.2152080078125,-0.010842538438737392,0.02473931387066841,0.13988402485847473
1761397172317584600,0.234584716796875,0.06047387793660164,0.025350160896778107,0.129499614238739
1761397172336961500,0.25396142578125,0.0716218426823616,0.01588202826678753,0.15439164638519287
1761397172356338400,0.27333837890625,0.1041494607925415,0.04153761267662048,0.18814095854759216
1761397172375715000,0.292715087890625,0.09865183383226395,0.0325276181101799,0.23090025782585144
1761397172395092000,0.312092041015625,0.0022906772792339325,-0.02733541466295719,0.2848075330257416
1761397172414468600,0.331468505859375,-0.07971556484699249,-0.009315420873463154,0.20814619958400726
1761397172433845500,0.350845458984375,-0.060932014137506485,0.007482878863811493,0.0653606578707695
1761397172453222400,0.370222412109375,0.0035123717971146107,-0.01511846948415041,0.001374406274408102
1761397172472599000,0.38959912109375,-0.012980503961443901,-0.038788799196481705,0.02229592576622963
1761397172491976000,0.408975830078125,-0.07773031294345856,-0.07406523078680038,0.003359660040587187
1761397172511352600,0.4283525390625,-0.052990999072790146,-0.029626091942191124,-0.03665083646774292
1761397172530729500,0.4477294921875,0.021532366052269936,-0.014660334214568138,-0.011606098152697086
1761397172550106400,0.4671064453125,0.043981000781059265,-0.08108997344970703,0.051616594195365906
1761397172569483000,0.48648291015625,0.008093725889921188,-0.0981936976313591,0.055892523378133774
1761397172588860000,0.50585986328125,-0.020616095513105392,-0.05100574716925621,0.016340164467692375
1761397172608236500,0.525236572265625,0.0007635590736754239,0.010842538438737392,0.011911521665751934
1761397172627613400,0.544613525390625,0.014965757727622986,0.007788302376866341,0.05008947476744652
1761397172646990300,0.563990234375,0.009468132629990578,-0.0397050715982914,0.08215895295143127
1761397172666367000,0.583366943359375,-0.0029015245381742716,-0.04932591691613197,0.09529217332601547
1761397172685743900,0.602743896484375,-0.005497625097632408,0.0016798300202935934,0.09177979826927185
1761397172705120500,0.62212060546875,0.009773556143045425,-0.019394399598240852,0.08063183724880219
1761397172724497400,0.641497314453125,0.002748812548816204,-0.031916771084070206,0.025808297097682953
1761397172743874300,0.660874267578125,0.011300674639642239,0.02870982140302658,-0.023212196305394173
1761397172763251000,0.6802509765625,0.05375456064939499,0.04550812020897865,-0.010537114925682545
1761397172782627800,0.6996279296875,0.033443886786699295,0.02229592576622963,0.030695075169205666
1761397172802004500,0.71900439453125,-0.018936265259981155,0.05986303091049194,0.007941014133393764
1761397172821381400,0.73838134765625,-0.01435491070151329,0.04306473210453987,-0.018630841746926308
1761397172840758300,0.75775830078125,-0.01252236869186163,-0.046729814261198044,0.0018325417768210173
1761397172860135000,0.777135009765625,-0.04550812020897865,-0.031916771084070206,0.012980503961443901
1761397172879511800,0.79651171875,-0.020310672000050545,0.016798298805952072,0.014965757727622986
1761397172898888700,0.815888671875,0.02351761981844902,-0.04352286830544472,0.02504473738372326
1761397172918265300,0.835265380859375,0.00030542362947016954,-0.0522274412214756,0.011453386396169662
1761397172937642200,0.854642333984375,-0.04489727318286896,0.0032069480512291193,-0.023364907130599022
1761397172957019000,0.874018798828125,0.0050394898280501366,0.04092676565051079,-0.04443913698196411
1761397172976395800,0.893395751953125,0.07834116369485855,-0.009009997360408306,-0.05772506445646286
1761397172995772700,0.912772705078125,0.059710320085287094,-0.05482354015111923,-0.09575030952692032
1761397173015149300,0.9321494140625,0.0459662564098835,-0.02367033064365387,-0.12690351903438568
1761397173034526200,0.951526123046875,0.0781884491443634,-0.03787253051996231,-0.10628741979598999
1761397173053902800,0.97090283203125,0.08612946420907974,-0.11438114941120148,-0.08842013776302338
1761397173073279700,0.99027978515625,0.062306419014930725,-0.13209572434425354,-0.049020491540431976
1761397173092656400,1.009656494140625,0.060779303312301636,-0.1188097894191742,0.10017894953489304
1761397173112033300,1.029033203125,0.06123743951320648,-0.20936790108680725,0.21181128919124603
1761397173131410200,1.04841015625,0.01832541823387146,-0.31596073508262634,0.20692451298236847
1761397173150786800,1.067786865234375,-0.025502873584628105,-0.40010493993759155,0.17256435751914978
1761397173170163700,1.087163818359375,0.020463382825255394,-0.39445462822914124,0.18279604613780975
1761397173189540400,1.106540283203125,0.10338589549064636,-0.31657159328460693,0.13744063675403595
1761397173208917200,1.125917236328125,0.16309621930122375,-0.2367033064365387,0.04046862944960594
1761397173228294100,1.145294189453125,0.19256959855556488,-0.17088451981544495,-0.07971556484699249
1761397173247670800,1.1646708984375,0.19867807626724243,-0.11774080991744995,-0.30633988976478577
1761397173267047700,1.184047607421875,0.2279987335205078,0.043981000781059265,-0.5659499764442444
1761397173286424600,1.203424560546875,0.208298921585083,0.24998924136161804,-0.5951179265975952
1761397173305801200,1.22280126953125,0.1360662281513214,0.4656183123588562,-0.251974493265152
1761397173325178000,1.24217822265625,0.01954711228609085,0.6957550048828125,-0.04337015375494957
1761397173344554800,1.2615546875,0.023059483617544174,0.5899257659912109,-0.36513394117355347
1761397173363931600,1.280931640625,0.1620272397994995,0.15439164638519287,-0.8058602213859558
1761397173383308500,1.30030859375,0.3471139669418335,-1.242310643196106,-1.5068074464797974
1761397173402685200,1.319685302734375,0.7101099491119385,-1.289040446281433,-1.9449377059936523
1761397173422062000,1.33906201171875,1.5917152166366577,-0.6555918455123901,-1.3435585498809814
1761397173441425400,1.35842529296875,2.867011547088623,0.2617480456829071,-0.12629267573356628
1761397173460815600,1.377815673828125,1.8618624210357666,0.5464028716087341,-0.2032594233751297
1761397173480192500,1.397192626953125,1.1205992698669434,-0.4220954477787018,0.12736165523529053
1761397173499555800,1.416555908203125,1.598129153251648,-0.6426113247871399,0.3749074935913086
1761397173518946000,1.435946044921875,1.897902488708496,0.08719844371080399,0.867861270904541
1761397173538322700,1.45532275390625,1.0992196798324585,-0.429883748292923,1.513068675994873
1761397173557686000,1.47468603515625,0.22494450211524963,-1.9409672021865845,1.3203463554382324
1761397173577076500,1.494076416015625,-0.1948602795600891,-2.0991766452789307,1.2027583122253418
1761397173596453000,1.513453125,-0.3170297145843506,-0.8241856694221497,1.0957072973251343
1761397173615816400,1.53281640625,-0.44454410672187805,0.45355409383773804,0.7062921524047852
1761397173635206700,1.55220654296875,-0.6940752267837524,0.9752176403999329,0.5037962794303894
1761397173654583600,1.57158349609375,-0.6678087711334229,0.6377245187759399,0.5181511640548706
1761397173673947000,1.59094677734375,-0.538919985294342,0.3038965165615082,0.6190937161445618
1761397173693337000,1.610337158203125,-0.5005893111228943,-0.07696675509214401,0.851215660572052
1761397173712714000,1.6297138671875,-0.5103628635406494,-0.2724378705024719,1.0294303894042969
1761397173732077300,1.649077392578125,-0.5838172435760498,-0.36513394117355347,0.8275453448295593
1761397173751467500,1.668467529296875,-0.6355865597724915,-0.6569662094116211,0.06139015033841133
1761397173770844400,1.687844482421875,-0.671015739440918,-0.9242119193077087,-0.8822161555290222
1761397173790207500,1.70720751953125,-0.5135698318481445,-1.0972343683242798,-1.8412463665008545
1761397173809598000,1.726597900390625,-0.19928891956806183,-1.868581771850586,-3.071645498275757
1761397173828974800,1.745974853515625,0.5590779781341553,-1.7360279560089111,-2.875105381011963
1761397173848338000,1.765337890625,0.823116660118103,-0.13392825424671173,-1.0092723369598389
1761397173867728400,1.784728271484375,0.7574505805969238,-0.5726693272590637,-1.1027320623397827
1761397173887105000,1.80410498046875,0.9248227477073669,-0.873511552810669,-2.227454423904419
1761397173906468400,1.82346826171875,1.0905150175094604,0.21181128919124603,-1.6075972318649292
1761397173925858800,1.84285888671875,1.0188932418823242,1.0671501159667969,-0.06016845628619194
1761397173945235500,1.8622353515625,0.9576557874679565,0.999346137046814,0.6267293095588684
1761397173964598800,1.881598876953125,0.7989882230758667,0.4569137394428253,0.543195903301239
1761397173983989000,1.900989013671875,0.4367557764053345,-0.2351761907339096,0.1850867122411728
1761397174003366000,1.920365966796875,0.13347013294696808,-0.6459710001945496,-0.22754059731960297
1761397174022729200,1.939729248046875,0.003970507066696882,-0.846023440361023,-0.5415160655975342
1761397174042119400,1.959119384765625,-0.183865025639534,-0.7786775231361389,-0.45324867963790894
1761397174061496300,1.978496337890625,-0.46302223205566406,-0.3173351585865021,-0.0012216945178806782
1761397174080859600,1.997859619140625,-0.6591041684150696,0.1629435122013092,0.4969242513179779
1761397174100249900,2.017249755859375,-0.7664605975151062,0.6392516493797302,0.7438592314720154
1761397174119626500,2.03662646484375,-0.6633801460266113,0.8532009124755859,0.6621584296226501
1761397174139003400,2.05600341796875,-0.546097457408905,0.6482616662979126,0.26006820797920227
1761397174158380300,2.07538037109375,-0.6655181050300598,0.09009996801614761,-0.40697699785232544
1761397174177757000,2.0947568359375,-0.6485670804977417,-0.8611419200897217,-1.159998893737793
1761397174197120300,2.114120361328125,-0.03390202298760414,-0.8461761474609375,-0.9634588360786438
1761397174216510700,2.1335107421875,0.6113054156303406,-1.7520626783370972,-0.6329904794692993
1761397174235887400,2.152887451171875,1.032942771911621,-2.3913142681121826,-0.39888325333595276
1761397174255250700,2.172250732421875,1.0891406536102295,-0.7502731680870056,0.9474241137504578
1761397174274641000,2.191640869140625,0.9556705355644226,1.6247010231018066,1.994416356086731
1761397174294017800,2.211017822265625,0.7226322889328003,3.234130859375,2.071230411529541
1761397174313381000,2.230381103515625,0.4243861436843872,3.5253522396087646,1.8094823360443115
1761397174332771300,2.249771240234375,0.15408621728420258,2.658254623413086,1.3125580549240112
1761397174352148200,2.269148193359375,-0.017867282032966614,1.4208307266235352,0.8890882134437561
1761397174371511600,2.288511474609375,-0.2861819267272949,0.5793886184692383,0.6423059105873108
1761397174390901800,2.30790185546875,-0.5729747414588928,0.28404396772384644,0.6306998133659363
1761397174410278700,2.327278564453125,-0.8171609044075012,0.4760027229785919,0.7528692483901978
1761397174429641700,2.346641845703125,-0.9208522439002991,0.7522584199905396,0.9013051390647888
1761397174449032200,2.3660322265625,-0.9886562824249268,0.6850652098655701,0.9828532338142395
1761397174468408800,2.385408935546875,-1.047144889831543,0.3110739588737488,0.9022213816642761
1761397174487772200,2.404772216796875,-0.9058864712715149,-0.1575985997915268,0.47737714648246765
1761397174507162600,2.42416259765625,-0.5731274485588074,-0.7136223316192627,-0.1053711548447609
1761397174526539300,2.443539306640625,-0.24998924136161804,-1.4160966873168945,-0.7519529461860657
1761397174545902600,2.462902587890625,-0.2020377367734909,-1.8762173652648926,-1.0763128995895386
1761397174565292800,2.482292724609375,-0.025502873584628105,-2.5878543853759766,-0.934290885925293
1761397174584669700,2.501669677734375,0.5767925381660461,-2.9554316997528076,-0.7403468489646912
1761397174604033000,2.521032958984375,1.2864443063735962,-1.4415994882583618,-0.4106420576572418
1761397174623423200,2.54042333984375,1.617370843887329,0.6163448691368103,0.08063183724880219
1761397174642800000,2.559800048828125,1.6109569072723389,2.2524993419647217,0.5825955867767334
1761397174662163500,2.57916357421875,1.6543270349502563,3.1722824573516846,0.7447755336761475
1761397174681553700,2.5985537109375,1.5292561054229736,2.895263195037842,0.7782194018363953
1761397174700930600,2.6179306640625,1.3505833148956299,1.9116464853286743,0.6281036734580994
1761397174720293600,2.637293701171875,1.0341644287109375,0.6739172339439392,0.6331431865692139
1761397174739684000,2.65668408203125,0.5954233407974243,-0.05070032179355621,0.7634063363075256
1761397174759060700,2.676060791015625,0.14797775447368622,0.0393996499478817,0.707361102104187
1761397174778424000,2.695424072265625,-0.2757975459098816,0.5173876285552979,0.555260181427002
1761397174797814500,2.714814453125,-0.6062659025192261,0.8095253109931946,0.44301697611808777
1761397174817191200,2.734191162109375,-0.8545753359794617,0.6963658928871155,0.3623851239681244
1761397174836554500,2.753554443359375,-0.9888089895248413,0.4022429287433624,0.1566823273897171
1761397174855945000,2.772945068359375,-0.9785773158073425,-0.0844496339559555,-0.2811424434185028
1761397174875321600,2.792321533203125,-0.7153021693229675,-0.7119424939155579,-0.8215895891189575
1761397174894685000,2.811684814453125,-0.5499152541160583,-1.4629791975021362,-1.286138892173767
1761397174914075100,2.8310751953125,-0.43263256549835205,-1.9950271844863892,-0.9194778203964233
1761397174933452000,2.8504521484375,-0.03817795217037201,-2.3192343711853027,-0.38132140040397644
1761397174952815400,2.8698154296875,0.2426590770483017,-2.264868974685669,-0.9498674869537354
1761397174972205600,2.88920556640625,0.531742513179779,-0.6868977546691895,-1.3023263216018677
1761397174991582500,2.90858251953125,0.8365553021430969,1.3886085748672485,-0.846023440361023
1761397175010945800,2.92794580078125,0.9494093656539917,2.4403347969055176,-0.35474956035614014
1761397175030336000,2.9473359375,0.8842014074325562,2.16652250289917,-0.20280128717422485
1761397175049712600,2.966712646484375,0.7685985565185547,0.9196305274963379,-0.11987877637147903
1761397175069076000,2.986075927734375,0.7285880446434021,-0.28282228112220764,-0.029626091942191124
1761397175088466400,3.005466552734375,0.6846070885658264,-0.6682668924331665,0.15210096538066864
1761397175107843000,3.024843017578125,0.3993414044380188,-0.6479562520980835,0.3071034550666809
1761397175127206400,3.044206298828125,-0.11743538826704025,-0.3655920922756195,0.32939937710762024
1761397175146596600,3.0635966796875,-0.5369347333908081,-0.08658760040998459,0.23746687173843384
1761397175165973500,3.082973388671875,-0.7191199064254761,-0.015576604753732681,0.18768282234668732
1761397175185336800,3.1023369140625,-0.7843278646469116,-0.21150586009025574,0.21226942539215088
1761397175204727000,3.12172705078125,-0.7574505805969238,-0.6639909744262695,0.18050536513328552
1761397175224104000,3.14110400390625,-0.8753440976142883,-1.0566130876541138,0.07146912813186646
1761397175243467300,3.16046728515625,-1.0837957859039307,-1.4302988052368164,-0.018783552572131157
1761397175262857500,3.179857421875,-1.098150610923767,-1.5295615196228027,0.1513374149799347
1761397175282234400,3.199234375,-0.9518527388572693,-0.8803836107254028,0.6256603002548218
1761397175301597700,3.21859765625,-0.6497887969017029,-0.06062658876180649,0.9341381788253784
1761397175320988000,3.23798779296875,-0.19241689145565033,0.17286977171897888,0.8364025950431824
1761397175340364800,3.25736474609375,-0.08322793990373611,-0.6299362182617188,0.10491301864385605
1761397175359727900,3.276727783203125,-0.3643703758716583,-1.6899089813232422,-1.054627776145935
1761397175379118300,3.296118408203125,-0.4011739492416382,-0.6739172339439392,-1.107924222946167
1761397175398495000,3.315494873046875,0.018019994720816612,1.212226390838623,-0.04077405482530594
1761397175417858300,3.3348583984375,0.3077143132686615,1.9212673902511597,0.9290986657142639
1761397175437248800,3.354248779296875,0.2295258641242981,1.3818892240524292,1.4073920249938965
1761397175456625400,3.37362548828125,0.12873606383800507,0.5331169366836548,1.689298152923584
1761397175475988700,3.39298876953125,0.07650861889123917,-0.22723518311977386,1.997470498085022
1761397175495379000,3.41237890625,-0.08002099394798279,-0.6235223412513733,2.170034885406494
1761397175514755800,3.431755859375,-0.13942588865756989,-0.6178719997406006,2.1129207611083984
1761397175534119200,3.451119140625,-0.36696648597717285,-0.5306735634803772,1.9227944612503052
1761397175553509400,3.47050927734375,-0.7476770281791687,-0.381474107503891,1.4696985483169556
1761397175572886300,3.48988623046875,-1.0074398517608643,-0.11651911586523056,0.8086090683937073
1761397175592249600,3.50924951171875,-1.0871554613113403,0.19806721806526184,0.023212196305394173
1761397175611639800,3.528639892578125,-1.0630269050598145,0.07757759839296341,-0.851215660572052
1761397175631016700,3.5480166015625,-0.6945333480834961,-0.14217470586299896,-1.4982556104660034
1761397175650379800,3.5673798828125,-0.22937314212322235,-0.18019993603229523,-1.7438162565231323
1761397175669770200,3.586770263671875,-0.014049487188458443,-0.3849864900112152,-1.797570824623108
1761397175689147000,3.60614697265625,-0.25411245226860046,-1.2334532737731934,-2.0701613426208496
1761397175708510200,3.62551025390625,-0.41354358196258545,-1.9837265014648438,-1.981435775756836
1761397175727900700,3.644900634765625,-0.5897729992866516,-0.29229041934013367,-1.1813786029815674
1761397175747277300,3.66427734375,-0.22158484160900116,1.8247535228729248,-0.4559974670410156
1761397175766640600,3.683640625,0.05528167635202408,2.207754611968994,-0.004581354558467865
1761397175786031000,3.703031005859375,-0.058335911482572556,1.2650647163391113,0.35917818546295166
1761397175805407700,3.72240771484375,-0.26495498418807983,0.5121954083442688,0.6668924689292908
1761397175824771000,3.74177099609375,-0.29885703325271606,0.29916244745254517,0.7069029808044434
1761397175844161300,3.761161376953125,-0.2515163719654083,0.21028417348861694,0.5378510355949402
1761397175863538200,3.7805380859375,-0.33001023530960083,0.2915268540382385,0.33566057682037354
1761397175882901500,3.799901611328125,-0.5357130169868469,0.46485477685928345,0.15378080308437347
1761397175902291700,3.819291748046875,-0.6852179169654846,0.5865660905838013,-0.007941014133393764
1761397175921668600,3.838668701171875,-0.6438329815864563,0.6067240238189697,-0.022601349279284477
1761397175941045200,3.858045166015625,-0.5254813432693481,0.2990097403526306,0.07513421028852463
1761397175960422100,3.877422119140625,-0.48043137788772583,-0.33001023530960083,0.08735115826129913
1761397175979799000,3.896799072265625,-0.3965925872325897,-0.8124268651008606,0.039857782423496246
1761397175999162000,3.916162109375,-0.16156910359859467,-1.290414810180664,-0.07024743407964706
1761397176018552600,3.935552490234375,-0.0065666078589856625,-1.4237322807312012,-0.1250709742307663
1761397176037929200,3.95492919921875,-0.1319430023431778,-0.5086830258369446,0.009468132629990578
1761397176057292500,3.97429248046875,0.015423892997205257,0.4527905285358429,0.27915719151496887
1761397176076683000,3.99368310546875,0.47859883308410645,-0.5080721974372864,0.3709369897842407
1761397176096059600,4.0130595703125,0.06413896381855011,-2.2673122882843018,-0.02626643143594265
1761397176115423000,4.032423095703125,-0.04413371533155441,-1.757102131843567,-0.02748812735080719
1761397176134813200,4.051813232421875,0.724006712436676,0.19974705576896667,0.5606050491333008
1761397176154190000,4.071190185546875,1.2603305578231812,0.23884128034114838,1.273005723953247
1761397176173553400,4.090553466796875,0.9979717135429382,-1.024238109588623,1.932415246963501
1761397176192943600,4.109943603515625,0.4543176591396332,-1.7569494247436523,2.430408477783203
1761397176212320500,4.129320556640625,0.15026842057704926,-1.2665917873382568,2.2344791889190674
1761397176231683800,4.148683837890625,-0.03649812191724777,-0.2548760175704956,1.1384665966033936
1761397176251074000,4.168073974609375,-0.45294323563575745,0.626882016658783,-0.2583884000778198
1761397176270451000,4.187450927734375,-0.8619054555892944,1.098150610923767,-1.3417259454727173
1761397176289814300,4.206814208984375,-0.9520054459571838,1.0870027542114258,-1.7454960346221924
1761397176309204500,4.22620458984375,-0.6806365847587585,0.8699992299079895,-1.243990421295166
1761397176328581000,4.2455810546875,-0.3101576864719391,0.6310052275657654,-0.15179555118083954
1761397176347958000,4.2649580078125,-0.17027367651462555,0.22158484160900116,0.7846332788467407
1761397176367335000,4.2843349609375,-0.11865708231925964,-0.2038702666759491,1.2836954593658447
1761397176386711600,4.303711669921875,-0.06139015033841133,-0.6513158679008484,1.212226390838623
1761397176406075000,4.323074951171875,-0.12888877093791962,-1.3409624099731445,0.6392516493797302
1761397176425465000,4.342465087890625,-0.3258870244026184,-1.6444008350372314,0.25258535146713257
1761397176444842000,4.361842041015625,-0.3315373361110687,-0.6206207871437073,0.5671716928482056
1761397176464205300,4.381205322265625,0.008093725889921188,0.24250635504722595,0.5222744345664978
1761397176483595500,4.400595458984375,0.08276980370283127,-0.014507622458040714,0.03298575058579445
1761397176502972400,4.419972412109375,0.062306419014930725,-0.7026270627975464,-0.37261682748794556
1761397176522335700,4.439335693359375,0.1044548824429512,-0.8116632699966431,-0.8866447806358337
1761397176541726000,4.458725830078125,0.3477247953414917,-0.6296308040618896,-1.252847671508789
1761397176561102800,4.478102783203125,0.7032378911972046,-0.37383851408958435,-0.6630746722221375
1761397176580466200,4.497466064453125,0.5966450572013855,-0.05894676223397255,0.3955236077308655
1761397176599856400,4.5168564453125,0.24540787935256958,0.291374146938324,0.9361234307289124
1761397176619233300,4.5362333984375,0.001985253533348441,0.4784461259841919,0.7716528177261353
1761397176638596400,4.555596435546875,-0.12155860662460327,0.5888567566871643,0.2483094036579132
1761397176657986800,4.57498681640625,-0.2166980654001236,0.7339329719543457,-0.31000497937202454
1761397176677363700,4.59436376953125,-0.33260634541511536,0.7041541934013367,-0.7343910932540894
1761397176696726800,4.613726806640625,-0.3058817684650421,0.6303943991661072,-0.8217422962188721
1761397176716117200,4.6331171875,-0.18004722893238068,0.5856497883796692,-0.5867187976837158
1761397176735494000,4.652493896484375,-0.03237490355968475,0.4056025743484497,-0.266176700592041
1761397176754857200,4.671857177734375,0.1391204595565796,0.04031591862440109,-0.20371755957603455
1761397176774247400,4.691247314453125,0.25380703806877136,-0.5351021885871887,-0.5667135715484619
1761397176793624300,4.710624267578125,0.2217375487089157,-0.9084826111793518,-1.0363023281097412
1761397176812987600,4.729987548828125,0.06245913356542587,-0.3715478479862213,-1.4386980533599854
1761397176832377900,4.7493779296875,0.09697200357913971,0.1782146841287613,-1.890419602394104
1761397176851754800,4.768754638671875,0.4694361090660095,-0.16874656081199646,-1.7180079221725464
1761397176871118000,4.7881181640625,0.6149705052375793,-1.3029371500015259,-1.1923738718032837
1761397176890508300,4.80750830078125,0.6545228362083435,-2.048781633377075,-1.1315945386886597
1761397176909885200,4.82688525390625,0.8264763355255127,-1.293010950088501,-0.9092461466789246
1761397176929248500,4.84624853515625,0.848924994468689,0.08872556686401367,-0.28037887811660767
1761397176948638700,4.865638671875,0.8003626465797424,0.49356457591056824,0.11499200016260147
1761397176968015600,4.885015625,0.6368082761764526,-0.0716218426823616,0.35200074315071106
1761397176987378700,4.904378662109375,0.5008947253227234,-1.1584718227386475,0.6649072170257568
1761397177006769200,4.92376904296875,0.47203221917152405,-1.85422682762146,0.9668185114860535
1761397177026145800,4.943145751953125,0.3683409094810486,-1.375475287437439,0.9521581530570984
1761397177045509000,4.962509033203125,0.24021568894386292,-0.5213581323623657,0.45523393154144287
1761397177064899600,4.981899658203125,0.20753535628318787,0.15301723778247833,-0.1841704547405243
1761397177084276200,5.001276123046875,0.21929416060447693,0.5202891230583191,-0.6134433746337891
1761397177103639600,5.0206396484375,0.1710372269153595,0.5439594984054565,-0.6203153729438782
1761397177123030000,5.040030029296875,0.19440214335918427,0.3286358118057251,-0.28098973631858826
1761397177142406700,5.05940673828125,0.21150586009025574,-0.049173206090927124,-0.12003148347139359
1761397177161770000,5.07877001953125,0.20280128717422485,-0.26251161098480225,-0.45477578043937683
1761397177181160200,5.09816015625,0.5285356044769287,-0.09620844572782516,-0.7482879161834717
1761397177200537000,5.117537109375,0.6859814524650574,1.1676344871520996,-0.2041756957769394
1761397177219900400,5.136900390625,0.6555918455123901,1.326149344444275,-0.3837648034095764
1761397177239290600,5.15629052734375,0.3324536085128784,0.6899519562721252,-1.9322625398635864
1761397177258667500,5.17566748046875,0.0844496339559555,1.2418525218963623,-2.837538242340088
1761397177278030800,5.19503076171875,0.28282228112220764,2.7842419147491455,-1.9999139308929443
1761397177297421000,5.214421142578125,0.358720064163208,3.1493756771087646,-0.22570806741714478
1761397177316797700,5.233797607421875,0.1751604527235031,1.9215728044509888,1.1616787910461426
1761397177336161000,5.2531611328125,-0.022754060104489326,0.5202891230583191,1.771762490272522
1761397177355551500,5.272551513671875,-0.11957334727048874,-0.07681404054164886,1.5917152166366577
1761397177374928100,5.29192822265625,-0.3089359998703003,0.13835690915584564,0.9759812355041504
1761397177394291500,5.31129150390625,-0.6774296164512634,0.846939742565155,0.22341738641262054
1761397177413682000,5.330681884765625,-1.0398147106170654,1.3356175422668457,-0.3455868363380432
1761397177433058600,5.35005859375,-1.1855018138885498,1.2617050409317017,-0.3955236077308655
1761397177452422000,5.369421875,-0.9309312105178833,0.8321266770362854,0.005650337319821119
1761397177471812000,5.38881201171875,-0.5332696437835693,0.2967190444469452,0.5380037426948547
1761397177491189000,5.40818896484375,-0.2754921019077301,-0.20402298867702484,0.9159654378890991
1761397177510552300,5.42755224609375,-0.06413896381855011,-0.6868977546691895,0.9649859666824341
1761397177529942500,5.446942626953125,0.16798299551010132,-1.1595407724380493,0.7595885396003723
1761397177549319400,5.4663193359375,0.5940489768981934,-1.3484452962875366,0.4450022280216217
1761397177568682800,5.485682861328125,0.9924740791320801,-0.4512633979320526,0.3790307343006134
1761397177588073000,5.505072998046875,1.126860499382019,-0.37597647309303284,-0.3573456406593323
1761397177607449900,5.524449951171875,0.7915053367614746,-1.9481446743011475,-2.132315158843994
1761397177626813200,5.543813232421875,0.6850652098655701,-0.6024481058120728,-2.0263330936431885
1761397177646203400,5.563203369140625,1.2849172353744507,1.8850746154785156,-0.13591352105140686
1761397177665580000,5.582580078125,1.7002933025360107,2.224705696105957,1.813605546951294
1761397177684943400,5.601943359375,1.621646761894226,0.9686510562896729,2.739497184753418
1761397177704333800,5.621333740234375,1.3075186014175415,-0.3602471649646759,2.6107611656188965
1761397177723710500,5.64071044921875,1.0842539072036743,-0.8240329623222351,1.8914885520935059
1761397177743073800,5.66007373046875,0.982700526714325,-0.4291202127933502,1.099372386932373
1761397177762464300,5.67946435546875,0.6814001202583313,0.16553960740566254,0.50685054063797
1761397177781841000,5.6988408203125,0.08078455179929733,0.6789567470550537,0.22219568490982056
1761397177801217800,5.7182177734375,-0.5714476108551025,0.8600729703903198,0.1951656937599182
1761397177820594400,5.737594482421875,-0.966971218585968,0.7296570539474487,0.395218163728714
1761397177839971300,5.756971435546875,-1.0272923707962036,0.3709369897842407,0.6807892918586731
1761397177859334700,5.776334716796875,-0.9263498783111572,-0.44011545181274414,0.7313368916511536
1761397177878724900,5.795724853515625,-0.8770239353179932,-1.2594143152236938,0.4575245976448059
1761397177898101800,5.815101806640625,-0.8211314082145691,-2.0009829998016357,-0.10094250738620758
1761397177917465000,5.834465087890625,-0.5911474227905273,-1.9762436151504517,-0.3020639717578888
1761397177936855300,5.853855224609375,-0.4494308829307556,-1.2481136322021484,-0.058183200657367706
1761397177956232200,5.873232177734375,-0.5931326746940613,-0.755770742893219,-0.6679614782333374
1761397177975595500,5.892595458984375,-0.7927270531654358,0.10873081535100937,-0.9290986657142639
1761397177994985700,5.91198583984375,-0.6675033569335938,0.5523586273193359,-0.6496360301971436
1761397178014362600,5.931362548828125,-0.45920443534851074,0.8055548071861267,-0.1047603040933609
1761397178033725700,5.9507255859375,-0.18111620843410492,0.7611156702041626,0.7076665759086609
1761397178053116200,5.9701162109375,0.0981936976313591,0.15271180868148804,1.3359229564666748
1761397178072492800,5.989492919921875,0.1178935244679451,-0.5644228458404541,1.371199369430542
1761397178091856100,6.008856201171875,0.05726693198084831,-0.8646543025970459,0.9645278453826904
1761397178111246600,6.02824658203125,0.12690351903438568,-0.6600204706192017,0.6000047326087952
1761397178130623200,6.047623291015625,0.05665608495473862,-0.2745758295059204,0.4043808877468109
1761397178149986600,6.066986572265625,-0.23960483074188232,0.09559759497642517,0.39323291182518005
1761397178169376800,6.086376708984375,-0.5682406425476074,0.4556920528411865,0.5402944087982178
1761397178188753700,6.105753662109375,-0.7966975569725037,0.5486935377120972,0.7954758405685425
1761397178208117000,6.125116943359375,-0.8860339522361755,0.28373855352401733,1.0561549663543701
1761397178227507200,6.144507080078125,-0.8729007244110107,-0.10033166408538818,1.0599727630615234
1761397178246884000,6.163884033203125,-0.8182299137115479,-0.6145123243331909,0.754396378993988
1761397178266247400,6.183247314453125,-0.6090146899223328,-0.9651386737823486,0.4428642690181732
1761397178285637600,6.2026376953125,-0.22219568490982056,-1.2270394563674927,0.1563768982887268
1761397178305014500,6.2220146484375,-0.15408621728420258,-1.952573299407959,-0.3918585181236267
1761397178324377900,6.2413779296875,-0.8063184022903442,-1.6964755058288574,-0.24540787935256958
1761397178343768000,6.26076806640625,-0.9881981611251831,-0.4034646153450012,0.6604785919189453
1761397178363145000,6.28014501953125,-0.6435275673866272,-0.16691401600837708,-0.3834593594074249
1761397178382508000,6.299508056640625,-0.4906630516052246,0.03558185324072838,-2.3561906814575195
1761397178401898500,6.3188984375,-0.25029465556144714,0.6656708121299744,-3.037896156311035
1761397178421275100,6.338275146484375,0.43477052450180054,0.6598677635192871,-1.653410792350769
1761397178440638500,6.357638427734375,0.7886037826538086,-0.4575245976448059,0.4938700199127197
1761397178460029000,6.37702880859375,0.5335750579833984,-1.3157650232315063,1.933942437171936
1761397178479405600,6.396405517578125,0.13179029524326324,-1.1662601232528687,1.9962488412857056
1761397178498769000,6.415768798828125,-0.016187451779842377,-0.36757734417915344,1.1430479288101196
1761397178518159000,6.4351591796875,-0.1310267299413681,0.6164975762367249,0.01435491070151329
1761397178537536000,6.454535888671875,-0.33978378772735596,1.1914576292037964,-1.0341644287109375
1761397178556899300,6.4738994140625,-0.4955498278141022,1.4078502655029297,-1.5110833644866943
1761397178576289500,6.49328955078125,-0.5416688323020935,1.353790283203125,-1.310420036315918
1761397178595666400,6.51266650390625,-0.4558447599411011,0.8916842937469482,-0.5357130169868469
1761397178615029800,6.53202978515625,-0.1985253542661667,0.28373855352401733,0.43049460649490356
1761397178634420000,6.551419921875,0.02092151902616024,-0.27503398060798645,0.8851176500320435
1761397178653796900,6.570796875,-0.06642963737249374,-0.9452861547470093,0.6507050395011902
1761397178673160200,6.59016015625,-0.16706672310829163,-1.2320789098739624,0.5577035546302795
1761397178692550400,6.60955029296875,-0.12613995373249054,-0.45859357714653015,0.7684458494186401
1761397178711927300,6.62892724609375,-0.2933593988418579,0.012980503961443901,0.21196399629116058
1761397178731290400,6.648290283203125,-0.26251161098480225,-0.32573428750038147,-0.8298360109329224
1761397178750680800,6.667680908203125,-0.2229592502117157,-0.22341738641262054,-1.4626737833023071
1761397178770057700,6.6870576171875,-0.1513374149799347,0.1656923145055771,-1.5613255500793457
1761397178789434400,6.706434326171875,0.2586938142776489,0.4372139275074005,-0.7670714259147644
1761397178808811300,6.725811279296875,0.5297572612762451,0.4566083252429962,0.2545706033706665
1761397178828188000,6.74518798828125,0.33199548721313477,0.08643488585948944,0.6022953987121582
1761397178847551200,6.76455126953125,0.07207997888326645,-0.10140064358711243,0.40285375714302063
1761397178866941400,6.78394140625,0.004886778071522713,0.37170055508613586,-0.054518118500709534
1761397178886318300,6.803318359375,0.03145863488316536,1.103342890739441,-0.5198310017585754
1761397178905681700,6.822681640625,0.005650337319821119,1.391815423965454,-0.765238881111145
1761397178925072000,6.84207177734375,-0.03436015918850899,1.18046236038208,-0.6354338526725769
1761397178944448800,6.86144873046875,0.005803049076348543,0.689341127872467,-0.08628217875957489
1761397178963825400,6.880825439453125,0.11209046840667725,0.21883602440357208,0.6598677635192871
1761397178983202300,6.900202392578125,0.19821994006633759,-0.03436015918850899,1.2019946575164795
1761397179002579200,6.9195791015625,0.1963873952627182,-0.03497100621461868,1.3209571838378906
1761397179021942500,6.938942626953125,0.09895725548267365,-0.3077143132686615,1.0321791172027588
1761397179041332700,6.958332763671875,-0.04199574887752533,-0.6752916574478149,0.455539345741272
1761397179060709600,6.977709716796875,-0.24601873755455017,-0.037261683493852615,0.12675081193447113
1761397179080072700,6.99707275390625,-0.37383851408958435,0.7485933303833008,0.14721418917179108
1761397179099463200,7.016463134765625,-0.19959434866905212,0.4155288338661194,-0.011911521665751934
1761397179118840000,7.035840087890625,-0.1453816443681717,-0.18142163753509521,-0.6284091472625732
1761397179138203100,7.055203125,-0.0050394898280501366,-0.564728319644928,-1.8119256496429443
1761397179157593600,7.074593505859375,0.20997874438762665,-0.3996468186378479,-2.354816198348999
1761397179176970200,7.09397021484375,0.4421007037162781,0.2513636350631714,-1.5152065753936768
1761397179196333600,7.11333349609375,0.4950917065143585,0.7487460374832153,-0.033443886786699295
1761397179215724000,7.13272412109375,0.2954973578453064,0.5984776020050049,1.0129374265670776
1761397179235100700,7.1521005859375,0.2214321345090866,-0.08704573661088943,1.22963547706604
1761397179254464000,7.171464111328125,0.34726667404174805,-0.4156815707683563,0.7348492741584778
1761397179273854200,7.190854248046875,0.43919917941093445,0.07986827939748764,-0.017714571207761765
1761397179293231000,7.210231201171875,0.42041563987731934,0.7530219554901123,-0.5373928546905518
1761397179312594400,7.229594482421875,0.34879377484321594,1.0796725749969482,-0.6499415040016174
1761397179331984600,7.248984619140625,0.23929941654205322,0.948951244354248,-0.38910970091819763
1761397179351361500,7.268361572265625,0.13392825424671173,0.603975236415863,0.11483928561210632
1761397179370738200,7.28773828125,0.06123743951320648,0.013896775431931019,0.6329904794692993
1761397179390115000,7.307114990234375,-0.13988402485847473,-0.4718795120716095,0.7902836203575134
1761397179409492000,7.326491943359375,-0.41827765107154846,-0.32008397579193115,0.5711421966552734
1761397179428855000,7.34585498046875,-0.48012593388557434,0.3064926266670227,0.7255338430404663
1761397179448245500,7.36524560546875,-0.261442631483078,0.26220619678497314,1.0633323192596436
1761397179467622400,7.384622314453125,-0.1719534993171692,-1.1951227188110352,0.09116895496845245
1761397179486985500,7.4039853515625,-0.19928891956806183,-1.9435632228851318,-2.0125889778137207
1761397179506376000,7.4233759765625,-0.30695074796676636,-0.8153283596038818,-3.584757089614868
1761397179525752600,7.442752685546875,-0.33352261781692505,0.8674030900001526,-3.6204917430877686
1761397179545116000,7.462115966796875,0.021532366052269936,1.5356700420379639,-2.1390342712402344
1761397179564506400,7.48150634765625,0.11743538826704025,1.303395390510559,0.051769305020570755
1761397179583883000,7.500883056640625,-0.2721324563026428,0.11636640131473541,1.4643535614013672
1761397179603246300,7.520246337890625,-0.5354076027870178,-0.7983773946762085,1.8087186813354492
1761397179622636500,7.539636474609375,-0.5519005060195923,-0.9984298348426819,1.459161400794983
1761397179642013400,7.559013427734375,-0.4416425824165344,-0.27029991149902344,0.6977402567863464
1761397179661376800,7.578376708984375,-0.3574983477592468,0.5329642295837402,0.08796200156211853
1761397179680767000,7.59776708984375,-0.39567631483078003,0.9315420985221863,-0.042606595903635025
1761397179700143900,7.617143798828125,-0.42667680978775024,0.8641961812973022,0.30908870697021484
1761397179719520500,7.6365205078125,-0.4265241026878357,0.3298575282096863,0.8993198871612549
1761397179738897400,7.6558974609375,-0.31855684518814087,-0.1820324808359146,1.18046236038208
1761397179758274300,7.6752744140625,-0.21349111199378967,-0.43110546469688416,0.922837495803833
1761397179777637600,7.6946376953125,-0.005497625097632408,-0.6650599241256714,0.42423340678215027
1761397179797027800,7.71402783203125,0.21226942539215088,-0.7898254990577698,0.07986827939748764
1761397179816404700,7.73340478515625,0.49493899941444397,-0.40285375714302063,-0.016492875292897224
1761397179835767800,7.752767822265625,0.7201889157295227,-0.575570821762085,-0.7342383861541748
1761397179855158300,7.772158203125,0.7203416228294373,-0.17470231652259827,-1.7549642324447632
1761397179874535000,7.791534912109375,0.33031564950942993,0.2710634768009186,-1.7740530967712402
1761397179893898200,7.810898193359375,0.12873606383800507,0.17348061501979828,-0.6723901033401489
1761397179913288700,7.830288818359375,0.33764582872390747,-0.001985253533348441,0.6952968835830688
1761397179932665300,7.849665283203125,0.1495048701763153,-0.13866232335567474,1.3985347747802734
1761397179952028700,7.869028564453125,0.02244863659143448,-0.3196258246898651,1.4512203931808472
1761397179971419100,7.888419189453125,0.13560809195041656,-0.39796698093414307,1.0395092964172363
1761397179990795800,7.907795654296875,0.3118375241756439,-0.21288026869297028,0.6190937161445618
1761397180010159000,7.9271591796875,0.33199548721313477,0.05268557742238045,0.4011739492416382
1761397180029549300,7.94654931640625,0.13209572434425354,0.2211267054080963,0.381474107503891
1761397180048926200,7.96592626953125,-0.12155860662460327,0.13805148005485535,0.6536065936088562
1761397180068302800,7.985302734375,-0.3229855000972748,-0.03817795217037201,1.0973870754241943
1761397180087679700,8.0046796875,-0.6282563805580139,-0.025197450071573257,1.3527212142944336
1761397180107056600,8.024056640625,-0.7624900937080383,0.06123743951320648,1.323400616645813
1761397180126420000,8.043419921875,-0.6287145614624023,0.2286095917224884,1.0671501159667969
1761397180145810200,8.06281005859375,-0.29442837834358215,0.38910970091819763,0.6074876189231873
1761397180165187000,8.08218701171875,0.04718795046210289,0.23212195932865143,0.20677179098129272
1761397180184550100,8.101550048828125,0.21822518110275269,0.06902574002742767,0.17867282032966614
1761397180203940600,8.120940673828125,0.15362808108329773,-0.5566345453262329,-0.2773246467113495
1761397180223317200,8.140317138671875,0.1635543555021286,-0.9397885203361511,-1.8908777236938477
1761397180242680600,8.1596806640625,0.24998924136161804,0.2782409191131592,-2.994220495223999
1761397180262071000,8.179071044921875,0.3268032968044281,1.7216730117797852,-2.2718937397003174
1761397180281447700,8.19844775390625,0.5262449383735657,1.5478869676589966,-0.5399889945983887
1761397180300811000,8.21781103515625,0.506239652633667,0.12781979143619537,0.7324058413505554
1761397180320201500,8.237201416015624,0.32069480419158936,-1.0434798002243042,1.2198619842529297
1761397180339578000,8.256578125,0.3058817684650421,-1.1375503540039062,0.9469659924507141
1761397180358941400,8.27594140625,0.4688252806663513,-0.5783196687698364,0.2904578745365143
1761397180378331600,8.29533154296875,0.49829864501953125,-0.342074453830719,-0.22738789021968842
1761397180397708500,8.31470849609375,0.22906772792339325,-0.2877090573310852,-0.6003101468086243
1761397180417071900,8.33407177734375,-0.0719272643327713,0.00259610079228878,-0.740652322769165
1761397180436462000,8.353462158203126,-0.17958909273147583,0.26190075278282166,-0.5470137000083923
1761397180455839000,8.3728388671875,-0.14110571146011353,0.37735089659690857,-0.2654131352901459
1761397180475215600,8.392215576171875,-0.09422318637371063,0.27411770820617676,-0.13805148005485535
1761397180494592500,8.411592529296875,-0.15118469297885895,0.09177979826927185,-0.004581354558467865
1761397180513969400,8.430969482421874,-0.18462859094142914,-0.14339639246463776,0.19821994006633759
1761397180533332500,8.45033251953125,-0.06032116711139679,-0.3912476599216461,0.3689517378807068
1761397180552723000,8.469722900390625,-0.0065666078589856625,-0.5948125123977661,0.5479300022125244
1761397180572099600,8.489099609375,-0.11972606182098389,-0.578472375869751,0.6514685750007629
1761397180591463000,8.508462890625,-0.3990359604358673,-0.5454866290092468,0.31321191787719727
1761397180610853400,8.527853271484375,-0.8419002294540405,-0.5851916670799255,-0.5943543910980225
1761397180630230000,8.54722998046875,-0.8324320912361145,-0.3721587061882019,-1.824142575263977
1761397180649593300,8.56659326171875,-0.18157434463500977,0.5674771070480347,-2.670013427734375
1761397180668983800,8.58598388671875,0.6253548860549927,1.1141854524612427,-2.1970648765563965
1761397180688360400,8.6053603515625,1.421594262123108,0.19883078336715698,-0.10735640674829483
1761397180707723800,8.624723876953125,1.6692928075790405,-1.0972343683242798,2.1359801292419434
1761397180727114000,8.644114013671874,1.2229162454605103,-2.0060224533081055,2.9671905040740967
1761397180746491000,8.663490966796875,0.7482879161834717,-2.0993292331695557,2.5585336685180664
1761397180765854200,8.682854248046874,0.395218163728714,-1.2418525218963623,1.5793455839157104
1761397180785244400,8.702244384765624,-0.053143709897994995,-0.18523943424224854,0.32665055990219116
1761397180804621300,8.721621337890625,-0.4549284875392914,0.5015056133270264,-0.788451075553894
1761397180823984600,8.740984619140624,-0.6568135023117065,0.7626428008079529,-1.2565127611160278
1761397180843374800,8.760374755859376,-0.7388197779655457,0.7829535007476807,-1.1060916185379028
1761397180862751700,8.779751708984374,-0.5821374654769897,0.7800519466400146,-0.6007682681083679
1761397180882128400,8.79912841796875,-0.33230090141296387,0.6172611713409424,-0.12522368133068085
1761397180901505300,8.81850537109375,-0.2554868757724762,0.33001023530960083,0.1776038408279419
1761397180920882000,8.8378818359375,-0.27121618390083313,0.10674555599689484,0.32374903559684753
1761397180940245200,8.857245361328125,-0.16050012409687042,0.05268557742238045,0.33917292952537537
1761397180959635700,8.8766357421875,0.03542914241552353,0.1948602795600891,0.2304421216249466
1761397180979012400,8.896012451171876,0.14461809396743774,0.03420744836330414,-0.18707197904586792
1761397180998375700,8.915375732421875,-0.09575030952692032,-0.6814001202583313,-0.4637857675552368
1761397181017766100,8.93476611328125,-0.26724568009376526,-1.3359229564666748,-0.8993198871612549
1761397181037142800,8.954142822265625,-0.1047603040933609,-0.36513394117355347,-0.8154810667037964
1761397181056519700,8.973519775390624,0.23105297982692719,0.4900522232055664,-0.11453386396169662
1761397181075896300,8.992896240234375,0.36543938517570496,0.051922015845775604,0.3596363365650177
1761397181095273200,9.012273193359375,0.14080029726028442,-0.7276718020439148,0.5352548956871033
1761397181114636500,9.031636474609375,-0.40361732244491577,-0.9984298348426819,0.2993151545524597
1761397181134026800,9.05102685546875,-0.6855233311653137,-0.47676628828048706,-0.34909921884536743
1761397181153403600,9.070403564453125,-0.38666632771492004,0.24678228795528412,-0.8229639530181885
1761397181172767000,9.08976708984375,0.14049486815929413,0.7127060294151306,-0.7641699314117432
1761397181192157200,9.1091572265625,0.3339807391166687,0.45233240723609924,-0.3205420970916748
1761397181211534000,9.1285341796875,0.21868331730365753,-0.28007346391677856,0.23868857324123383
1761397181230897400,9.1478974609375,0.13927318155765533,-0.718814492225647,0.5445703268051147
1761397181250287600,9.16728759765625,0.18615570664405823,-0.5885513424873352,0.34131091833114624
1761397181269664300,9.186664306640624,0.1325538605451584,-0.2495311051607132,-0.16156910359859467
1761397181289027600,9.206027587890626,0.03787253051996231,-0.011300674639642239,-0.26067906618118286
1761397181308418000,9.22541796875,-0.17332790791988373,-0.0024433890357613564,0.040010496973991394
1761397181327794700,9.244794677734374,-0.39918869733810425,-0.009009997360408306,0.2339545041322708
1761397181347158000,9.264157958984375,-0.11010521650314331,-0.14797775447368622,0.2017323076725006
1761397181366548500,9.283548583984375,0.32038938999176025,-0.20570281147956848,-0.06337540596723557
1761397181385925000,9.302925048828126,0.0656660795211792,-0.2545706033706665,-0.8948912620544434
1761397181405288400,9.322288330078125,-0.14049486815929413,-0.546097457408905,-3.0072009563446045
1761397181424678700,9.3416787109375,0.222042977809906,0.3961344361305237,-4.660459041595459
1761397181444055600,9.3610556640625,0.9604045748710632,1.8271968364715576,-4.027468681335449
1761397181463419000,9.3804189453125,1.4544273614883423,2.0895557403564453,-1.0900568962097168
1761397181482809000,9.39980908203125,0.9579612016677856,0.9289459586143494,1.747175931930542
1761397181502186000,9.41918603515625,0.32130566239356995,-0.0030542362947016954,3.046753406524658
1761397181521549300,9.43854931640625,-0.03771981969475746,-0.07727217674255371,3.1055474281311035
1761397181540939500,9.457939453125,-0.4402681589126587,0.31290650367736816,2.5812878608703613
1761397181560316400,9.47731640625,-0.892447829246521,0.9668185114860535,1.8612515926361084
1761397181579679700,9.4966796875,-1.2427687644958496,1.2444485425949097,1.2081031799316406
1761397181599070000,9.516070068359374,-1.2029110193252563,1.123653531074524,1.0085088014602661
1761397181618446600,9.535446533203125,-0.8108997344970703,0.4352286756038666,1.0188932418823242
1761397181637823500,9.554823486328125,-0.28160059452056885,-0.09773556143045425,0.929404079914093
1761397181657200400,9.574200439453126,0.08612946420907974,-0.43767204880714417,0.5204418897628784
1761397181676577000,9.593576904296874,0.06383354216814041,-0.6914790868759155,-0.3167243003845215
1761397181695940400,9.6129404296875,0.07314895838499069,-0.7398887276649475,-1.2169604301452637
1761397181715330600,9.63233056640625,-0.08307522535324097,-0.5459447503089905,-1.6337109804153442
1761397181734707500,9.65170751953125,-0.24678228795528412,0.06322269141674042,-1.4203726053237915
1761397181754070800,9.67107080078125,0.2982461750507355,-0.0850604772567749,-1.355164647102356
1761397181773461000,9.6904609375,0.3817795515060425,0.18126893043518066,-1.9748691320419312
1761397181792838000,9.709837890625,-0.04321744292974472,0.6094728708267212,-1.9072178602218628
1761397181812201200,9.729201171875,-0.09666658192873001,0.6270347237586975,-0.48760882019996643
1761397181831591400,9.74859130859375,-0.08032641559839249,0.15149012207984924,1.4501514434814453
1761397181850968300,9.76796826171875,-0.2354816198348999,-0.3953709006309509,2.5096659660339355
1761397181870331600,9.78733154296875,-0.08857285231351852,-0.43706122040748596,2.2671597003936768
1761397181889721900,9.806721923828125,0.1626380831003189,-0.17332790791988373,1.3180556297302246
1761397181909098800,9.8260986328125,0.2223484069108963,0.06551336497068405,0.144465371966362
1761397181928462000,9.845462158203125,0.18401773273944855,0.31122666597366333,-0.9434536099433899
1761397181947852300,9.864852294921874,0.06872031837701797,0.2095206081867218,-1.5616309642791748
1761397181967229200,9.884229248046875,0.029320668429136276,-0.17958909273147583,-1.4086138010025024
1761397181986592300,9.90359228515625,0.15744587779045105,-0.31290650367736816,-0.7090409398078918
1761397182005982700,9.922982666015624,0.3811686933040619,-0.23090025782585144,0.1119377613067627
1761397182025359400,9.942359375,0.554649293422699,-0.13560809195041656,0.5448757410049438
1761397182044722700,9.96172265625,0.6331431865692139,-0.14248012006282806,0.43202173709869385
1761397182064113000,9.98111279296875,0.5928272604942322,-0.02092151902616024,-0.06245913356542587
1761397182083489800,10.00048974609375,0.5198310017585754,0.45508119463920593,-0.5719057321548462
1761397182102853000,10.01985302734375,0.952616274356842,0.5164713859558105,-0.7936432957649231
1761397182122243300,10.039243408203125,1.0979979038238525,-0.22555534541606903,-0.8588512539863586
1761397182141620200,10.0586201171875,0.8432746529579163,-0.4375193417072296,-1.5513993501663208
1761397182160983600,10.077983642578126,0.9280297160148621,1.238340139389038,-2.3451952934265137
1761397182180373800,10.097373779296875,1.0694408416748047,3.3282012939453125,-2.1964540481567383
1761397182199750700,10.116750732421876,0.8768712282180786,3.9596645832061768,-1.32935631275177
1761397182219114000,10.136114013671875,0.4378247857093811,2.8399815559387207,-0.47203221917152405
1761397182238504200,10.155504150390625,-0.05360184609889984,1.1473238468170166,0.1951656937599182
1761397182257881000,10.174881103515625,-0.22097399830818176,-0.0036650835536420345,0.5974085927009583
1761397182277244200,10.194244140625,-0.10934165865182877,-0.08842013776302338,0.6998782753944397
1761397182296634600,10.213634521484375,-0.013438640162348747,-0.07116370648145676,0.6531484127044678
1761397182316011300,10.23301123046875,-0.09025268256664276,-0.13744063675403595,0.705986738204956
1761397182335388200,10.25238818359375,-0.24785128235816956,-0.34421244263648987,0.8852704167366028
1761397182354765000,10.27176513671875,-0.34635040163993835,-0.9410101771354675,1.168703556060791
1761397182374141700,10.2911416015625,-0.4384356141090393,-1.497033953666687,1.3892194032669067
1761397182393505000,10.310505126953124,-0.4891359508037567,-1.7910041809082031,1.5686557292938232
1761397182412895500,10.3298955078125,-0.3306210935115814,-2.3502347469329834,1.4600776433944702
1761397182432272100,10.349272216796875,0.01695101149380207,-2.132467746734619,1.5040587186813354
1761397182451635500,10.368635498046874,0.03665083646774292,-0.8935168385505676,1.1074661016464233
1761397182471025700,10.388025634765626,-0.25976279377937317,-0.08887827396392822,-0.5624375939369202
1761397182490402600,10.407402587890624,-0.8588512539863586,1.2126845121383667,-2.0843634605407715
1761397182509766000,10.426765869140626,-0.8222004175186157,2.918475389480591,-2.580371618270874
1761397182529156000,10.446156005859375,-0.38910970091819763,3.7506022453308105,-2.5479965209960938
1761397182548533000,10.465532958984374,-0.15286453068256378,2.938786268234253,-2.103452444076538
1761397182567896300,10.484896240234375,-0.40544986724853516,0.943759024143219,-1.1964970827102661
1761397182587286500,10.50428662109375,-0.4518742561340332,-0.91566002368927,-0.10216420143842697
1761397182606663400,10.523663330078126,-0.07605048269033432,-1.4403778314590454,0.5121954083442688
1761397182626026500,10.543026611328125,0.12552911043167114,-0.9991934299468994,0.5506787896156311
1761397182645417000,10.5624169921875,-0.032069481909275055,-0.3961344361305237,0.5213581323623657
1761397182664793600,10.581793701171875,-0.3599417507648468,-0.3130592107772827,0.6878139972686768
1761397182684170500,10.60117041015625,-0.5454866290092468,-0.7250757217407227,1.0685245990753174
1761397182703547400,10.62054736328125,-0.44958359003067017,-0.9223793745040894,1.3908991813659668
1761397182722924000,10.639924072265625,-0.3826957941055298,-0.9663603901863098,1.4901618957519531
1761397182742287400,10.659287353515625,-0.324054479598999,-1.6161491870880127,1.4148749113082886
1761397182761677600,10.678677490234374,-0.27411770820617676,-2.1675915718078613,1.3823473453521729
1761397182781054500,10.698054443359375,-0.7386670708656311,-1.4530528783798218,1.2649120092391968
1761397182800417800,10.717417724609374,-1.1711468696594238,-0.5525113344192505,0.8641961812973022
1761397182819808000,10.73680810546875,-1.0573766231536865,-0.3802524209022522,0.3758237659931183
1761397182839185000,10.756184814453125,-0.5088357925415039,-0.7722636461257935,-0.5900784730911255
1761397182858561800,10.775561767578125,0.24693500995635986,-0.853506326675415,-1.9017202854156494
1761397182877938400,10.7949384765625,0.9084826111793518,-0.4187358021736145,-2.297549247741699
1761397182897315300,10.8143154296875,0.6354338526725769,0.8980981707572937,-1.2978976964950562
1761397182916678700,10.8336787109375,-0.3232909142971039,1.5071128606796265,-0.2930539846420288
1761397182936068900,10.85306884765625,-1.0230164527893066,1.1410627365112305,0.10369132459163666
1761397182955445500,10.872445556640624,-1.2175712585449219,0.21058958768844604,0.1313321590423584
1761397182974808800,10.891808837890625,-0.9805625677108765,-0.11422843486070633,-0.14431266486644745
1761397182994199300,10.91119921875,-0.5625903010368347,0.32848310470581055,-0.5483881235122681
1761397183013576000,10.930575927734376,-0.23425991833209991,0.7142331600189209,-0.705986738204956
1761397183032939300,10.949939208984375,0.001985253533348441,0.7621846795082092,-0.32878854870796204
1761397183052329500,10.96932958984375,0.28602921962738037,0.3883461356163025,0.6216897964477539
1761397183071706400,10.988706298828125,0.5774033665657043,-0.5338805317878723,1.6781501770019531
1761397183091069700,11.008069580078125,0.6682668924331665,-1.4008255004882812,1.9414253234863281
1761397183110460000,11.0274599609375,0.460273414850235,-1.2302464246749878,1.2435322999954224
1761397183129836800,11.0468369140625,-0.020157959312200546,-0.6209262609481812,0.45447036623954773
1761397183149200100,11.0662001953125,-0.4549284875392914,-0.5448757410049438,0.37506023049354553
1761397183168590300,11.08559033203125,-0.4130854606628418,-0.8828269839286804,0.29320669174194336
1761397183187967200,11.10496728515625,0.1650814712047577,-1.5355173349380493,-0.9628480076789856
1761397183207330600,11.12433056640625,0.8658760190010071,-1.2603305578231812,-2.4633941650390625
1761397183226720800,11.143720703125,1.099066972732544,0.10338589549064636,-2.398033618927002
1761397183246097700,11.16309765625,0.6981984376907349,1.0080506801605225,-1.2085613012313843
1761397183265460700,11.182460693359374,-0.1713426560163498,0.7731798887252808,-0.19302773475646973
1761397183284851200,11.201851318359376,-0.7243121266365051,-0.46760356426239014,0.32603973150253296
1761397183304227800,11.221227783203124,-0.695907711982727,-1.0541696548461914,0.2298312783241272
1761397183323591200,11.240591064453126,-0.3336753249168396,-0.5500679612159729,0.009468132629990578
1761397183342981600,11.259981689453125,0.0010689827613532543,0.30252209305763245,0.23273280262947083
1761397183362358300,11.279358154296874,0.03634541109204292,0.8128849864006042,0.647803544998169
1761397183381735200,11.298735107421875,-0.1253764033317566,0.6511631608009338,1.0378295183181763
1761397183401111800,11.31811181640625,-0.2626643180847168,0.012827792204916477,1.3667707443237305
1761397183420488700,11.33748876953125,-0.20768806338310242,-0.21196399629116058,1.5466653108596802
1761397183439852000,11.35685205078125,-0.053143709897994995,-0.06352811306715012,1.6963227987289429
1761397183459242200,11.3762421875,0.06490252166986465,0.21791976690292358,2.166675329208374
1761397183478619100,11.395619140625,-0.005650337319821119,0.11331216990947723,2.7404134273529053
1761397183497982500,11.414982421875,-0.29091599583625793,-2.01930832862854,1.8855327367782593
1761397183517372700,11.43437255859375,-0.29717719554901123,-3.7512130737304688,-0.5158604979515076
1761397183536749600,11.45374951171875,0.37918344140052795,-2.2398242950439453,-2.2607457637786865
1761397183556112600,11.473112548828125,0.47386476397514343,0.4558447599411011,-2.0668017864227295
1761397183575503000,11.492503173828124,0.1244601309299469,1.2077977657318115,-0.7357655167579651
1761397183594879700,11.511879638671875,0.0650552362203598,0.20707722008228302,0.23975755274295807
1761397183614243000,11.5312431640625,0.045355409383773804,-0.6940752267837524,0.6853706240653992
1761397183633633500,11.550633544921874,0.12522368133068085,-0.6042806506156921,0.6763606071472168
1761397183653010200,11.57001025390625,0.21532365679740906,0.04199574887752533,0.4434750974178314
1761397183672387000,11.589386962890625,0.22066856920719147,0.4274403750896454,0.3361186981201172
1761397183691763700,11.608763671875,0.05085303261876106,0.3092414140701294,0.42331716418266296
1761397183711140600,11.628140625,-0.1626380831003189,0.1313321590423584,0.8487722873687744
1761397183730504000,11.64750390625,-0.3176405727863312,-0.03374931216239929,1.0955545902252197
1761397183749894100,11.66689404296875,-0.26755109429359436,0.03787253051996231,0.8716790676116943
1761397183769271000,11.68627099609375,-0.0784938707947731,0.11178504675626755,0.5767925381660461
1761397183788647700,11.705647705078125,-0.14156384766101837,-0.13377554714679718,0.3321481943130493
1761397183808024600,11.725024658203125,-0.37704548239707947,-0.4169032573699951,-0.20539739727973938
1761397183827401500,11.7444013671875,-0.2721324563026428,-0.24678228795528412,-1.174353837966919
1761397183846764800,11.763764892578125,-0.007635590620338917,0.027182703837752342,-2.213252305984497
1761397183866155000,11.783155029296875,0.25976279377937317,0.16340164840221405,-2.5783863067626953
1761397183885531600,11.80253173828125,0.5676298141479492,0.2611372172832489,-2.363673448562622
1761397183904895000,11.82189501953125,0.5178457498550415,0.9709417223930359,-1.748550295829773
1761397183924285400,11.841285400390625,0.0910162404179573,0.7656970620155334,-1.0243908166885376
1761397183943662000,11.860662109375,-0.2838912606239319,0.05100574716925621,-0.24464432895183563
1761397183963025400,11.880025390625,-0.25655585527420044,-0.08047912269830704,0.4477510452270508
1761397183982415600,11.89941552734375,-0.01817270554602146,0.25716668367385864,0.7476770281791687
1761397184001792500,11.91879248046875,0.11972606182098389,0.4631749391555786,0.5824428796768188
1761397184021169400,11.93816943359375,0.07696675509214401,0.49646610021591187,0.279920756816864
1761397184040546000,11.957546142578124,-0.10888352245092392,0.21394924819469452,0.16279079020023346
1761397184059923000,11.9769228515625,-0.29320669174194336,0.14095300436019897,0.09529217332601547
1761397184079299600,11.996299560546875,-0.30282753705978394,0.2964136302471161,0.031000498682260513
1761397184098676500,12.015676513671876,-0.27029991149902344,0.4805840849876404,-0.23914669454097748
1761397184118053400,12.035053466796874,-0.3665083646774292,0.5364766120910645,-0.4112529158592224
1761397184137416400,12.05441650390625,-0.3898732662200928,0.1178935244679451,-0.3220692276954651
1761397184156807000,12.073806884765625,0.032222192734479904,-0.05329642444849014,-0.2551814317703247
1761397184176183600,12.09318359375,0.19562382996082306,0.2680092453956604,-0.005803049076348543
1761397184195560400,12.112560546875,0.06337540596723557,0.2644968628883362,0.18585027754306793
1761397184214937300,12.131937255859375,-0.05543438717722893,-0.1969982385635376,0.3035911023616791
