time,seconds_elapsed,z,y,x
1761397172212132400,0.12913232421875,8.742775917053223,4.583451747894287,-1.246660590171814
1761397172231509200,0.14850927734375,9.057432174682617,4.591826438903809,-0.9667003750801086
1761397172250886000,0.167885986328125,9.118449211120605,4.631308078765869,-0.9116654396057129
1761397172270262800,0.1872626953125,8.788239479064941,4.696512699127197,-0.8925228714942932
1761397172289639400,0.206639404296875,8.469993591308594,4.6995038986206055,-1.3124631643295288
1761397172309016300,0.226016357421875,8.552546501159668,4.716253280639648,-1.3908281326293945
1761397172328393200,0.245393310546875,8.62313461303711,4.6887359619140625,-1.072582721710205
1761397172347769900,0.264769775390625,8.71346378326416,4.780261516571045,-1.1413763761520386
1761397172367146800,0.284146728515625,8.712865829467773,4.845465660095215,-0.9684949517250061
1761397172386523400,0.3035234375,8.690134048461914,4.870590686798096,-0.5982056856155396
1761397172405900300,0.322900390625,7.922635555267334,4.993820667266846,-0.5856433510780334
1761397172425277200,0.342277099609375,7.565506935119629,4.996213912963867,-0.9906286001205444
1761397172444653800,0.36165380859375,7.938787460327148,5.015954494476318,-1.2819547653198242
1761397172464030700,0.38103076171875,8.318049430847168,5.02432918548584,-0.9044869542121887
1761397172483407600,0.40040771484375,8.131409645080566,5.042275428771973,-0.6945167779922485
1761397172502784300,0.4197841796875,8.071588516235352,5.024927616119385,-1.031306505203247
1761397172522161200,0.4391611328125,8.48853874206543,4.924428939819336,-1.2496516704559326
1761397172541537800,0.458537841796875,8.778069496154785,4.949553489685059,-1.0995019674301147
1761397172560914700,0.477914794921875,8.563314437866211,5.062614440917969,-0.745364248752594
1761397172580291600,0.49729150390625,8.337790489196777,5.06082010269165,-0.7663014531135559
1761397172599668200,0.516668212890625,8.434700012207031,5.015356063842773,-0.9960124492645264
1761397172619045000,0.536045166015625,8.520841598510742,5.006981372833252,-1.0265209674835205
1761397172638421800,0.555421875,8.407780647277832,5.02432918548584,-0.966102123260498
1761397172657798700,0.574798583984375,8.376673698425293,5.015954494476318,-0.9924231767654419
1761397172677175300,0.59417529296875,8.288139343261719,5.00997257232666,-0.9990034699440002
1761397172696552200,0.61355224609375,8.27258586883545,5.042275428771973,-1.134796142578125
1761397172715929000,0.63292919921875,8.057231903076172,5.08355188369751,-0.9864411354064941
1761397172735305700,0.6523056640625,8.09970474243164,5.0356950759887695,-1.0671988725662231
1761397172754682600,0.6716826171875,8.366504669189453,5.032105922698975,-1.2197413444519043
1761397172774059500,0.6910595703125,8.428119659423828,5.076971530914307,-0.8973084688186646
1761397172793436200,0.710436279296875,8.091927528381348,5.088935375213623,-0.7465606927871704
1761397172812813000,0.72981298828125,8.157132148742676,5.076971530914307,-1.0977073907852173
1761397172832189700,0.749189697265625,8.435297966003418,5.069194793701172,-1.077966570854187
1761397172851566600,0.768566650390625,8.388039588928223,5.0566325187683105,-0.8566305041313171
1761397172870943500,0.787943603515625,8.340781211853027,5.023731231689453,-1.090528964996338
1761397172890320100,0.807320068359375,8.398807525634766,5.02133846282959,-1.2317054271697998
1761397172909697000,0.826697021484375,8.286344528198242,5.077569484710693,-0.8536394834518433
1761397172929073700,0.84607373046875,8.279166221618652,5.02133846282959,-0.6759724020957947
1761397172948450600,0.865450439453125,8.293522834777832,4.978267669677734,-1.1054840087890625
1761397172967827500,0.884827392578125,8.129016876220703,5.0566325187683105,-1.2185449600219727
1761397172987204000,0.9042041015625,7.945965766906738,5.065007209777832,-0.8045865893363953
1761397173006581000,0.9235810546875,8.058428764343262,5.106881618499756,-0.8721838593482971
1761397173025957600,0.94295751953125,8.385048866271973,5.13320255279541,-0.9684949517250061
1761397173045334500,0.96233447265625,8.421539306640625,5.26899528503418,-0.7160521745681763
1761397173064711400,0.98171142578125,8.635697364807129,5.368896007537842,-0.48813581466674805
1761397173084088000,1.001088134765625,9.33858871459961,5.292325496673584,-0.529412031173706
1761397173103465000,1.02046484375,9.118449211120605,5.397609710693359,-0.4707878530025482
1761397173122841600,1.039841552734375,8.391629219055176,5.569892883300781,-0.21355941891670227
1761397173142218500,1.059218505859375,8.152944564819336,5.589633464813232,-0.2560320198535919
1761397173161595400,1.078595458984375,8.179265975952148,5.529214859008789,-0.6143572330474854
1761397173180972000,1.097971923828125,7.53858757019043,5.4143595695495605,-0.5533402562141418
1761397173200349000,1.117348876953125,6.868597507476807,5.457430362701416,-0.37926238775253296
1761397173219725600,1.1367255859375,6.184848308563232,5.370092391967773,-0.2997010350227356
1761397173239089000,1.1560888671875,5.2839508056640625,5.18105936050415,-0.2967100143432617
1761397173258479400,1.175479248046875,4.961517810821533,5.30548620223999,-0.3086741268634796
1761397173277856000,1.19485595703125,5.861817359924316,4.980062007904053,-0.22492532432079315
1761397173297233000,1.21423291015625,7.234699249267578,4.502095699310303,-0.6095715761184692
1761397173316609500,1.233609619140625,6.049055576324463,4.155136585235596,-0.7938188910484314
1761397173335986400,1.252986328125,4.966901779174805,4.880760192871094,-1.8137595653533936
1761397173355363300,1.27236328125,5.937191009521484,5.181657314300537,-2.2199411392211914
1761397173374740000,1.291739990234375,7.684549808502197,4.9986066818237305,-1.2275179624557495
1761397173394116900,1.311116943359375,7.931010723114014,5.667400360107422,-1.0163514614105225
1761397173413480200,1.330480224609375,11.151151657104492,5.31984281539917,-1.7407784461975098
1761397173432870400,1.349870361328125,11.577672004699707,4.054637908935547,-2.8073792457580566
1761397173452247300,1.369247314453125,12.342777252197266,-0.039481572806835175,1.423729419708252
1761397173471610600,1.388610595703125,21.24228286743164,6.531209468841553,0.381655216217041
1761397173491000800,1.408000732421875,21.337995529174805,5.172086238861084,-0.8877372145652771
1761397173510377700,1.427377685546875,23.31386947631836,5.149952411651611,1.1395817995071411
1761397173529740800,1.44674072265625,23.03390884399414,4.844867706298828,5.617151260375977
1761397173549131300,1.46613134765625,17.02912139892578,5.373681545257568,6.2913289070129395
1761397173568508000,1.4855078125,12.814163208007812,4.480560302734375,4.654638290405273
1761397173587871200,1.504871337890625,7.4602227210998535,3.6263227462768555,3.379862070083618
1761397173607261400,1.524261474609375,1.8047864437103271,3.2368907928466797,2.6213371753692627
1761397173626638300,1.543638427734375,-0.39062830805778503,2.696112871170044,1.662413477897644
1761397173646001700,1.563001708984375,-0.8590233325958252,1.8681962490081787,-0.7010970115661621
1761397173665391900,1.582391845703125,-1.5385849475860596,-0.038285162299871445,-0.4588237404823303
1761397173684768800,1.601768798828125,-1.6815561056137085,-0.7046862840652466,-0.06281159073114395
1761397173704132000,1.621132080078125,-2.803191661834717,-0.5676971673965454,-0.0891326442360878
1761397173723522300,1.640522216796875,-4.849653244018555,-0.6358926296234131,0.016749758273363113
1761397173742899200,1.659899169921875,-5.9814581871032715,-0.6687939167022705,-0.19740787148475647
1761397173762275800,1.67927587890625,-4.685146808624268,0.04007977992296219,-0.35473597049713135
1761397173781652700,1.69865283203125,-1.8861424922943115,1.5056836605072021,-0.7974081635475159
1761397173801029600,1.718029541015625,2.89890456199646,3.1860432624816895,-0.7567301392555237
1761397173820392700,1.737392822265625,18.83809471130371,5.834897994995117,-1.8346967697143555
1761397173839783200,1.756783203125,27.032913208007812,5.91924524307251,3.2237303256988525
1761397173859159800,1.776159912109375,26.124238967895508,5.4514479637146,5.947360515594482
1761397173878523100,1.795523193359375,25.414169311523438,4.71445894241333,6.313462734222412
1761397173897913600,1.81491357421875,31.552955627441406,3.0556344985961914,7.981259822845459
1761397173917290200,1.834290283203125,29.586055755615234,3.4307093620300293,7.026523590087891
1761397173936653600,1.853653564453125,18.046070098876953,5.074578762054443,3.6526436805725098
1761397173956043800,1.873043701171875,8.519644737243652,6.63769006729126,2.163709878921509
1761397173975420700,1.892420654296875,3.1926236152648926,6.999604225158691,2.4508485794067383
1761397173994784000,1.911783935546875,0.04307080805301666,6.254240036010742,1.8837496042251587
1761397174014174200,1.93117431640625,-1.0378868579864502,4.61276388168335,0.8231309652328491
1761397174033551000,1.950551025390625,0.11425728350877762,2.93001127243042,1.5188441276550293
1761397174052914400,1.96991455078125,0.7501499056816101,2.073380708694458,1.9465612173080444
1761397174072304600,1.9893046875,0.39900317788124084,1.7982062101364136,1.181456208229065
1761397174091681500,2.008681640625,-1.5415760278701782,1.6713865995407104,0.2111666053533554
1761397174111044900,2.028044921875,-3.184248685836792,1.6205391883850098,-1.277169108390808
1761397174130435000,2.04743505859375,-3.7112679481506348,1.5840486288070679,-1.550549030303955
1761397174149811700,2.066811767578125,-2.3294129371643066,1.8191434144973755,-0.3978067636489868
1761397174169175000,2.086175048828125,2.9766714572906494,4.447659015655518,-1.3244273662567139
1761397174188565500,2.1055654296875,15.712470054626465,8.742177963256836,-4.743771076202393
1761397174207942100,2.124942138671875,26.78286361694336,7.916653633117676,-1.3351950645446777
1761397174227305500,2.144305419921875,35.55195999145508,4.8777689933776855,6.417550563812256
1761397174246695700,2.16369580078125,42.09214401245117,1.4644074440002441,14.807384490966797
1761397174266072600,2.183072509765625,34.94059371948242,2.0063817501068115,15.572489738464355
1761397174285436000,2.202435791015625,20.848066329956055,3.8297126293182373,11.214561462402344
1761397174304826000,2.221826171875,10.113862991333008,4.744369029998779,6.806982040405273
1761397174324203000,2.241203125,2.8522446155548096,4.593621253967285,3.4468610286712646
1761397174343566300,2.26056640625,-0.3397808074951172,4.119842529296875,1.5960127115249634
1761397174362956500,2.27995654296875,-1.9070796966552734,2.490330219268799,2.2606191635131836
1761397174382333400,2.29933349609375,-2.3431715965270996,1.0977073907852173,2.3096721172332764
1761397174401696800,2.31869677734375,-3.015554666519165,0.13040883839130402,2.1643080711364746
1761397174421087000,2.3380869140625,-3.8189449310302734,-0.2805584669113159,1.1874382495880127
1761397174440464000,2.3574638671875,-4.669593334197998,-0.3439682424068451,0.5892325639724731
1761397174459827000,2.376826904296875,-5.373083114624023,-0.11485548317432404,0.09272187948226929
1761397174479217400,2.396217529296875,-5.989234924316406,0.4737788736820221,-1.1359925270080566
1761397174498594000,2.415593994140625,-4.325026988983154,1.7114664316177368,-2.083550214767456
1761397174517957400,2.434957275390625,-0.2273181527853012,4.807778835296631,-2.0961127281188965
1761397174537347600,2.45434765625,9.019744873046875,8.321041107177734,-1.3405789136886597
1761397174556724500,2.473724365234375,21.105892181396484,9.315258979797363,-1.1234302520751953
1761397174576087800,2.493087890625,29.97429084777832,8.769096374511719,-0.42293140292167664
1761397174595478000,2.51247802734375,32.5011100769043,7.5427751541137695,2.9653055667877197
1761397174614855000,2.53185498046875,30.046674728393555,7.572685241699219,5.877968788146973
1761397174634218200,2.55121826171875,23.538196563720703,7.77607536315918,5.277968406677246
1761397174653608400,2.5706083984375,14.78824234008789,7.183253765106201,2.1613171100616455
1761397174672985300,2.5899853515625,8.417351722717285,5.782256126403809,1.4871392250061035
1761397174692348700,2.6093486328125,2.9826533794403076,4.299902439117432,1.3094722032546997
1761397174711739000,2.62873876953125,0.7824530005455017,2.973680257797241,2.6805596351623535
1761397174731115800,2.64811572265625,-0.8159525394439697,2.1990039348602295,3.6335012912750244
1761397174750478800,2.667478759765625,-2.9730820655822754,1.358525037765503,3.9571304321289062
1761397174769869300,2.686869384765625,-4.3686957359313965,0.6538388133049011,3.8500516414642334
1761397174789246000,2.706245849609375,-4.654638290405273,0.49351966381073,2.902493953704834
1761397174808622800,2.725622802734375,-4.353142738342285,0.46420758962631226,2.0446670055389404
1761397174827999700,2.744999755859375,-4.435695171356201,0.631106972694397,0.9667003750801086
1761397174847376400,2.76437646484375,-3.6197423934936523,1.1341979503631592,-0.08195417374372482
1761397174866739700,2.78373974609375,-0.13998012244701385,3.263211965560913,-1.5326029062271118
1761397174886130000,2.8031298828125,6.801000118255615,6.628716945648193,-1.8652052879333496
1761397174905506800,2.8225068359375,18.661026000976562,10.033703804016113,-2.600399971008301
1761397174924870100,2.8418701171875,25.91008186340332,12.991231918334961,-2.795415163040161
1761397174944260400,2.86126025390625,26.157739639282227,12.457035064697266,0.36670008301734924
1761397174963637200,2.88063720703125,27.61317253112793,9.990633010864258,3.762713670730591
1761397174983000600,2.90000048828125,26.798418045043945,8.082955360412598,3.9762730598449707
1761397175002390800,2.919390869140625,20.339590072631836,7.439883708953857,2.3916261196136475
1761397175021767700,2.938767578125,12.523435592651367,6.279364585876465,1.1868400573730469
1761397175041131000,2.958131103515625,7.479365348815918,4.776073932647705,0.8512466549873352
1761397175060521200,2.977521240234375,4.122235298156738,3.3888349533081055,1.2370892763137817
1761397175079897900,2.99689794921875,2.028515338897705,2.3228325843811035,2.303689956665039
1761397175099261200,3.01626123046875,0.42352959513664246,1.6821542978286743,3.854238986968994
1761397175118651600,3.035651611328125,-1.0253244638442993,1.1072787046432495,5.000999450683594
1761397175138028300,3.0550283203125,-1.6576279401779175,0.8063812255859375,3.8626139163970947
1761397175157391600,3.0743916015625,-1.4231312274932861,0.7902296781539917,2.035693883895874
1761397175176781800,3.09378173828125,-0.8877372145652771,0.9439685344696045,0.9678967595100403
1761397175196158700,3.11315869140625,-0.24586252868175507,1.069591760635376,0.27696922421455383
1761397175215522000,3.13252197265625,1.103689432144165,1.5487544536590576,1.2406785488128662
1761397175234912300,3.151912353515625,4.124628067016602,2.472982168197632,1.7928223609924316
1761397175254289200,3.1712890625,9.629914283752441,3.802793502807617,1.8945173025131226
1761397175273652500,3.190652587890625,15.931412696838379,5.405386447906494,2.1481566429138184
1761397175293042700,3.210042724609375,20.3150634765625,8.379066467285156,0.5240281820297241
1761397175312419600,3.229419677734375,22.13480567932129,11.351551055908203,-0.6281159520149231
1761397175331783000,3.248782958984375,21.22792625427246,13.25563907623291,1.0432707071304321
1761397175351173000,3.268173095703125,21.47438621520996,11.047063827514648,5.391029357910156
1761397175370550000,3.287550048828125,23.662622451782227,7.719245910644531,6.499504566192627
1761397175389913000,3.3069130859375,22.200010299682617,5.532206058502197,4.180859565734863
1761397175409303600,3.326303466796875,16.05284881591797,5.319244861602783,2.2510478496551514
1761397175428680200,3.34568017578125,9.612566947937012,4.46560525894165,1.9692929983139038
1761397175448043500,3.36504345703125,5.3007001876831055,3.6544384956359863,1.2628121376037598
1761397175467433700,3.384433837890625,2.449054002761841,3.0388846397399902,1.0325030088424683
1761397175486810600,3.403810546875,-0.33499518036842346,1.7240287065505981,1.8346967697143555
1761397175506174000,3.423174072265625,-2.746960401535034,0.8141579031944275,1.2203395366668701
1761397175525564200,3.442564208984375,-4.0528435707092285,-0.6101697683334351,2.272583246231079
1761397175544941000,3.461941162109375,-5.650650501251221,-0.8536394834518433,2.245664119720459
1761397175564304400,3.481304443359375,-6.716054916381836,-0.760917603969574,1.1324033737182617
1761397175583694600,3.500694580078125,-7.237092018127441,-0.0891326442360878,-0.40797626972198486
1761397175603071500,3.520071533203125,-6.616154670715332,0.9092726111412048,-1.6917256116867065
1761397175622434800,3.539434814453125,-3.634697675704956,2.0985054969787598,-3.3792638778686523
1761397175641825000,3.558824951171875,0.981655478477478,4.941178798675537,-3.497110366821289
1761397175661202000,3.578201904296875,7.946564197540283,10.591829299926758,-2.9665019512176514
1761397175680565000,3.59756494140625,16.984853744506836,12.997812271118164,-0.2356930375099182
1761397175699955500,3.61695556640625,28.101308822631836,12.44267749786377,3.954139471054077
1761397175719332000,3.63633203125,34.44767379760742,10.136594772338867,8.733802795410156
1761397175738695400,3.6556953125,31.29094123840332,9.299705505371094,5.8133625984191895
1761397175758086000,3.6750859375,24.171695709228516,9.907482147216797,2.833700180053711
1761397175777462500,3.694462646484375,17.202001571655273,9.562317848205566,2.812762975692749
1761397175796825900,3.713825927734375,10.901102066040039,7.99800968170166,2.8049862384796143
1761397175816216300,3.73321630859375,4.948955535888672,6.360720634460449,1.506281852722168
1761397175835593000,3.752593017578125,1.134796142578125,4.670191764831543,0.8608179688453674
1761397175854956300,3.771956298828125,-1.0247262716293335,3.0203404426574707,1.333998680114746
1761397175874346500,3.791346435546875,-2.313859462738037,1.4757733345031738,1.6971094608306885
1761397175893723400,3.810723388671875,-2.854637384414673,0.31824541091918945,0.9182456731796265
1761397175913086700,3.830086669921875,-2.3742783069610596,-0.27756741642951965,-0.5886343717575073
1761397175932477000,3.849476806640625,-1.7012969255447388,-0.5054838061332703,-1.5379867553710938
1761397175951853800,3.868853759765625,-1.3232308626174927,-0.5886343717575073,-1.34476637840271
1761397175971230500,3.88823046875,-0.7974081635475159,0.11306086927652359,-1.7802600860595703
1761397175990607400,3.907607421875,0.4695914387702942,1.5469598770141602,-2.4269204139709473
1761397176009984000,3.92698388671875,3.0759735107421875,3.1621150970458984,-1.3728820085525513
1761397176029347300,3.946347412109375,6.38584566116333,6.062216281890869,0.064606212079525
1761397176048737800,3.96573779296875,10.459028244018555,9.842875480651855,-2.4095723628997803
1761397176068114400,3.985114501953125,15.598811149597168,13.805988311767578,-4.3758745193481445
1761397176087477800,4.004477783203125,20.70330047607422,14.36291790008545,1.2370892763137817
1761397176106868200,4.0238681640625,25.468008041381836,13.803595542907715,3.665804386138916
1761397176126244900,4.043244873046875,27.010181427001953,13.563117027282715,0.7334001660346985
1761397176145608200,4.062608154296875,25.293930053710938,12.809975624084473,0.6879364848136902
1761397176164998400,4.081998291015625,20.417356491088867,10.313663482666016,4.48115873336792
1761397176184375300,4.101375244140625,13.167702674865723,7.932207107543945,6.153741836547852
1761397176203738600,4.120738525390625,4.168895244598389,6.371488571166992,4.730610370635986
1761397176223128800,4.14012890625,-2.7020950317382812,5.355136871337891,3.2303106784820557
1761397176242505700,4.159505615234375,-5.029713153839111,2.8893332481384277,2.9934210777282715
1761397176261869000,4.178869140625,-3.830909013748169,0.6532405614852905,1.7198412418365479
1761397176281259300,4.19825927734375,-0.48035913705825806,-0.9385846853256226,-0.6173482537269592
1761397176300636200,4.21763623046875,3.665804386138916,-1.740180253982544,-2.201396942138672
1761397176319999500,4.23699951171875,5.771488189697266,-1.7976080179214478,-2.0883359909057617
1761397176339389700,4.2563896484375,4.804787635803223,-1.2795618772506714,-0.8087740540504456
1761397176358766300,4.275766357421875,2.609373092651367,0.07836493849754333,-0.48574298620224
1761397176378129700,4.295129638671875,0.3002992272377014,1.9076778888702393,-0.2961117923259735
1761397176397520100,4.31452001953125,0.22612173855304718,3.8117663860321045,0.7549355626106262
1761397176416896800,4.333896728515625,4.17009162902832,5.923432350158691,2.142174482345581
1761397176436260000,4.353260009765625,8.742177963256836,9.312865257263184,1.6235301494598389
1761397176455650300,4.372650390625,9.90688419342041,12.566506385803223,-0.42412781715393066
1761397176475027200,4.392027099609375,11.600403785705566,14.448461532592773,-0.44027936458587646
1761397176494390500,4.411390625,14.367703437805176,16.025331497192383,0.14356936514377594
1761397176513780700,4.43078076171875,14.572888374328613,15.780067443847656,0.9427721500396729
1761397176533157600,4.45015771484375,15.06999683380127,13.941183090209961,1.5026925802230835
1761397176552521000,4.46952099609375,16.960926055908203,11.291729927062988,2.3192434310913086
1761397176571911200,4.4889111328125,14.401801109313965,8.040482521057129,4.366302967071533
1761397176591288000,4.5082880859375,7.837092399597168,5.865406513214111,4.333401679992676
1761397176610651400,4.5276513671875,1.7545372247695923,4.068994998931885,2.919243574142456
1761397176630041600,4.54704150390625,-1.740180253982544,2.1930220127105713,1.8478572368621826
1761397176649418500,4.56641845703125,-2.950350284576416,0.381655216217041,1.1940184831619263
1761397176668781600,4.585781494140625,-2.4496521949768066,-0.9266205430030823,0.5180460810661316
1761397176688172000,4.605172119140625,-1.0767701864242554,-1.3872389793395996,-0.5048855543136597
1761397176707548700,4.624548583984375,-0.014955141581594944,-1.3573286533355713,-1.088136076927185
1761397176726925600,4.643925537109375,0.2021935135126114,-0.8081758618354797,-1.5296118259429932
1761397176746302500,4.663302490234375,-0.8075776696205139,0.2877369225025177,-1.6121642589569092
1761397176765679000,4.68267919921875,-1.1808580160140991,1.4350954294204712,-1.0031908750534058
1761397176785042400,4.70204248046875,0.9840483069419861,3.0556344985961914,0.4953143000602722
1761397176804432600,4.7214326171875,4.1036906242370605,6.768697261810303,1.4075778722763062
1761397176823809500,4.7408095703125,9.435498237609863,10.999805450439453,-0.4378865361213684
1761397176843172900,4.7601728515625,18.868602752685547,13.913665771484375,-2.551347255706787
1761397176862563000,4.77956298828125,25.16292381286621,14.589637756347656,0.7214360237121582
1761397176881940000,4.79893994140625,25.053451538085938,13.48594856262207,4.625326156616211
1761397176901303300,4.81830322265625,24.976282119750977,11.392229080200195,7.4979095458984375
1761397176920693500,4.837693603515625,22.241884231567383,9.600603103637695,8.02492904663086
1761397176940070400,4.8570703125,15.353546142578125,8.301300048828125,5.108676433563232
1761397176959433500,4.87643359375,9.343972206115723,6.856633186340332,3.0418758392333984
1761397176978824000,4.895823974609375,5.685346603393555,5.645864963531494,1.8113667964935303
1761397176998200600,4.91520068359375,2.8319056034088135,4.556532382965088,1.3202399015426636
1761397177017564000,4.93456396484375,-1.0055837631225586,3.4085757732391357,1.913659930229187
1761397177036954400,4.953954345703125,-4.045066833496094,2.4562325477600098,1.6019947528839111
1761397177056331000,4.9733310546875,-4.996213912963867,1.852044701576233,0.5413761138916016
1761397177075708000,4.9927080078125,-3.996013879776001,1.41834557056427,-0.16271193325519562
1761397177095084800,5.012084716796875,-1.6348960399627686,1.1407781839370728,-0.18005990982055664
1761397177114461400,5.03146142578125,0.24885354936122894,1.4051851034164429,-0.6604190468788147
1761397177133824800,5.05082470703125,0.9535398483276367,1.8532410860061646,0.19800607860088348
1761397177153215000,5.070215087890625,1.9956140518188477,3.070589542388916,1.323829174041748
1761397177172591900,5.089591796875,8.531010627746582,6.351747512817383,0.8219345808029175
1761397177191955200,5.108955078125,17.782859802246094,9.011968612670898,3.436093330383301
1761397177211345400,5.128345458984375,20.56391716003418,11.866605758666992,4.630710124969482
1761397177230722300,5.147722412109375,20.18585205078125,11.556137084960938,7.693522930145264
1761397177250085600,5.167085693359375,25.156940460205078,7.907680511474609,9.748957633972168
1761397177269475800,5.186475830078125,30.185457229614258,4.001996040344238,8.507680892944336
1761397177288852700,5.205852783203125,28.155147552490234,2.640479803085327,6.352345943450928
1761397177308215800,5.2252158203125,19.057037353515625,3.4295129776000977,4.5816569328308105
1761397177327606300,5.244606201171875,8.772088050842285,4.37228536605835,3.5772697925567627
1761397177346983000,5.26398291015625,0.26201409101486206,4.979464054107666,2.995215654373169
1761397177366346200,5.28334619140625,-4.6372904777526855,4.595416069030762,3.566502094268799
1761397177385736700,5.30273681640625,-6.7178497314453125,3.356531858444214,4.1389851570129395
1761397177405113300,5.32211328125,-6.090929985046387,1.7258232831954956,2.9413771629333496
1761397177424476700,5.3414765625,-3.4019956588745117,0.7519445419311523,0.7722834944725037
1761397177443867100,5.3608671875,-1.2993026971817017,0.44745782017707825,-1.9830517768859863
1761397177463243800,5.380243896484375,-0.4295116662979126,0.46719861030578613,-2.96111798286438
1761397177482620700,5.39962060546875,-0.584446907043457,0.641276478767395,-2.7798616886138916
1761397177501997300,5.418997314453125,-0.631106972694397,1.0378868579864502,-2.461616277694702
1761397177521374200,5.438374267578125,1.2376874685287476,2.537588357925415,-2.6703901290893555
1761397177540737500,5.457737548828125,6.141179084777832,5.158925533294678,-3.7292141914367676
1761397177560127700,5.477127685546875,13.744373321533203,9.56889820098877,-2.898306369781494
1761397177579504600,5.496504638671875,19.864614486694336,14.635699272155762,-2.589034080505371
1761397177598868000,5.515867919921875,24.818954467773438,12.528221130371094,3.3571300506591797
1761397177618258200,5.535258056640625,33.74657440185547,6.272186279296875,9.625727653503418
1761397177637635000,5.554635009765625,35.65544891357422,2.82951283454895,6.692126750946045
1761397177656998400,5.573998291015625,28.272396087646484,3.214757204055786,3.2685956954956055
1761397177676388600,5.593388671875,15.86022663116455,4.202394962310791,2.4741785526275635
1761397177695765200,5.61276513671875,5.173880577087402,4.507479667663574,2.919243574142456
1761397177715128600,5.632128662109375,-1.677966833114624,4.232903480529785,3.2787652015686035
1761397177734519000,5.65151904296875,-4.593621253967285,3.352344512939453,3.85483717918396
1761397177753895700,5.670895751953125,-4.828117847442627,2.097309112548828,5.306084156036377
1761397177773259000,5.690259033203125,-4.186243057250977,1.333998680114746,6.516852378845215
1761397177792649200,5.709649169921875,-3.4857444763183594,0.9104689955711365,5.885745525360107
1761397177812026000,5.729026123046875,-2.7978079319000244,0.5641079545021057,3.775275945663452
1761397177831389400,5.748389404296875,-2.6602206230163574,0.6436693072319031,1.1120643615722656
1761397177850779600,5.767779541015625,-2.6500511169433594,0.97926265001297,-0.34995031356811523
1761397177870156500,5.787156494140625,-2.286342144012451,1.9208383560180664,-0.19621145725250244
1761397177889519900,5.806519775390625,0.47976094484329224,4.668995380401611,-0.6418746709823608
1761397177908910000,5.82591015625,7.847261905670166,9.09811019897461,-1.542174220085144
1761397177928287000,5.845286865234375,16.323238372802734,13.48475170135498,0.4995017349720001
1761397177947650300,5.864650390625,19.759929656982422,15.994224548339844,3.1830523014068604
1761397177967040500,5.88404052734375,25.618755340576172,16.41057586669922,4.409972190856934
1761397177986417400,5.90341748046875,27.556941986083984,15.019747734069824,3.1208388805389404
1761397178005780700,5.92278076171875,24.391836166381836,12.500703811645508,1.9974087476730347
1761397178025171000,5.9421708984375,19.199411392211914,9.739386558532715,0.8129615187644958
1761397178044547600,5.961547607421875,12.40977668762207,7.802396297454834,0.16271193325519562
1761397178063911000,5.980910888671875,5.2977094650268555,6.701697826385498,1.210170030593872
1761397178083301400,6.00030126953125,0.5796613097190857,5.523830890655518,2.015354871749878
1761397178102678000,6.019677978515625,-1.0582258701324463,4.589433670043945,2.0297117233276367
1761397178122041300,6.039041259765625,-1.2795618772506714,3.232105255126953,3.142972469329834
1761397178141431600,6.058431640625,-0.9547362327575684,1.7330018281936646,4.107280254364014
1761397178160808400,6.077808349609375,-0.7022934556007385,0.7591229677200317,3.5192439556121826
1761397178180171800,6.097171875,-0.5946164131164551,0.20877377688884735,2.1415762901306152
1761397178199562000,6.11656201171875,-0.9050851464271545,0.06041877344250679,0.7178468108177185
1761397178218939000,6.13593896484375,-2.2540390491485596,0.21176479756832123,-0.49292147159576416
1761397178238302200,6.15530224609375,-2.816950559616089,0.4612165689468384,-1.033101201057434
1761397178257692400,6.1746923828125,-1.3094722032546997,1.6588243246078491,-2.0315065383911133
1761397178277069300,6.1940693359375,1.0995019674301147,4.019941806793213,-2.691925525665283
1761397178296432600,6.2134326171875,4.941776752471924,6.946363925933838,-0.6879364848136902
1761397178315822800,6.23282275390625,14.444273948669434,10.551151275634766,3.016152858734131
1761397178335199700,6.25219970703125,21.291336059570312,13.940585136413574,1.5726827383041382
1761397178354563000,6.27156298828125,14.79123306274414,16.61695671081543,-1.2957134246826172
1761397178373953300,6.290953369140625,11.575878143310547,16.497913360595703,0.37088751792907715
1761397178393330200,6.310330078125,16.140785217285156,12.772289276123047,1.2167502641677856
1761397178412693200,6.329693359375,21.566511154174805,10.207182884216309,-1.2640085220336914
1761397178432083700,6.349083740234375,20.069202423095703,8.819944381713867,0.004187439568340778
1761397178451460400,6.36846044921875,11.940184593200684,7.77607536315918,3.198007345199585
1761397178470823700,6.38782373046875,1.9812572002410889,6.716653347015381,4.101896286010742
1761397178490214000,6.4072138671875,-4.085146427154541,5.636891841888428,3.1794631481170654
1761397178509590800,6.4265908203125,-6.38464879989624,4.075575351715088,2.7152554988861084
1761397178528954000,6.4459541015625,-5.585446357727051,2.228914260864258,2.349153518676758
1761397178548344300,6.46534423828125,-2.5357937812805176,1.210768222808838,1.3758729696273804
1761397178567721200,6.48472119140625,0.7286145091056824,1.059422254562378,0.17347964644432068
1761397178587084500,6.50408447265625,3.685544967651367,1.4871392250061035,-0.7010970115661621
1761397178606474800,6.523474853515625,4.765904426574707,2.2755744457244873,-1.4009976387023926
1761397178625851600,6.5428515625,3.64546537399292,3.765106439590454,-1.3543375730514526
1761397178645215000,6.562215087890625,3.7184464931488037,5.334199905395508,-0.2069791555404663
1761397178664605200,6.581605224609375,7.755138397216797,7.864011764526367,0.4259224236011505
1761397178683982000,6.600982177734375,11.872588157653809,11.805588722229004,0.24526432156562805
1761397178703345400,6.620345458984375,12.625728607177734,13.742578506469727,0.6275177597999573
1761397178722735600,6.639735595703125,13.50150203704834,13.937593460083008,0.5066801905632019
1761397178742112500,6.659112548828125,15.933207511901855,13.060026168823242,1.5445669889450073
1761397178761475600,6.6784755859375,17.565113067626953,10.606185913085938,1.9208383560180664
1761397178780866000,6.697865966796875,18.628124237060547,9.726823806762695,-0.3409772217273712
1761397178800242700,6.71724267578125,15.19143295288086,9.29611587524414,-0.19142581522464752
1761397178819606000,6.73660595703125,8.6033935546875,8.524430274963379,1.5290136337280273
1761397178838996500,6.75599658203125,3.4372897148132324,7.264609336853027,1.8041882514953613
1761397178858373000,6.775373046875,0.1621137410402298,5.760720729827881,1.1048858165740967
1761397178877736400,6.794736328125,-1.1425727605819702,4.118646144866943,0.5335994362831116
1761397178897126700,6.814126708984375,-0.5174478888511658,2.659024238586426,0.2386840581893921
1761397178916503600,6.833503662109375,0.9906286001205444,1.5792629718780518,-0.09571290761232376
1761397178935867000,6.852866943359375,2.736790895462036,1.0636097192764282,-0.3523431420326233
1761397178955257000,6.872257080078125,3.4534413814544678,1.0139585733413696,-0.12681959569454193
1761397178974634000,6.891634033203125,2.6255247592926025,1.5260226726531982,0.2727817893028259
1761397178993997300,6.910997314453125,1.2335001230239868,2.6769702434539795,0.9320043921470642
1761397179013387500,6.930387451171875,1.4135600328445435,4.778466701507568,1.2795618772506714
1761397179032764400,6.949764404296875,3.535395383834839,7.378268718719482,1.3088740110397339
1761397179052127700,6.969127685546875,7.277770042419434,10.469197273254395,1.7419748306274414
1761397179071518000,6.98851806640625,11.255837440490723,13.197014808654785,0.1579262912273407
1761397179090894800,7.007894775390625,12.996018409729004,14.746367454528809,-2.967100143432617
1761397179110258000,7.0272578125,11.915060043334961,15.837494850158691,-2.513660192489624
1761397179129648400,7.0466484375,10.166504859924316,14.601003646850586,-1.669592022895813
1761397179149025000,7.06602490234375,12.67717456817627,11.393424987792969,-0.1495514214038849
1761397179168388400,7.085388427734375,16.16411590576172,8.372486114501953,0.6281159520149231
1761397179187778800,7.10477880859375,15.217155456542969,5.745765209197998,1.7599210739135742
1761397179207155500,7.124155517578125,10.176674842834473,4.455435752868652,2.1655044555664062
1761397179226518800,7.143518798828125,4.614558696746826,4.118646144866943,0.9613165259361267
1761397179245909000,7.162908935546875,0.1621137410402298,4.012165546417236,-0.12502498924732208
1761397179265286000,7.182285888671875,-2.1128623485565186,3.3786656856536865,0.3206382393836975
1761397179284649200,7.201649169921875,-1.3597214221954346,2.4843480587005615,0.8195417523384094
1761397179304039400,7.221039306640625,0.5730810165405273,1.9250258207321167,0.7770691514015198
1761397179323416300,7.240416259765625,2.599801778793335,1.6869399547576904,0.6849454641342163
1761397179342779600,7.259779541015625,3.8572301864624023,1.9627127647399902,0.5210371017456055
1761397179362169900,7.279169921875,4.716253280639648,2.9252257347106934,0.36610186100006104
1761397179381546800,7.298546630859375,4.567300319671631,4.098905086517334,1.1874382495880127
1761397179400910000,7.31791015625,4.7952165603637695,5.648856163024902,1.7377874851226807
1761397179420300300,7.33730029296875,8.172087669372559,8.352147102355957,0.017946170642971992
1761397179439677200,7.35667724609375,11.023136138916016,12.320643424987793,-3.345165967941284
1761397179459040300,7.376040283203125,8.964112281799316,14.308481216430664,-3.059821844100952
1761397179478430700,7.3954306640625,6.4695940017700195,14.948561668395996,0.9128618240356445
1761397179497807400,7.414807373046875,9.977472305297852,12.426526069641113,5.151148796081543
1761397179517170700,7.434170654296875,16.85683822631836,8.671588897705078,5.2971110343933105
1761397179536561200,7.45356103515625,21.36551284790039,7.511668682098389,1.9172492027282715
1761397179555937800,7.472937744140625,20.371295928955078,8.57468032836914,0.6711867451667786
1761397179575301000,7.492301025390625,14.073984146118164,6.657430648803711,1.7330018281936646
1761397179594691600,7.511691650390625,6.7794647216796875,5.415555953979492,0.6011967062950134
1761397179614068200,7.531068115234375,1.8759729862213135,4.549952030181885,-0.389431893825531
1761397179633431600,7.550431640625,-1.4967105388641357,3.5300116539001465,-0.5862415432929993
1761397179652821800,7.56982177734375,-1.1904292106628418,2.221137523651123,-0.26620152592658997
1761397179672198700,7.58919873046875,0.7435696125030518,0.877567708492279,0.12323036789894104
1761397179691562000,7.60856201171875,2.5633113384246826,0.07896314561367035,-0.17766708135604858
1761397179710952200,7.6279521484375,3.500101327896118,0.2847459018230438,-0.7447660565376282
1761397179730329000,7.6473291015625,2.32761812210083,1.4159528017044067,-1.4033905267715454
1761397179749692400,7.6666923828125,1.0462616682052612,3.0586254596710205,-2.077568292617798
1761397179769082600,7.68608251953125,2.1547367572784424,5.808577060699463,-3.187838077545166
1761397179788459500,7.70545947265625,6.369693756103516,9.602995872497559,-3.4199416637420654
1761397179807822600,7.724822509765625,10.97587776184082,12.746565818786621,-4.741976261138916
1761397179827213000,7.744213134765625,12.076576232910156,12.997214317321777,-3.9116668701171875
1761397179846589700,7.763589599609375,13.60200023651123,13.83649730682373,-1.3052847385406494
1761397179865953000,7.782953125,19.6474666595459,12.226725578308105,1.7282161712646484
1761397179885343500,7.802343505859375,23.212173461914062,10.186843872070312,1.225723385810852
1761397179904720100,7.82172021484375,20.319252014160156,9.29731273651123,0.19262222945690155
1761397179924083500,7.84108349609375,12.962518692016602,7.250850677490234,1.9782661199569702
1761397179943474000,7.860473876953125,6.269793510437012,6.448657035827637,0.9930213689804077
1761397179962850600,7.8798505859375,1.6456637382507324,5.867201328277588,-0.16151553392410278
1761397179982214000,7.8992138671875,0.07357929646968842,5.0602216720581055,0.08315058797597885
1761397180001604000,7.91860400390625,0.4612165689468384,3.8841493129730225,0.8877372145652771
1761397180020981000,7.93798095703125,0.9254241585731506,2.263011932373047,2.1032910346984863
1761397180040344300,7.95734423828125,1.8699909448623657,1.3286148309707642,2.2851455211639404
1761397180059734500,7.976734619140625,2.3132612705230713,1.1736794710159302,1.9232312440872192
1761397180079111400,7.996111328125,1.2149556875228882,1.1228320598602295,2.222334146499634
1761397180098474800,8.015474853515625,0.025722842663526535,2.084746837615967,0.6622136831283569
1761397180117865000,8.034864990234375,-0.40737804770469666,3.3511481285095215,-0.973878800868988
1761397180137241900,8.054241943359376,0.24825534224510193,5.3694939613342285,-2.462214469909668
1761397180156605000,8.07360498046875,3.064607620239258,8.818747520446777,-3.2590243816375732
1761397180175995400,8.092995361328125,7.066603660583496,12.987045288085938,-3.5168511867523193
1761397180195372000,8.1123720703125,8.292924880981445,15.488740921020508,-2.9042885303497314
1761397180214735400,8.1317353515625,6.4187469482421875,15.285350799560547,-1.0606186389923096
1761397180234125800,8.151125732421875,10.572687149047852,13.148560523986816,0.7692924737930298
1761397180253502500,8.17050244140625,19.065412521362305,10.29332447052002,0.5174478888511658
1761397180272865800,8.18986572265625,22.11207389831543,10.375279426574707,-2.2887349128723145
1761397180292256300,8.20925634765625,17.23191261291504,10.329216957092285,-2.7044878005981445
1761397180311633000,8.2286328125,10.536794662475586,9.151350021362305,-1.80717933177948
1761397180330996200,8.247996337890624,4.5684967041015625,7.93579626083374,-1.5906288623809814
1761397180350386400,8.267386474609374,1.252044439315796,6.5527448654174805,-1.2735798358917236
1761397180369763300,8.286763427734375,1.2233306169509888,5.2390851974487305,0.031106693670153618
1761397180389126700,8.306126708984374,1.74496591091156,3.7842490673065186,2.204387903213501
1761397180408516900,8.325516845703126,2.781656265258789,2.307877540588379,2.833101987838745
1761397180427893800,8.344893798828124,4.085744857788086,1.2747762203216553,1.8460626602172852
1761397180447257000,8.364257080078126,3.8937206268310547,0.8859425783157349,1.0013962984085083
1761397180466647300,8.383647216796875,2.936591625213623,0.8380861282348633,0.9678967595100403
1761397180486024200,8.403024169921874,2.8797619342803955,1.2801600694656372,1.277169108390808
1761397180505400800,8.42240087890625,3.1483564376831055,1.9770697355270386,0.7950153350830078
1761397180524777700,8.44177783203125,3.2626137733459473,3.118446111679077,0.050847481936216354
1761397180544154400,8.461154296875,4.099503517150879,4.987240791320801,0.8781659007072449
1761397180563517700,8.480517578125,5.224728107452393,8.191828727722168,1.9986051321029663
1761397180582908200,8.499908203125,6.2327046394348145,11.84566879272461,2.4580271244049072
1761397180602284800,8.519284912109375,7.707281589508057,14.00220012664795,2.282752752304077
1761397180621648100,8.538648193359375,9.5802640914917,13.801800727844238,0.4001995921134949
1761397180641038600,8.55803857421875,13.210175514221191,12.912269592285156,-1.9800606966018677
1761397180660415200,8.577415283203125,19.929222106933594,10.784451484680176,-3.2129626274108887
1761397180679778600,8.596778564453125,26.489742279052734,10.202397346496582,-3.4229328632354736
1761397180699168800,8.616168701171874,22.713869094848633,8.783453941345215,0.4145565330982208
1761397180718545700,8.635545654296875,11.353344917297363,7.389036178588867,4.039682865142822
1761397180737909000,8.654908935546874,2.070389747619629,7.0546393394470215,4.281956195831299
1761397180757299200,8.67429931640625,-3.0035905838012695,6.544968128204346,3.634697675704956
1761397180776676000,8.693676025390625,-4.900500774383545,5.329414367675781,3.3708889484405518
1761397180796039400,8.713039306640624,-3.779463291168213,3.862015724182129,2.05603289604187
1761397180815429600,8.7324296875,-0.4713860750198364,2.4460630416870117,0.755533754825592
1761397180834806500,8.751806640625,2.1409780979156494,1.0235298871994019,-0.07357929646968842
1761397180854169900,8.771169921875,3.4498519897460938,0.656829833984375,-1.4261223077774048
1761397180873560000,8.79056005859375,3.48993182182312,1.7778671979904175,-2.0548365116119385
1761397180892936700,8.809936767578124,3.102294445037842,2.393420934677124,-1.0516455173492432
1761397180912313600,8.829313720703125,3.250051259994507,3.059821844100952,-0.46002015471458435
1761397180931690500,8.8486904296875,4.155136585235596,5.37906551361084,-0.9643075466156006
1761397180951067100,8.868067138671876,5.830112457275391,9.134002685546875,-1.5002998113632202
1761397180970430500,8.887430419921875,8.987442016601562,12.823136329650879,-1.835893154144287
1761397180989821000,8.906821044921875,13.847264289855957,13.774881362915039,-0.39960137009620667
1761397181009197600,8.926197509765625,15.28176212310791,12.367303848266602,1.5810575485229492
1761397181028561000,8.945560791015625,16.688142776489258,11.364112854003906,1.7012969255447388
1761397181047951000,8.964951171875,17.30668830871582,11.820544242858887,-0.1908276081085205
1761397181067328000,8.984327880859375,13.928022384643555,12.079566955566406,-0.4085744619369507
1761397181086691300,9.00369140625,9.497711181640625,11.079965591430664,1.3004990816116333
1761397181106081500,9.02308154296875,5.084748268127441,8.388039588928223,3.43190598487854
1761397181125458400,9.04245849609375,1.552343726158142,5.209773063659668,2.407777786254883
1761397181144821800,9.06182177734375,1.6701902151107788,2.733799934387207,-0.4953143000602722
1761397181164212000,9.0812119140625,3.102294445037842,1.4865410327911377,-1.9543378353118896
1761397181183588900,9.1005888671875,4.335794448852539,0.9499505758285522,-0.7585247755050659
1761397181202965500,9.119965576171875,4.527220249176025,1.0707881450653076,0.38644084334373474
1761397181222342400,9.13934228515625,2.7774689197540283,1.5002998113632202,0.4043870270252228
1761397181241719000,9.158718994140624,0.28654050827026367,2.2229323387145996,0.2877369225025177
1761397181261096000,9.178095947265625,-0.35114672780036926,2.5351955890655518,0.9643075466156006
1761397181280472800,9.197472900390625,2.1535403728485107,2.650649309158325,1.3411771059036255
1761397181299849500,9.216849365234374,4.72163724899292,3.7525441646575928,1.908276081085205
1761397181319212800,9.236212890625,5.79780912399292,5.153541564941406,1.6719847917556763
1761397181338603300,9.255603271484375,7.542177200317383,7.9244303703308105,-1.2460623979568481
1761397181357980000,9.27497998046875,10.334002494812012,12.728620529174805,-2.4646072387695312
1761397181377343200,9.29434326171875,12.047264099121094,15.941582679748535,0.6628118753433228
1761397181396733400,9.3137333984375,11.12483024597168,15.753746032714844,3.0317063331604004
1761397181416110300,9.3331103515625,15.793227195739746,11.759527206420898,3.5880374908447266
1761397181454864000,9.37186376953125,30.116065979003906,6.226722717285156,3.4271202087402344
1761397181474240800,9.39124072265625,24.419952392578125,5.673980712890625,6.652047157287598
1761397181493604000,9.41060400390625,12.009576797485352,5.206183910369873,5.826523303985596
1761397181512994300,9.429994384765624,2.7834508419036865,5.734997749328613,3.8937206268310547
1761397181532371200,9.44937109375,-2.3976082801818848,4.383651256561279,3.2440693378448486
1761397181551734500,9.468734619140625,-5.237888813018799,1.9674984216690063,2.2337000370025635
1761397181571124700,9.488124755859374,-5.015954494476318,0.1136590763926506,0.503689169883728
1761397181590501600,9.507501708984375,-3.149552822113037,0.4977070987224579,-1.9645073413848877
1761397181609865000,9.526864990234374,-1.7431713342666626,1.1665010452270508,-3.452843189239502
1761397181629255200,9.546255126953126,-1.9280169010162354,1.633101463317871,-3.362514019012451
1761397181648631800,9.5656318359375,-2.4987051486968994,2.0787646770477295,-1.5864413976669312
1761397181667995100,9.5849951171875,-2.434098720550537,3.0035905838012695,0.1740778535604477
1761397181687385600,9.604385498046875,-0.4336991012096405,5.925227165222168,0.17168502509593964
1761397181706762200,9.62376220703125,6.137589931488037,10.603793144226074,0.6364908218383789
1761397181726125600,9.64312548828125,15.023935317993164,13.95673656463623,-1.9519450664520264
1761397181745515800,9.662515869140625,19.915462493896484,13.48893928527832,-5.007579803466797
1761397181764892700,9.681892578125,18.876977920532227,11.466405868530273,-0.07178468257188797
1761397181784256000,9.701256103515625,22.047468185424805,7.883154392242432,2.9629125595092773
1761397181803646200,9.720646240234375,24.83989143371582,6.836892604827881,0.7513462901115417
1761397181823023000,9.740023193359375,21.34218406677246,5.669195175170898,0.21595224738121033
1761397181842386400,9.759386474609375,11.609376907348633,4.694119930267334,0.3684946894645691
1761397181861776600,9.778776611328125,1.9692929983139038,5.171487808227539,-1.347757339477539
1761397181881153500,9.798153564453125,-3.283550977706909,5.343770980834961,-1.714457392692566
1761397181900516900,9.817516845703125,-4.934598445892334,4.232903480529785,-0.6915257573127747
1761397181919907000,9.836906982421874,-4.770092010498047,2.4263222217559814,-0.05922235921025276
1761397181939284000,9.856283935546875,-1.9663020372390747,1.5840486288070679,0.010767702013254166
1761397181958647000,9.87564697265625,2.079961061477661,1.592423439025879,-0.6340979933738708
1761397181978037500,9.89503759765625,4.467998027801514,1.755733609199524,-1.1856436729431152
1761397181997414100,9.9144140625,5.017749309539795,2.3228325843811035,-1.1228320598602295
1761397182016777500,9.933777587890624,4.148556232452393,3.4019956588745117,-0.3810569941997528
1761397182036168000,9.95316796875,3.954737663269043,5.915655612945557,-0.1746760457754135
1761397182055544600,9.972544677734374,5.399404525756836,9.251250267028809,-0.373878538608551
1761397182074908000,9.991907958984376,10.13479995727539,13.37587833404541,-2.448455810546875
1761397182094298000,10.011298095703125,15.994224548339844,14.10568904876709,-4.4482574462890625
1761397182113675000,10.030675048828124,19.60439682006836,13.284353256225586,-0.6873382925987244
1761397182133038300,10.050038330078126,17.382061004638672,11.248061180114746,3.6909289360046387
1761397182152428500,10.069428466796875,14.674583435058594,9.000003814697266,3.136990547180176
1761397182171805400,10.088805419921876,15.531811714172363,6.178267955780029,2.4388844966888428
1761397182191168800,10.108168701171875,15.071791648864746,4.2484564781188965,2.0213370323181152
1761397182210559000,10.12755908203125,11.440683364868164,3.586841106414795,2.276770830154419
1761397182229935900,10.146935791015625,7.670193195343018,3.3954153060913086,2.7140591144561768
1761397182249299200,10.16629931640625,4.429114818572998,3.4127633571624756,1.2843475341796875
1761397182268689400,10.185689453125,1.3304094076156616,3.263211965560913,0.21774685382843018
1761397182288066300,10.20506640625,0.12681959569454193,2.9928228855133057,0.2315055876970291
1761397182307429400,10.224429443359375,0.3487538993358612,2.8283164501190186,1.1180464029312134
1761397182326819800,10.24381982421875,0.6556333899497986,2.4149563312530518,1.5296118259429932
1761397182346196500,10.263196533203125,1.454237937927246,2.521436929702759,1.469791293144226
1761397182365573400,10.282573486328126,2.3048863410949707,3.046063184738159,1.4033905267715454
1761397182384950300,10.3019501953125,3.442075490951538,4.90827751159668,0.12681959569454193
1761397182404327000,10.321326904296875,5.650052547454834,7.399205684661865,-2.1822543144226074
1761397182423690200,10.340690185546874,11.506485939025879,10.479965209960938,-3.9690945148468018
1761397182443080400,10.36008056640625,12.494721412658691,12.142976760864258,-2.331207513809204
1761397182462457300,10.379457275390624,10.135398864746094,14.662020683288574,-0.4289134442806244
1761397182481820700,10.398820556640626,12.56291675567627,11.990434646606445,2.53399920463562
1761397182501211000,10.4182109375,15.483357429504395,8.858229637145996,-0.3846462368965149
1761397182520587800,10.437587890625,14.096715927124023,7.195217609405518,-3.418147087097168
1761397182539951000,10.456951171875,12.700504302978516,6.212365627288818,-3.195016384124756
1761397182559341300,10.47634130859375,12.345767974853516,4.301098823547363,-0.7280163168907166
1761397182578718200,10.49571826171875,11.384451866149902,3.046063184738159,-1.256830096244812
1761397182598081300,10.515081298828125,7.116852760314941,2.6602206230163574,-2.225325107574463
1761397182617471700,10.5344716796875,2.83669114112854,2.2707886695861816,-0.6251249313354492
1761397182636848400,10.553848388671875,1.7778671979904175,1.6175481081008911,1.4207384586334229
1761397182656225300,10.573225341796874,2.455634355545044,1.1922239065170288,1.8855443000793457
1761397182675602200,10.592602294921875,3.373281717300415,1.2957134246826172,0.9194421172142029
1761397182694978800,10.611978759765625,3.2889347076416016,1.9866410493850708,-0.4486542344093323
1761397182714355700,10.631355712890626,3.1004998683929443,2.815753936767578,-0.48035913705825806
1761397182733732600,10.650732666015625,4.908875465393066,3.9361932277679443,-0.9978070259094238
1761397182753109200,10.670109130859375,8.660223007202148,6.241079807281494,-0.7507480978965759
1761397182772472600,10.68947265625,11.45803165435791,7.525427341461182,2.445464849472046
1761397182791862800,10.70886279296875,12.933206558227539,8.321639060974121,2.028515338897705
1761397182811239700,10.72823974609375,13.702498435974121,10.158130645751953,-2.225325107574463
1761397182830603000,10.74760302734375,11.864810943603516,11.052447319030762,-4.870590686798096
1761397182849993200,10.7669931640625,9.759725570678711,10.564311981201172,-4.402195453643799
1761397182869370000,10.7863701171875,12.54437255859375,9.452845573425293,-2.0811574459075928
1761397182888733400,10.8057333984375,15.485151290893555,6.394818305969238,4.287938117980957
1761397182908123600,10.82512353515625,12.381062507629395,5.265406131744385,5.771488189697266
1761397182927500300,10.844500244140624,6.775277137756348,5.170889854431152,2.4197418689727783
1761397182946863600,10.863863525390625,3.487539052963257,5.035097122192383,-0.771087110042572
1761397182966254000,10.883254150390625,0.8315058946609497,4.4273200035095215,-2.2259232997894287
1761397182985630700,10.902630615234376,-0.43908295035362244,2.8791637420654297,-2.3748764991760254
1761397183005007600,10.922007568359374,1.0492527484893799,2.311466693878174,-2.3676979541778564
1761397183024384300,10.94138427734375,3.940380573272705,2.5842485427856445,-2.324028968811035
1761397183043761200,10.96076123046875,7.022336483001709,2.516651153564453,-2.5016961097717285
1761397183063124500,10.98012451171875,8.129016876220703,3.0693931579589844,-2.7493531703948975
1761397183082514700,10.9995146484375,5.829514026641846,4.851448059082031,-1.9812572002410889
1761397183101891600,11.0188916015625,3.6335012912750244,7.863413333892822,-0.38644084334373474
1761397183121255000,11.0382548828125,6.460621356964111,10.931610107421875,-0.8123632669448853
1761397183140645000,11.05764501953125,12.382259368896484,11.751152038574219,-1.8376877307891846
1761397183160022000,11.07702197265625,12.940982818603516,11.72423267364502,-3.81655216217041
1761397183179385300,11.09638525390625,8.642875671386719,11.860623359680176,-5.127819061279297
1761397183198775600,11.115775634765624,7.420741081237793,9.576674461364746,-2.5112674236297607
1761397183218152400,11.13515234375,12.466008186340332,6.747759819030762,1.8502501249313354
1761397183237515500,11.154515625,14.691332817077637,5.84147834777832,4.4650068283081055
1761397183256906000,11.173906005859376,11.389835357666016,5.239683151245117,5.162514686584473
1761397183276282600,11.19328271484375,7.7455668449401855,4.734199523925781,2.627917528152466
1761397183295646000,11.21264599609375,3.8524444103240967,4.274179458618164,-0.07477571070194244
1761397183315036400,11.232036376953126,3.074777126312256,3.463610887527466,-1.333998680114746
1761397183334413000,11.2514130859375,4.691727161407471,2.441875457763672,-0.9224331378936768
1761397183353776400,11.2707763671875,5.133800983428955,1.500898003578186,0.26201409101486206
1761397183373166600,11.29016650390625,5.267798900604248,1.4177473783493042,0.8925228714942932
1761397183392543500,11.30954345703125,5.501099109649658,1.8269200325012207,0.5886343717575073
1761397183411920400,11.32892041015625,5.295316696166992,2.8313074111938477,-0.3930211067199707
1761397183431297000,11.348297119140625,5.920441627502441,4.242474555969238,-1.0247262716293335
1761397183450674000,11.367673828125,7.295716285705566,6.350551128387451,-1.7042878866195679
1761397183470037200,11.387037353515625,7.619943618774414,9.705288887023926,-3.1094729900360107
1761397183489427500,11.406427490234375,4.1760735511779785,10.443474769592285,-2.7900311946868896
1761397183508804400,11.425804443359375,0.5694918036460876,11.878569602966309,-2.063809633255005
1761397183528167400,11.44516748046875,4.594817638397217,10.186245918273926,0.646660327911377
1761397183547558000,11.464557861328124,13.547563552856445,6.839883327484131,4.95912504196167
1761397183566934500,11.4839345703125,18.2171573638916,6.821339130401611,3.8081772327423096
1761397183586297900,11.5032978515625,14.761920928955078,7.963912010192871,0.4163511395454407
1761397183605688300,11.522688232421874,10.164710998535156,7.612166881561279,-0.40797626972198486
1761397183625065000,11.54206494140625,6.067001819610596,6.564708709716797,-0.3936193287372589
1761397183644428300,11.56142822265625,3.7399818897247314,5.773283004760742,-0.12801600992679596
1761397183663818500,11.580818603515626,3.583251953125,5.356931686401367,0.3068794906139374
1761397183683195400,11.6001953125,4.467400074005127,4.762913703918457,1.0253244638442993
1761397183702572300,11.619572265625,6.142375946044922,4.36391019821167,1.3752747774124146
1761397183721949000,11.638948974609375,5.637490272521973,4.589433670043945,0.5982056856155396
1761397183741325800,11.658325927734374,4.102494239807129,5.523830890655518,-0.9565308690071106
1761397183760689200,11.677689208984376,4.731806755065918,6.699305057525635,-1.7084753513336182
1761397183780079400,11.697079345703125,5.867201328277588,7.778468132019043,-0.49292147159576416
1761397183799456300,11.716456298828126,5.371288776397705,8.10987377166748,0.6011967062950134
1761397183818833000,11.7358330078125,4.133601188659668,8.483154296875,-0.1746760457754135
1761397183838209800,11.755209716796875,4.4650068283081055,8.325826644897461,-1.287936806678772
1761397183857586700,11.774586669921876,7.764111042022705,8.401200294494629,-2.2331018447875977
1761397183876949800,11.79394970703125,10.200602531433105,7.797610759735107,-2.7260231971740723
1761397183896340200,11.81334033203125,11.039885520935059,4.801796913146973,0.11066804826259613
1761397183915716900,11.832716796875,11.628520011901855,4.235296249389648,2.142772674560547
1761397183935080200,11.852080078125,12.583854675292969,5.629713535308838,1.0402796268463135
1761397183954470400,11.871470458984374,11.510075569152832,6.004190444946289,-0.11246266216039658
1761397183973847300,11.890847412109375,9.043673515319824,6.27996301651001,-0.7328019142150879
1761397183993210600,11.910210693359375,6.52462911605835,6.711867332458496,-0.7016952633857727
1761397184012600800,11.929600830078124,5.851647853851318,6.610172748565674,-0.09212367236614227
1761397184031977700,11.948977783203125,6.6831536293029785,6.429514408111572,0.5593222975730896
1761397184051354600,11.968354736328125,6.835097789764404,6.311069488525391,0.5186443328857422
1761397184070731300,11.987731201171876,6.991827964782715,6.652645111083984,-0.4289134442806244
1761397184090108200,12.007108154296875,6.1435723304748535,6.343372821807861,-0.672383189201355
1761397184109484800,12.02648486328125,6.785446643829346,6.089733600616455,-0.19381862878799438
1761397184128861700,12.04586181640625,8.427521705627441,5.570491313934326,-0.794417142868042
1761397184148238600,12.065238525390624,8.683553695678711,5.624329566955566,-2.6356940269470215
1761397184167615200,12.084615234375,9.31884765625,5.566303730010986,-0.7639086246490479
1761397184186992000,12.1039921875,8.624929428100586,5.511268615722656,0.11964113265275955
1761397184206368800,12.12336865234375,8.391031265258789,5.3970112800598145,-0.5557330846786499
