time,seconds_elapsed,z,y,x
1761397144770727700,0.262727783203125,0.2787957191467285,0.09247636795043945,-0.1755448579788208
1761397144790104600,0.2821044921875,0.07138729095458984,0.2655448913574219,-0.11046707630157471
1761397144809481500,0.3014814453125,-0.29904603958129883,0.4530038833618164,-0.1189543604850769
1761397144828858000,0.320858154296875,-0.20704126358032227,0.48032140731811523,0.12641555070877075
1761397144848235000,0.340235107421875,0.14749622344970703,0.4131937026977539,0.45537909865379333
1761397144867612000,0.35961181640625,0.14240026473999023,0.4185605049133301,0.5357673168182373
1761397144886988500,0.378988525390625,0.2611989974975586,0.42610597610473633,0.3482047915458679
1761397144906365400,0.398365478515625,0.038538455963134766,0.39129018783569336,0.2529606819152832
1761397144925742000,0.4177421875,-0.2308492660522461,0.3123130798339844,0.36109408736228943
1761397144945119000,0.437118896484375,-0.47748661041259766,0.36437034606933594,0.4395046830177307
1761397144964496000,0.456495849609375,-0.35391712188720703,0.42692136764526367,0.5350220799446106
1761397144983872800,0.475872802734375,-0.9232735633850098,0.607384204864502,0.15776008367538452
1761397145003249400,0.49524951171875,-1.4248414039611816,0.5909409523010254,-0.3203819990158081
1761397145022626300,0.514626220703125,-0.7625408172607422,0.40601015090942383,-0.6131744384765625
1761397145042003200,0.534003173828125,-0.1907968521118164,0.26451683044433594,-0.4824923872947693
1761397145061379800,0.5533798828125,-1.0550827980041504,0.12823772430419922,0.08950626850128174
1761397145080756700,0.5727568359375,-1.4264874458312988,0.07506513595581055,0.07769131660461426
1761397145100133400,0.59213330078125,-1.2917051315307617,-0.2593846321105957,-0.048836708068847656
1761397145119510300,0.61151025390625,-1.1046867370605469,-0.36652469635009766,-0.5339385271072388
1761397145138873600,0.63087353515625,0.18189477920532227,0.010596752166748047,-1.2346001863479614
1761397145158264000,0.65026416015625,0.9598426818847656,0.32757139205932617,-1.0773199796676636
1761397145177640700,0.669640625,0.8986077308654785,0.1491413116455078,-0.367748498916626
1761397145197017600,0.689017578125,1.5207428932189941,0.032506465911865234,-0.24318808317184448
1761397145216394500,0.70839453125,1.3952035903930664,-0.19819021224975586,0.29034820199012756
1761397145235771100,0.727771240234375,0.30976009368896484,0.027532577514648438,0.5750318765640259
1761397145255148000,0.74714794921875,-0.6942839622497559,0.27836036682128906,0.45160016417503357
1761397145274524700,0.766524658203125,-1.2048163414001465,-0.5012922286987305,0.9044521450996399
1761397145293901600,0.785901611328125,-1.1762757301330566,-0.5998497009277344,1.000932216644287
1761397145313278500,0.805278564453125,-1.7348179817199707,-0.5084724426269531,1.2051604986190796
1761397145332655400,0.8246552734375,-3.305826187133789,-0.9778122901916504,0.8033477067947388
1761397145352032000,0.844031982421875,-2.9908571243286133,-1.942622184753418,0.5113853216171265
1761397145371395300,0.863395263671875,-0.11501026153564453,-1.4760465621948242,-0.4770009517669678
1761397145390785800,0.882785888671875,0.8085842132568359,-0.36849355697631836,-0.6802279949188232
1761397145410162400,0.902162353515625,1.3858718872070312,-0.019800186157226562,-0.006118007004261017
1761397145429525800,0.92152587890625,0.20758628845214844,-0.861783504486084,1.3314249515533447
1761397145448916200,0.940916259765625,-1.0338516235351562,-1.8148465156555176,1.4429322481155396
1761397145468292900,0.96029296875,-1.9540643692016602,-1.8186838626861572,0.6785393953323364
1761397145487669800,0.979669677734375,-2.3892507553100586,-1.4157607555389404,0.19681411981582642
1761397145507046700,0.999046630859375,-0.7430753707885742,-0.7462553977966309,0.06167749688029289
1761397145526423300,1.01842333984375,0.13031482696533203,-0.7667827606201172,0.011693760752677917
1761397145545786600,1.03778662109375,1.5651721954345703,-0.6618757247924805,-0.49219486117362976
1761397145565177000,1.057177001953125,3.2914724349975586,-0.22858476638793945,-0.9037793278694153
1761397145584553700,1.0765537109375,3.935126304626465,-0.0037212371826171875,0.8419060707092285
1761397145603930600,1.0959306640625,3.618345260620117,0.5789122581481934,1.64232337474823
1761397145623307500,1.1153076171875,4.898670196533203,1.506913661956787,1.6546592712402344
1761397145642684200,1.13468408203125,5.614825248718262,1.6414556503295898,2.1599655151367188
1761397145662047500,1.154047607421875,7.054056167602539,1.1461663246154785,1.9445258378982544
1761397145681437700,1.173437744140625,7.914508819580078,1.4754753112792969,1.8281753063201904
1761397145700814600,1.192814697265625,5.87081241607666,2.2825498580932617,2.079911708831787
1761397145720178000,1.212177978515625,2.6441478729248047,2.6464648246765137,0.5986034870147705
1761397145739568400,1.231568359375,2.010117530822754,2.6627368927001953,-1.3646438121795654
1761397145758945000,1.250945068359375,2.718486785888672,2.460085868835449,-0.6763193607330322
1761397145778322000,1.270322021484375,2.9168314933776855,1.9035253524780273,0.5173381567001343
1761397145797698800,1.28969873046875,2.0075154304504395,1.2047677040100098,0.22929605841636658
1761397145817075500,1.309075439453125,0.28452205657958984,0.5882759094238281,-0.32443925738334656
1761397145836438800,1.328438720703125,-1.283646583557129,-0.3961329460144043,-0.02104434370994568
1761397145855829200,1.347829345703125,-2.187771797180176,-1.3582215309143066,0.5320562124252319
1761397145875206000,1.367205810546875,-2.973395824432373,-2.2938003540039062,0.6647676229476929
1761397145894569200,1.3865693359375,-3.661834716796875,-3.368941068649292,0.3133336901664734
1761397145913959400,1.40595947265625,-3.7472667694091797,-4.159528732299805,-0.16340693831443787
1761397145933336300,1.42533642578125,-4.275620460510254,-4.730626106262207,0.6967983841896057
1761397145952713200,1.444713134765625,-4.954880237579346,-4.481334686279297,0.5671952962875366
1761397145972090000,1.464090087890625,-5.248589515686035,-4.337320327758789,0.5369299054145813
1761397145991466800,1.483466796875,-4.710152626037598,-3.8475377559661865,0.14932499825954437
1761397146010843600,1.50284375,-3.9336018562316895,-3.490605354309082,0.351332426071167
1761397146030220500,1.522220458984375,-3.975416660308838,-3.298006296157837,0.23481306433677673
1761397146049597200,1.54159716796875,-4.151296615600586,-2.4829745292663574,-0.9298430681228638
1761397146068960500,1.56096044921875,-1.1437315940856934,-1.6638174057006836,-1.3769010305404663
1761397146088350700,1.580350830078125,3.4881644248962402,-0.270143985748291,-3.085543394088745
1761397146107727600,1.5997275390625,4.513968467712402,1.2320556640625,-4.488593101501465
1761397146127091000,1.619091064453125,3.340526580810547,2.0072617530822754,-4.254260063171387
1761397146146481400,1.6384814453125,4.0843377113342285,1.8576512336730957,-2.3358397483825684
1761397146165858000,1.657858154296875,6.348574161529541,1.6182799339294434,-1.17952561378479
1761397146185235000,1.67723486328125,5.902559280395508,1.7871050834655762,-0.7536293268203735
1761397146204611800,1.69661181640625,5.224799633026123,2.6754655838012695,-1.2623275518417358
1761397146223988500,1.715988525390625,3.732454299926758,3.246135711669922,-1.9438440799713135
1761397146243351800,1.735351806640625,1.6743454933166504,2.8781604766845703,-0.9970592856407166
1761397146262742000,1.754741943359375,0.23588800430297852,1.6222758293151855,0.2703670859336853
1761397146282119000,1.774118896484375,-0.9885025024414062,-0.2320094108581543,2.0022802352905273
1761397146301482200,1.793482177734375,-2.2829670906066895,-2.1691431999206543,3.108738422393799
1761397146320872400,1.81287255859375,-3.5930795669555664,-3.9624412059783936,3.652693748474121
1761397146340249300,1.832249267578125,-2.896956443786621,-5.61037015914917,4.022302150726318
1761397146359612700,1.85161279296875,-3.601424217224121,-5.997187614440918,2.4737651348114014
1761397146379003100,1.871003173828125,-5.082511901855469,-6.227457046508789,0.32955822348594666
1761397146398379800,1.8903798828125,-6.090152740478516,-5.894741058349609,-1.1132633686065674
1761397146417743000,1.9097431640625,-7.064239501953125,-5.257037162780762,-1.0689458847045898
1761397146437133600,1.929133544921875,-7.863988399505615,-4.983157157897949,-0.22071942687034607
1761397146456510200,1.94851025390625,-8.189593315124512,-4.042393684387207,-0.18917836248874664
1761397146475873500,1.96787353515625,-9.980591773986816,-3.1761889457702637,-0.47573110461235046
1761397146495263700,1.987263671875,-10.2332763671875,-0.8284087181091309,-2.182553768157959
1761397146514640600,2.006640625,-3.5344367027282715,2.752586841583252,-5.1445231437683105
1761397146534004000,2.02600390625,2.2640132904052734,5.0849504470825195,-4.958804607391357
1761397146553394200,2.045394287109375,10.829906463623047,5.813038349151611,-1.111857295036316
1761397146572771000,2.06477099609375,22.113704681396484,4.9727559089660645,2.483043670654297
1761397146592134400,2.084134521484375,29.573596954345703,1.7597055435180664,8.451794624328613
1761397146611524900,2.10352490234375,24.452892303466797,2.774034261703491,8.084836959838867
1761397146630901500,2.122901611328125,10.987855911254883,4.73503303527832,4.176627159118652
1761397146650264800,2.142264892578125,2.5571250915527344,5.380833625793457,2.9282948970794678
1761397146669655000,2.161655029296875,0.39273643493652344,4.096007823944092,2.1598849296569824
1761397146689032000,2.181031982421875,0.3913459777832031,1.7077460289001465,0.7093572616577148
1761397146708395300,2.200395263671875,-1.4859533309936523,-0.1386246681213379,0.4981722831726074
1761397146727785500,2.219785400390625,-4.701388359069824,-1.3756072521209717,1.188645601272583
1761397146747162400,2.239162353515625,-7.360310077667236,-2.5284948348999023,0.9622931480407715
1761397146766525700,2.258525634765625,-8.582308769226074,-3.6355226039886475,-0.10655570030212402
1761397146785916000,2.277916015625,-9.772745132446289,-4.841419219970703,-0.6304824352264404
1761397146805292800,2.297292724609375,-11.352350234985352,-5.392947673797607,-1.8397645950317383
1761397146824656100,2.31665625,-12.82762622833252,-5.345608711242676,-2.919684886932373
1761397146844046600,2.336046630859375,-13.538305282592773,-4.901396751403809,-3.1987204551696777
1761397146863423200,2.35542333984375,-13.636905670166016,-4.499103546142578,-2.757073402404785
1761397146882786600,2.37478662109375,-12.038509368896484,-3.9022841453552246,-1.9588462114334106
1761397146902176800,2.3941767578125,-5.6657938957214355,-1.8387436866760254,-1.4025216102600098
1761397146921553700,2.4135537109375,-0.2759222984313965,0.3993391990661621,0.09447765350341797
1761397146940917000,2.4329169921875,5.415115833282471,3.8836588859558105,-0.9149919748306274
1761397146960307200,2.45230712890625,11.484184265136719,7.381770133972168,-5.740934371948242
1761397146979684000,2.47168408203125,19.215362548828125,5.918609142303467,-0.7161251306533813
1761397146999047400,2.49104736328125,28.430543899536133,1.2339515686035156,9.745382308959961
1761397147018437600,2.510437744140625,24.64218521118164,-0.9353580474853516,9.881051063537598
1761397147037814500,2.529814453125,10.60230827331543,1.2012748718261719,1.7906386852264404
1761397147057177900,2.549177734375,-0.2827033996582031,2.1987767219543457,1.1858923435211182
1761397147076568000,2.568568115234375,-5.921011924743652,2.2402682304382324,2.127918243408203
1761397147095945000,2.587945068359375,-7.290552616119385,0.8825135231018066,1.3452177047729492
1761397147115308300,2.607308349609375,-5.743959426879883,-0.8445820808410645,0.5925383567810059
1761397147134698500,2.626698486328125,-4.069375991821289,-2.3266289234161377,0.5191454887390137
1761397147154075400,2.646075439453125,-3.2300777435302734,-3.095363140106201,0.5369198322296143
1761397147173438700,2.665438720703125,-3.71425199508667,-3.2345833778381348,-0.3835982084274292
1761397147192829000,2.684828857421875,-5.604104042053223,-3.1207785606384277,-1.5547795295715332
1761397147212205800,2.704205810546875,-8.014886856079102,-3.079319477081299,-1.6884793043136597
1761397147231569200,2.723569091796875,-9.586493492126465,-3.1742281913757324,-0.8755459785461426
1761397147250959400,2.74295947265625,-10.422929763793945,-3.193587064743042,-0.4957594871520996
1761397147270336300,2.762336181640625,-10.178375244140625,-2.877023935317993,-0.6002082824707031
1761397147289699600,2.781699462890625,-7.314927577972412,-1.9198493957519531,-1.964662790298462
1761397147309089800,2.80108984375,-4.297273635864258,-1.0317010879516602,-2.111259698867798
1761397147328466700,2.820466796875,1.1568326950073242,0.9003391265869141,-0.5335694551467896
1761397147347830000,2.839830078125,10.006385803222656,3.732975959777832,-0.8241519927978516
1761397147367220200,2.85922021484375,14.416581153869629,6.845449924468994,-3.5572681427001953
1761397147386597000,2.87859716796875,11.860126495361328,7.737613201141357,-2.602553367614746
1761397147405960400,2.89796044921875,11.05949592590332,5.6183648109436035,2.835400104522705
1761397147425350700,2.9173505859375,14.62195873260498,1.9860234260559082,6.75175666809082
1761397147444727600,2.9367275390625,13.833696365356445,1.168449878692627,4.231790542602539
1761397147464091000,2.9560908203125,7.013092994689941,1.3485379219055176,1.6893033981323242
1761397147483481000,2.975481201171875,0.19430828094482422,0.7227683067321777,2.3336288928985596
1761397147502858000,2.99485791015625,-4.144858360290527,-0.44532251358032227,2.8701376914978027
1761397147522221300,3.01422119140625,-5.254659652709961,-1.6645698547363281,2.1663026809692383
1761397147541611500,3.033611572265625,-5.5372419357299805,-2.8071916103363037,2.073306083679199
1761397147560988400,3.052988525390625,-5.749556541442871,-3.3560492992401123,1.3304121494293213
1761397147580351700,3.072351806640625,-5.354989051818848,-3.1505661010742188,0.270548939704895
1761397147599742000,3.091741943359375,-4.99196720123291,-2.379988431930542,-0.1590108871459961
1761397147619118800,3.111118896484375,-6.063061714172363,-1.7028136253356934,1.1878364086151123
1761397147638482200,3.130482177734375,-7.99493408203125,-0.9083747863769531,3.2304391860961914
1761397147657872400,3.149872314453125,-9.310873985290527,-0.20682859420776367,3.885408401489258
1761397147677249300,3.169249267578125,-8.691635131835938,0.08015584945678711,2.999617576599121
1761397147696612600,3.188612548828125,-4.429378509521484,0.45261573791503906,1.5161268711090088
1761397147716002800,3.2080029296875,2.6187191009521484,0.5658431053161621,0.6020139455795288
1761397147735379700,3.227379638671875,8.86109447479248,2.762657642364502,-2.9787864685058594
1761397147754743000,3.246742919921875,9.953031539916992,4.720549583435059,-4.706811904907227
1761397147774133200,3.26613330078125,9.407637596130371,3.4717507362365723,-0.4184988737106323
1761397147793510100,3.28551025390625,11.233860969543457,0.861473560333252,3.0758769512176514
1761397147812873500,3.30487353515625,13.142767906188965,-0.41605424880981445,-1.0398340225219727
1761397147832263700,3.324263671875,10.849244117736816,0.2797579765319824,-4.120428562164307
1761397147851640600,3.343640625,5.688121318817139,0.44516658782958984,-1.203841209411621
1761397147871004000,3.36300390625,-0.34978342056274414,0.13284015655517578,1.0513325929641724
1761397147890394000,3.38239404296875,-4.650025367736816,-1.1370625495910645,-0.20394408702850342
1761397147909771000,3.40177099609375,-5.365072727203369,-2.81109881401062,0.01968252658843994
1761397147929134300,3.42113427734375,-4.3463897705078125,-4.238577842712402,1.0738056898117065
1761397147948524500,3.440524658203125,-3.789836883544922,-4.914943218231201,1.5887186527252197
1761397147967901400,3.4599013671875,-4.005666255950928,-4.934262275695801,1.0151352882385254
1761397147987264800,3.4792646484375,-5.384088516235352,-5.078590393066406,0.8219358325004578
1761397148006655000,3.498655029296875,-5.583331108093262,-5.425677299499512,0.8700979351997375
1761397148026031900,3.518031982421875,-5.103140830993652,-5.313177108764648,0.5127468705177307
1761397148045408500,3.537408447265625,-5.230500221252441,-4.998597621917725,0.12438231706619263
1761397148064785400,3.556785400390625,-5.576695919036865,-4.151071071624756,-0.9944440126419067
1761397148084162300,3.576162353515625,-4.395463943481445,-2.3783764839172363,-2.0092523097991943
1761397148103525600,3.595525634765625,-1.8892021179199219,0.34535980224609375,-2.3019165992736816
1761397148122915800,3.614915771484375,-1.498586654663086,3.735290050506592,-2.559908151626587
1761397148142292700,3.634292724609375,-1.7992963790893555,4.859296798706055,-1.53944730758667
1761397148161656000,3.653656005859375,2.4006686210632324,4.534892559051514,-0.5737745761871338
1761397148181046300,3.67304638671875,11.251041412353516,4.248748302459717,0.44771677255630493
1761397148200423200,3.692423095703125,16.37173843383789,3.9076690673828125,-0.6783049702644348
1761397148219799800,3.7117998046875,13.397966384887695,4.226212978363037,-1.9511511325836182
1761397148239176700,3.7311767578125,7.581917762756348,4.024202823638916,-0.3944353759288788
1761397148258553600,3.7505537109375,1.9252309799194336,2.4323668479919434,2.8985159397125244
1761397148277916700,3.769916748046875,-3.870948553085327,-0.08735513687133789,3.494312286376953
1761397148297307100,3.78930712890625,-7.384397983551025,-2.6052021980285645,1.5526018142700195
1761397148316684000,3.80868408203125,-7.567205429077148,-4.802090644836426,0.13044965267181396
1761397148336047400,3.82804736328125,-5.650986671447754,-6.012432098388672,-0.12610331177711487
1761397148355437600,3.8474375,-4.4958906173706055,-6.901571273803711,1.1748772859573364
1761397148374814200,3.866814208984375,-4.580419063568115,-7.34950065612793,2.4203133583068848
1761397148394191000,3.886191162109375,-5.602437973022461,-7.101898193359375,2.2760140895843506
1761397148413568000,3.905568115234375,-7.0167107582092285,-6.326529502868652,1.585684895515442
1761397148432944600,3.924944580078125,-8.739723205566406,-5.248673439025879,0.8962643146514893
1761397148452308000,3.944307861328125,-9.827787399291992,-3.9966137409210205,-0.1373882293701172
1761397148471698400,3.963698486328125,-8.303305625915527,-1.97052001953125,-1.8178892135620117
1761397148491075300,3.983075439453125,-4.563127517700195,2.2656869888305664,-4.441162109375
1761397148510438400,4.0024384765625,-0.21381330490112305,7.297224998474121,-8.405567169189453
1761397148529828900,4.021828857421875,3.923917293548584,6.737576484680176,-2.3579490184783936
1761397148549205800,4.041205810546875,16.6788387298584,3.2484169006347656,11.412588119506836
1761397148568568800,4.06056884765625,33.165016174316406,-1.347905158996582,12.46714973449707
1761397148587959300,4.079959228515625,31.566410064697266,2.760526657104492,0.04063546657562256
1761397148607336000,4.0993359375,16.64475440979004,3.980952262878418,0.35915565490722656
1761397148626699300,4.11869921875,2.1615304946899414,6.272083282470703,1.0823966264724731
1761397148646089700,4.13808984375,-6.780773162841797,5.4252848625183105,-2.1856157779693604
1761397148665466400,4.15746630859375,-6.358347415924072,2.9436545372009277,-0.6186254620552063
1761397148684829700,4.17682958984375,-3.8473381996154785,0.7676692008972168,2.4460630416870117
1761397148704220200,4.19622021484375,-4.287469387054443,-1.705810546875,2.4787468910217285
1761397148723596800,4.2155966796875,-5.939362525939941,-3.622620105743408,0.5800346732139587
1761397148742960000,4.234960205078125,-7.3670783042907715,-5.162619113922119,-0.8173692226409912
1761397148762350600,4.2543505859375,-8.377185821533203,-6.64016580581665,-0.7667957544326782
1761397148781727200,4.273727294921875,-8.857075691223145,-7.83101224899292,-0.5347273945808411
1761397148801104100,4.293104248046875,-7.592958450317383,-7.838637828826904,0.10081338882446289
1761397148820481000,4.31248095703125,-6.7942376136779785,-7.131651401519775,0.31777381896972656
1761397148839857700,4.331857666015625,-7.509485721588135,-6.097363471984863,-0.4976482391357422
1761397148859234600,4.351234619140625,-8.000900268554688,-5.4437971115112305,-0.9338793754577637
1761397148878611500,4.370611572265625,-7.299516677856445,-3.615906238555908,-2.0832419395446777
1761397148897988000,4.389988037109375,-6.230827331542969,-0.42260026931762695,-4.4008708000183105
1761397148917351400,4.409351318359375,-4.7186479568481445,3.430457592010498,-6.466622352600098
1761397148936742000,4.428741943359375,5.096103668212891,3.9321842193603516,-1.2532920837402344
1761397148956118500,4.448118408203125,18.014156341552734,1.5450859069824219,7.84390926361084
1761397148975481900,4.46748193359375,22.642744064331055,-2.078237295150757,10.408329010009766
1761397148994872300,4.486872314453125,18.528602600097656,0.43257999420166016,2.689702033996582
1761397149014249000,4.5062490234375,9.495718955993652,2.9115705490112305,-4.221850395202637
1761397149033612300,4.5256123046875,2.4216508865356445,5.195088863372803,-5.06095552444458
1761397149053002500,4.54500244140625,-1.7710261344909668,5.125880718231201,-2.9448421001434326
1761397149072379400,4.56437939453125,-1.4355278015136719,3.202058792114258,0.5114551782608032
1761397149091742700,4.58374267578125,-0.4165654182434082,1.7134251594543457,3.2011146545410156
1761397149111133000,4.6031328125,-0.04864215850830078,0.265927791595459,4.361014366149902
1761397149130509800,4.622509765625,1.5423669815063477,-1.8700852394104004,3.5865626335144043
1761397149149873200,4.641873046875,-0.01762866973876953,-2.7605395317077637,0.4362562298774719
1761397149169263400,4.661263427734375,-2.945180892944336,-3.3033411502838135,-0.4164261519908905
1761397149188640300,4.68064013671875,-4.698304176330566,-3.9339518547058105,0.6171588897705078
1761397149208003600,4.700003662109375,-5.653511047363281,-3.661531925201416,0.7888927459716797
1761397149227393800,4.719393798828125,-7.506858825683594,-3.3511970043182373,0.3729630708694458
1761397149246770700,4.738770751953125,-8.161514282226562,-3.057919502258301,-0.4145663380622864
1761397149266147600,4.758147705078125,-7.03056526184082,-2.2694969177246094,-0.9174852967262268
1761397149285524200,4.777524169921875,-5.796144485473633,-1.2964143753051758,-0.16061776876449585
1761397149304901000,4.796901123046875,-3.951383590698242,0.03186750411987305,-0.9956263303756714
1761397149324264400,4.816264404296875,0.2574472427368164,1.4186768531799316,-2.816983461380005
1761397149343654700,4.835654541015625,5.516722679138184,3.455749988555908,-2.9460668563842773
1761397149363031600,4.855031494140625,10.087496757507324,3.962185859680176,-1.3307852745056152
1761397149382395000,4.874394775390625,13.727141380310059,3.6491403579711914,-0.7446631193161011
1761397149401785000,4.89378515625,13.029874801635742,3.4276375770568848,-1.0358651876449585
1761397149421162000,4.913161865234375,9.775382995605469,3.265638828277588,-1.0880333185195923
1761397149440525300,4.932525390625,6.602378845214844,2.75445556640625,-0.011703014373779297
1761397149459915500,4.95191552734375,3.6985597610473633,1.531846523284912,1.3723706007003784
1761397149479292400,4.97129248046875,-0.28037071228027344,-0.06757545471191406,2.2338662147521973
1761397149498655700,4.99065576171875,-3.4657297134399414,-1.4997453689575195,1.6636117696762085
1761397149518046000,5.0100458984375,-5.323005676269531,-2.3650708198547363,1.5849573612213135
1761397149537422800,5.0294228515625,-6.088328838348389,-2.648350238800049,1.675830364227295
1761397149556786200,5.0487861328125,-6.277523517608643,-2.7888083457946777,1.301123857498169
1761397149576176400,5.06817626953125,-5.5463666915893555,-3.0170555114746094,1.8866572380065918
1761397149595553300,5.08755322265625,-4.317108631134033,-2.866853713989258,2.4682726860046387
1761397149614916600,5.10691650390625,-2.43043851852417,-2.8785624504089355,3.488557815551758
1761397149634306800,5.126306884765625,-3.18508243560791,-2.3988115787506104,5.329709529876709
1761397149653683700,5.14568359375,-7.816895484924316,-1.588118553161621,4.071025848388672
1761397149673047000,5.165047119140625,-8.83423137664795,-0.1430516242980957,-0.7781354784965515
1761397149692437200,5.184437255859375,-1.8269977569580078,0.3263874053955078,0.8538841009140015
1761397149711814100,5.203814208984375,5.16658878326416,1.5325837135314941,2.2223587036132812
1761397149731177500,5.223177490234375,4.624295711517334,4.471437931060791,-4.398410320281982
1761397149750567700,5.242567626953125,5.0880818367004395,5.362274169921875,-6.216202259063721
1761397149769944600,5.261944580078125,10.684091567993164,3.251272201538086,2.985572576522827
1761397149789308000,5.281307861328125,16.968612670898438,-0.6346735954284668,7.866036415100098
1761397149808698000,5.300697998046875,14.174671173095703,-0.2886543273925781,0.2923608422279358
1761397149828075000,5.320074951171875,4.974486351013184,1.5519742965698242,-5.871601581573486
1761397149847438300,5.339438232421875,0.040482521057128906,2.2093381881713867,-4.46102237701416
1761397149866828500,5.35882861328125,-3.2883734703063965,0.7074995040893555,-1.0790404081344604
1761397149886205400,5.378205322265625,-4.143039703369141,-1.5488052368164062,0.8925557732582092
1761397149905568800,5.39756884765625,-3.344639778137207,-3.252290725708008,2.3517160415649414
1761397149924959000,5.416958984375,-2.997408390045166,-3.866114854812622,2.1258718967437744
1761397149944336000,5.4363359375,-4.119875907897949,-4.246275901794434,0.9587324261665344
1761397149963699200,5.45569921875,-5.681848049163818,-4.217756271362305,-0.3476443886756897
1761397149983089400,5.47508935546875,-7.218034267425537,-4.176688194274902,-2.035417079925537
1761397150002466300,5.49446630859375,-8.366945266723633,-4.068068504333496,-2.6087610721588135
1761397150021829600,5.51382958984375,-8.860315322875977,-3.738463878631592,-1.1439392566680908
1761397150041219800,5.5332197265625,-7.7253947257995605,-3.1575727462768555,-0.4322192370891571
1761397150060596700,5.5525966796875,-4.864941596984863,-2.2787137031555176,-1.8320906162261963
1761397150079960000,5.5719599609375,-1.1486544609069824,-1.1028776168823242,-2.864687204360962
1761397150099350300,5.591350341796875,2.929917812347412,0.9577288627624512,-2.2231483459472656
1761397150118727200,5.61072705078125,5.298529624938965,3.774834156036377,-2.188385009765625
1761397150138090500,5.630090576171875,4.665374755859375,3.761110305786133,0.17309075593948364
1761397150157480700,5.649480712890625,5.508688449859619,4.055334091186523,3.7014517784118652
1761397150176857600,5.668857666015625,10.89064884185791,2.0083799362182617,4.711498737335205
1761397150196220700,5.688220703125,14.732189178466797,2.419167995452881,-1.3342150449752808
1761397150215611100,5.707611083984375,10.962154388427734,2.495283603668213,-3.7047839164733887
1761397150234988000,5.726988037109375,4.36577033996582,2.4711570739746094,-2.233170747756958
1761397150254351000,5.74635107421875,0.36173534393310547,1.7601666450500488,0.10965067148208618
1761397150273741600,5.765741455078125,-1.204442024230957,0.4412250518798828,1.4486802816390991
1761397150293118500,5.785118408203125,-1.859144687652588,-0.9422965049743652,0.9445962905883789
1761397150312481800,5.804481689453125,-2.1624598503112793,-2.0420963764190674,-0.9006528258323669
1761397150331872000,5.8238720703125,-2.3991265296936035,-2.479820728302002,-1.9916901588439941
1761397150351248600,5.84324853515625,-3.273529052734375,-2.9617538452148438,-0.15061843395233154
1761397150370612000,5.862612060546875,-4.007771968841553,-3.3965444564819336,1.8815832138061523
1761397150390002400,5.88200244140625,-4.099493026733398,-3.7242746353149414,2.1209163665771484
1761397150409379000,5.901379150390625,-3.5906686782836914,-3.595421314239502,1.391084909439087
1761397150428756000,5.920755859375,-2.9779767990112305,-3.0793278217315674,0.6627545356750488
1761397150448132900,5.9401328125,-2.021195888519287,-2.4212303161621094,0.7549698352813721
1761397150467509500,5.959509521484375,-0.6551313400268555,-1.1589722633361816,0.3344053030014038
1761397150486872800,5.978872802734375,-0.4325079917907715,1.4759917259216309,-2.0605692863464355
1761397150506263300,5.99826318359375,-0.6810407638549805,3.6697778701782227,-2.503519296646118
1761397150525640000,6.017639892578125,-0.033885955810546875,3.9770588874816895,2.7533411979675293
1761397150545003300,6.037003173828125,4.446323394775391,3.5512475967407227,6.771263122558594
1761397150564393700,6.056393798828125,9.245321273803711,1.4045753479003906,4.363199234008789
1761397150583770400,6.075770263671875,9.989913940429688,2.1620659828186035,-2.4808149337768555
1761397150603133700,6.0951337890625,5.897909164428711,2.850149154663086,-4.003355979919434
1761397150622524200,6.114524169921875,1.7719883918762207,2.0322442054748535,-1.0553654432296753
1761397150641900800,6.13390087890625,-2.3316783905029297,0.43552684783935547,0.320481538772583
1761397150661264100,6.15326416015625,-4.524393558502197,-1.395681381225586,0.38721194863319397
1761397150680654600,6.172654541015625,-4.220263481140137,-2.8994927406311035,-0.8314429521560669
1761397150700031200,6.19203125,-2.848684787750244,-3.730395555496216,-0.9919447898864746
1761397150719394600,6.21139453125,-2.421206474304199,-3.959425449371338,-1.1917970180511475
1761397150738785000,6.230784912109375,-3.038857936859131,-4.186222076416016,-0.8968168497085571
1761397150758161700,6.25016162109375,-2.7717175483703613,-4.5286946296691895,0.23766355216503143
1761397150777538600,6.26953857421875,-2.7424025535583496,-4.550115585327148,0.6478695869445801
1761397150796915500,6.28891552734375,-3.5508294105529785,-3.8445887565612793,1.294921875
1761397150816292000,6.3082919921875,-4.573586463928223,-3.14132022857666,1.938459873199463
1761397150835655400,6.327655517578125,-3.751814842224121,-2.1301827430725098,1.7052016258239746
1761397150855046000,6.3470458984375,-2.2819643020629883,-0.8027219772338867,0.3445671796798706
1761397150874422500,6.366422607421875,-0.6657905578613281,1.5299334526062012,-1.8953983783721924
1761397150893785900,6.385785888671875,0.8279027938842773,5.451274394989014,-3.9074063301086426
1761397150913176300,6.40517626953125,2.009550094604492,6.773107051849365,-3.7019808292388916
1761397150932553000,6.424552978515625,2.404621124267578,5.939476013183594,0.5365556478500366
1761397150951916300,6.443916259765625,9.952471733093262,3.1279635429382324,4.844841480255127
1761397150971306500,6.463306396484375,16.380414962768555,2.122312545776367,0.8406113386154175
1761397150990683400,6.482683349609375,12.910002708435059,2.7699975967407227,-3.8800060749053955
1761397151010046700,6.502046630859375,5.4140238761901855,2.7060818672180176,-1.6410971879959106
1761397151029437000,6.52143701171875,-2.9090418815612793,2.0964794158935547,2.847276449203491
1761397151048813800,6.540813720703125,-6.697754383087158,0.6572422981262207,4.058324813842773
1761397151068177200,6.56017724609375,-4.284195423126221,-1.4903955459594727,3.539259195327759
1761397151087567400,6.5795673828125,-1.1244568824768066,-3.490121364593506,2.0524933338165283
1761397151106944300,6.5989443359375,0.849677562713623,-4.621663570404053,0.7054992914199829
1761397151126307600,6.6183076171875,0.3318772315979004,-5.263737678527832,0.4663669466972351
1761397151145697800,6.63769775390625,-2.4667348861694336,-5.713643550872803,1.8436559438705444
1761397151165074700,6.65707470703125,-6.170583248138428,-5.646467208862305,2.586116075515747
1761397151184438000,6.67643798828125,-8.918489456176758,-5.363916397094727,1.796180248260498
1761397151203828200,6.695828125,-9.286839485168457,-4.935595512390137,0.7148448824882507
1761397151223205000,6.715205078125,-7.579639911651611,-4.2813825607299805,-0.02320488914847374
1761397151242568400,6.734568359375,-4.993535041809082,-3.144963264465332,-0.965094804763794
1761397151261958700,6.753958740234375,-2.072324275970459,-1.2486577033996582,-1.2610442638397217
1761397151281335600,6.77333544921875,2.265806198120117,1.7507801055908203,-1.4179432392120361
1761397151300699000,6.792698974609375,4.294688701629639,4.612767219543457,-2.7875633239746094
1761397151320089000,6.812089111328125,1.574355125427246,5.260169982910156,-1.810263991355896
1761397151339466000,6.831466064453125,3.602834701538086,5.768430709838867,0.7163368463516235
1761397151358829300,6.850829345703125,10.363961219787598,4.176300048828125,1.797311544418335
1761397151378219500,6.870219482421875,15.042014122009277,3.1672372817993164,-0.6840728521347046
1761397151397596400,6.889596435546875,13.516570091247559,3.201923370361328,-2.655278205871582
1761397151416959700,6.908959716796875,7.012726783752441,2.016667366027832,0.643389880657196
1761397151436350000,6.928349853515625,-0.24914789199829102,0.05788469314575195,2.3388595581054688
1761397151455726800,6.947726806640625,-5.491748332977295,-1.8727765083312988,0.206704780459404
1761397151475090200,6.967090087890625,-7.699875831604004,-3.971769094467163,-1.0386743545532227
1761397151494480400,6.98648046875,-7.512836933135986,-5.728780746459961,-0.8870347142219543
1761397151513857300,7.005857177734375,-7.291112899780273,-7.01048469543457,-0.6398106813430786
1761397151533220600,7.025220703125,-8.581330299377441,-8.627798080444336,-0.3182680606842041
1761397151552610800,7.04461083984375,-8.493914604187012,-9.612420082092285,-1.7433459758758545
1761397151571987700,7.06398779296875,-7.560985088348389,-9.097460746765137,-3.8698811531066895
1761397151591351000,7.08335107421875,-7.730254173278809,-8.148412704467773,-4.337407112121582
1761397151610741200,7.1027412109375,-8.920830726623535,-6.8183159828186035,-3.3549392223358154
1761397151630118100,7.1221181640625,-9.484868049621582,-5.502650737762451,-2.5655550956726074
1761397151649481500,7.1414814453125,-9.309406280517578,-4.191028118133545,-2.5941219329833984
1761397151668871700,7.16087158203125,-5.518501281738281,-1.503549337387085,-2.7488274574279785
1761397151688248600,7.18024853515625,-0.747589111328125,4.026592254638672,-2.8187527656555176
1761397151707612000,7.19961181640625,5.751070976257324,6.5119123458862305,3.733889102935791
1761397151727002000,7.219002197265625,21.243955612182617,4.5535173416137695,13.731321334838867
1761397151746379000,7.23837890625,37.9519157409668,1.7799468040466309,15.376453399658203
1761397151765742300,7.257742431640625,36.53802490234375,3.7140111923217773,3.7652409076690674
1761397151785132500,7.277132568359375,26.44475746154785,4.7451701164245605,0.5560381412506104
1761397151804509400,7.296509521484375,13.354880332946777,5.026275634765625,3.6202797889709473
1761397151823872800,7.315872802734375,2.104419708251953,4.497682571411133,4.465570449829102
1761397151843263000,7.335262939453125,-1.0713262557983398,2.7406504154205322,3.5230445861816406
1761397151862639900,7.354639892578125,-0.7393369674682617,0.052678585052490234,3.3856406211853027
1761397151882003200,7.374003173828125,-3.0833959579467773,-2.2471089363098145,2.9283318519592285
1761397151901393400,7.393393310546875,-7.953052043914795,-3.819836378097534,2.3748743534088135
1761397151920770300,7.412770263671875,-12.352180480957031,-4.770988941192627,2.061532497406006
1761397151940133600,7.432133544921875,-14.077608108520508,-5.657062530517578,1.729440689086914
1761397151959523800,7.45152392578125,-13.49130916595459,-6.058073997497559,1.1332837343215942
1761397151978900700,7.470900634765625,-12.586982727050781,-5.84169864654541,0.6351563334465027
1761397151998277400,7.49027734375,-12.97652530670166,-5.788363456726074,0.6504653692245483
1761397152017654300,7.509654296875,-13.290542602539062,-5.339982509613037,-0.17212814092636108
1761397152037031200,7.52903125,-12.039505004882812,-4.116204261779785,-0.9599063396453857
1761397152056394500,7.54839453125,-7.744507312774658,-1.6445591449737549,-0.5361429452896118
1761397152075784700,7.56778466796875,-2.7833962440490723,3.377971649169922,-1.6156678199768066
1761397152095161600,7.58716162109375,2.5362167358398438,8.176095008850098,-3.312563419342041
1761397152114524700,7.606524658203125,12.204957962036133,6.651833534240723,2.5074310302734375
1761397152133915100,7.6259150390625,27.215652465820312,0.4717721939086914,10.530803680419922
1761397152153292000,7.6452919921875,34.87918472290039,-1.482943058013916,2.6217377185821533
1761397152172655000,7.664655029296875,29.863025665283203,-0.2963736057281494,-6.005823612213135
1761397152192045600,7.684045654296875,17.21133804321289,0.09937262535095215,-2.29502534866333
1761397152211422500,7.70342236328125,0.7276802062988281,0.6069378852844238,3.5679244995117188
1761397152230785500,7.72278564453125,-13.215930938720703,0.7439618110656738,6.02554988861084
1761397152250176000,7.742176025390625,-16.834735870361328,-0.9483532905578613,5.1656694412231445
1761397152269553000,7.761552978515625,-13.653844833374023,-3.5026040077209473,2.091190814971924
1761397152288916200,7.780916259765625,-10.267407417297363,-5.482029914855957,-1.4395384788513184
1761397152308306400,7.800306396484375,-8.907716751098633,-6.095968246459961,-3.391101360321045
1761397152327683000,7.81968310546875,-9.986689567565918,-6.123030662536621,-3.3998658657073975
1761397152347046400,7.83904638671875,-11.890815734863281,-6.168306350708008,-2.797752618789673
1761397152366436900,7.858436767578125,-13.440231323242188,-5.477252960205078,-3.2610926628112793
1761397152385813500,7.8778134765625,-14.079902648925781,-4.429031848907471,-4.229377746582031
1761397152405176800,7.8971767578125,-10.5894775390625,-2.6955273151397705,-4.904426574707031
1761397152424567300,7.9165673828125,-4.187211513519287,-0.13125324249267578,-3.4591257572174072
1761397152443944200,7.935944091796875,3.914322853088379,2.6226859092712402,0.4954683184623718
1761397152463307300,7.955307373046875,18.35074806213379,0.9333624839782715,2.704904317855835
1761397152482697700,7.97469775390625,29.12686538696289,-2.7537026405334473,-0.573736310005188
1761397152502074400,7.994074462890625,24.609682083129883,-4.047553539276123,-1.9510904550552368
1761397152521437700,8.013437744140624,17.78082275390625,-2.370706558227539,-2.0008862018585205
1761397152540828200,8.032828125,13.553343772888184,-1.4203720092773438,2.1050705909729004
1761397152560204800,8.052204833984375,7.685741424560547,-0.5014498233795166,4.988265037536621
1761397152579568000,8.071568115234374,0.1512012481689453,0.8874640464782715,6.814053535461426
1761397152598958600,8.09095849609375,-6.008212089538574,1.344468116760254,8.198450088500977
1761397152618335200,8.110335205078124,-9.590948104858398,0.5715298652648926,6.38365364074707
1761397152637698600,8.129698486328126,-11.001380920410156,-0.5398297309875488,3.757643461227417
1761397152657089000,8.149089111328125,-11.35175609588623,-1.4579687118530273,1.6304644346237183
1761397152676465700,8.168465576171876,-9.949830055236816,-1.7677016258239746,-0.3284255862236023
1761397152695829000,8.1878291015625,-11.307984352111816,-2.6457254886627197,-1.2966384887695312
1761397152715219500,8.207219482421875,-12.884774208068848,-3.2218449115753174,-1.7989455461502075
1761397152734596000,8.22659619140625,-14.19730281829834,-3.4820516109466553,-2.438168525695801
1761397152753973000,8.245972900390624,-13.297737121582031,-3.227825164794922,-2.0903220176696777
1761397152773350000,8.265349853515625,-10.546331405639648,-2.351529121398926,-0.4149072766304016
1761397152792726500,8.2847265625,-6.811922550201416,-0.061496734619140625,0.0781404972076416
1761397152812089900,8.30408984375,5.056031227111816,3.826470375061035,-2.5521080493927
1761397152831480300,8.323480224609375,20.66998291015625,5.849067687988281,-2.5001907348632812
1761397152850857000,8.34285693359375,29.584880828857422,6.413126468658447,2.720806121826172
1761397152870220300,8.36222021484375,33.73674774169922,3.8683009147644043,9.390485763549805
1761397152889610800,8.38161083984375,30.953128814697266,1.383657455444336,7.89570951461792
1761397152908987400,8.4009873046875,19.64609718322754,0.7831244468688965,1.8086084127426147
1761397152928350700,8.420350830078124,7.931058883666992,0.9181857109069824,-0.7224879264831543
1761397152947741000,8.439740966796874,-0.7973928451538086,0.07719659805297852,-1.2878172397613525
1761397152967117800,8.459117919921875,-6.623072624206543,-1.465075969696045,-1.2161755561828613
1761397152986481200,8.478481201171874,-10.319506645202637,-3.2470672130584717,1.558306097984314
1761397153005871400,8.497871337890626,-13.091127395629883,-4.341681480407715,5.55171537399292
1761397153025248300,8.517248291015624,-13.118021011352539,-5.772035598754883,6.211156845092773
1761397153044611600,8.536611572265626,-12.857256889343262,-7.527348041534424,5.039453983306885
1761397153064001800,8.556001708984375,-13.980844497680664,-8.124698638916016,2.5773706436157227
1761397153083378700,8.575378662109374,-15.391597747802734,-7.647739410400391,0.16006815433502197
1761397153102742000,8.594741943359375,-15.80134105682373,-7.390974044799805,-0.8536030650138855
1761397153122132500,8.614132568359375,-14.897829055786133,-6.603694915771484,-1.120570182800293
1761397153141509000,8.633509033203126,-11.965105056762695,-5.003787994384766,-1.0915943384170532
1761397153160872400,8.65287255859375,-5.645876884460449,-2.358083724975586,-0.7599400877952576
1761397153180262700,8.6722626953125,3.456448554992676,-0.9495716094970703,1.1165766716003418
1761397153199639600,8.6916396484375,13.988828659057617,3.234705924987793,1.2753746509552002
1761397153219003000,8.7110029296875,20.40709114074707,7.084768295288086,-1.5360438823699951
1761397153238393000,8.73039306640625,24.55736541748047,6.40967321395874,1.1525932550430298
1761397153257770000,8.74977001953125,27.886137008666992,2.8723220825195312,6.560562610626221
1761397153277133300,8.76913330078125,26.297800064086914,0.9161038398742676,3.247170925140381
1761397153296523500,8.7885234375,16.41253089904785,1.0237054824829102,0.1124085783958435
1761397153315900400,8.807900390625,3.442869186401367,0.8025631904602051,1.136581301689148
1761397153335263700,8.827263671875,-7.435544490814209,-0.21363496780395508,1.455251932144165
1761397153354654000,8.846654052734374,-13.102705001831055,-1.5375676155090332,1.2340776920318604
1761397153374030800,8.86603076171875,-14.627903938293457,-3.7576069831848145,2.4172606468200684
1761397153393394200,8.885394287109374,-13.179473876953125,-5.511875629425049,1.818885326385498
1761397153412784400,8.904784423828126,-10.4493989944458,-6.354280471801758,-0.21855898201465607
1761397153432161300,8.924161376953125,-7.919538974761963,-6.638319969177246,-1.5565547943115234
1761397153451524600,8.943524658203126,-7.092825412750244,-6.725618362426758,-1.9307982921600342
1761397153470914800,8.962914794921875,-8.834381103515625,-6.451104164123535,-1.6113345623016357
1761397153490291700,8.982291748046874,-12.197973251342773,-5.4528679847717285,-0.363764226436615
1761397153509655000,9.001655029296876,-12.2647066116333,-3.9893531799316406,-0.46488702297210693
1761397153529045200,9.021045166015625,-6.609005928039551,-1.2615141868591309,-1.6352919340133667
1761397153548422100,9.040422119140626,3.175015449523926,1.129018783569336,0.6748632192611694
1761397153567785500,9.059785400390625,17.97435760498047,2.2526044845581055,3.304802417755127
1761397153587175700,9.07917578125,27.328044891357422,0.3470296859741211,3.1609420776367188
1761397153606552600,9.098552490234376,24.015304565429688,1.2821526527404785,-1.1208875179290771
1761397153625916000,9.117916015625,16.971580505371094,2.7164368629455566,-3.015166997909546
1761397153645306000,9.13730615234375,12.579981803894043,3.9061145782470703,-1.6440129280090332
1761397153664683000,9.15668310546875,7.8716325759887695,3.6962485313415527,1.763460636138916
1761397153684046300,9.17604638671875,2.1674985885620117,2.139535903930664,3.7001616954803467
1761397153703436500,9.1954365234375,-3.826681137084961,0.6136674880981445,2.7760159969329834
1761397153722813400,9.2148134765625,-7.599991798400879,-0.988166332244873,1.8246879577636719
1761397153742176800,9.2341767578125,-9.209216117858887,-2.9909098148345947,0.6193529367446899
1761397153761567000,9.25356689453125,-9.467612266540527,-5.143705368041992,0.29688704013824463
1761397153780944000,9.27294384765625,-9.149529457092285,-6.441625118255615,0.41715729236602783
1761397153800307200,9.29230712890625,-8.628788948059082,-7.212972640991211,0.0983102098107338
1761397153819697400,9.311697509765626,-8.998258590698242,-7.152105331420898,-0.6072406768798828
1761397153839074300,9.33107421875,-10.163553237915039,-6.83372163772583,-1.1224029064178467
1761397153858437600,9.350437744140624,-9.970555305480957,-5.6422200202941895,-2.1083908081054688
1761397153877827800,9.369827880859376,-7.073843002319336,-4.244841575622559,-2.511556386947632
1761397153897204700,9.389204833984374,-1.5051937103271484,-1.7217082977294922,-1.7784863710403442
1761397153916568000,9.408568115234376,3.794515609741211,1.9225845336914062,-1.8067777156829834
1761397153935958300,9.427958251953125,9.079157829284668,3.524294376373291,-1.1275466680526733
1761397153955335200,9.447335205078126,13.19714069366455,2.9390969276428223,-0.4658442735671997
1761397153974698500,9.466698486328125,15.785850524902344,1.4405460357666016,2.2663562297821045
1761397153994088700,9.486088623046875,18.166744232177734,1.1125726699829102,2.0153067111968994
1761397154013465600,9.505465576171876,16.994712829589844,2.2605905532836914,-1.1914912462234497
1761397154032829000,9.524828857421875,10.902510643005371,2.808302402496338,-0.6337214708328247
1761397154052219100,9.54421923828125,3.897149085998535,2.7535457611083984,2.1595568656921387
1761397154071596000,9.563595947265625,-1.8131113052368164,2.107189655303955,2.8606486320495605
1761397154090959400,9.58295947265625,-6.218954086303711,1.329206943511963,2.511108636856079
1761397154110349600,9.602349609375,-8.956459045410156,0.18282794952392578,2.5520896911621094
1761397154129726500,9.6217265625,-9.423724174499512,-0.9429707527160645,2.3778717517852783
1761397154149089800,9.64108984375,-9.605381965637207,-1.7890615463256836,1.8684154748916626
1761397154168480000,9.66047998046875,-9.62684154510498,-1.7753686904907227,0.007010787725448608
1761397154187857000,9.67985693359375,-8.653919219970703,-2.5249667167663574,0.029547318816184998
1761397154207233500,9.699233642578125,-8.104656219482422,-3.316180944442749,0.11200201511383057
1761397154226610400,9.7186103515625,-6.752598762512207,-2.9333980083465576,-2.1566269397735596
1761397154245987000,9.737987060546875,-6.308456897735596,-1.0684432983398438,-1.8008532524108887
1761397154265350700,9.7573505859375,-1.376680850982666,4.142607688903809,-0.9290306568145752
1761397154284740900,9.776740966796876,5.090479373931885,4.051718711853027,-0.9533761739730835
1761397154304117800,9.79611767578125,17.091487884521484,0.2782139778137207,3.09483003616333
1761397154323480800,9.815480712890626,22.797313690185547,-2.717524766921997,5.487425804138184
1761397154342871300,9.834871337890625,20.88142967224121,-0.775977611541748,-0.29822754859924316
1761397154362248200,9.854248291015624,11.898723602294922,-0.0681910514831543,-2.139286756515503
1761397154381611300,9.873611328125,4.581878662109375,0.6248950958251953,-1.1679891347885132
1761397154401001700,9.893001708984375,-1.7918949127197266,0.4374575614929199,-1.0944974422454834
1761397154420378600,9.912378662109376,-6.556330680847168,-0.3396263122558594,-0.2365342676639557
1761397154439742000,9.931741943359375,-9.331111907958984,-1.6083669662475586,1.8302544355392456
1761397154459132200,9.951132080078125,-8.69708251953125,-3.8375508785247803,2.49743914604187
1761397154478508800,9.9705087890625,-6.924646377563477,-4.594185829162598,1.009184718132019
1761397154497872100,9.9898720703125,-4.706114292144775,-2.593719244003296,-1.104914665222168
1761397154517262600,10.0092626953125,-4.2817583084106445,-7.478858947753906,1.3048794269561768
1761397154536639200,10.02863916015625,-0.6225194931030273,-5.345862865447998,-0.2394159436225891
1761397154556002600,10.04800244140625,-0.4157118797302246,-4.689456462860107,-0.6069461703300476
1761397154575393000,10.06739306640625,-0.5126852989196777,-4.688985347747803,1.4056793451309204
1761397154594770000,10.08677001953125,-1.5685882568359375,-4.08167028427124,1.9585918188095093
1761397154614133000,10.106133056640624,-0.2739286422729492,-2.4886794090270996,0.2543058693408966
1761397154633523500,10.1255234375,1.4988150596618652,0.012965679168701172,-0.8459808230400085
1761397154652900000,10.144900146484375,0.8243327140808105,1.842257022857666,0.24534523487091064
1761397154672263400,10.164263427734374,3.4677624702453613,2.40883207321167,-0.56382155418396
1761397154691654000,10.18365380859375,6.98171329498291,2.756786346435547,-1.841241478919983
1761397154711030500,10.203030517578124,9.79336929321289,2.9691429138183594,-1.198681354522705
1761397154730393900,10.222393798828126,11.367155075073242,3.0076470375061035,-2.0150558948516846
1761397154749784300,10.241784423828125,8.811952590942383,3.2174673080444336,-3.264460563659668
1761397154769161000,10.261160888671874,5.320794582366943,2.9260149002075195,-0.8122949004173279
1761397154788524300,10.280524169921875,3.657762050628662,1.3346104621887207,2.4180145263671875
1761397154807914800,10.299914794921875,0.9367752075195312,-0.40610647201538086,3.1140387058258057
1761397154827291400,10.31929150390625,-2.5767693519592285,-2.092890739440918,2.841090440750122
1761397154846654700,10.33865478515625,-4.677800178527832,-3.3148722648620605,1.4839897155761719
1761397154866045200,10.358045166015625,-4.317770957946777,-3.960056781768799,0.28011101484298706
1761397154885421800,10.377421875,-3.109281539916992,-4.585930347442627,0.29026174545288086
1761397154904798700,10.396798828125,-2.8533284664154053,-4.9871368408203125,0.12308132648468018
1761397154924175600,10.416175537109375,-3.6983652114868164,-5.275536060333252,1.5472772121429443
1761397154943552300,10.43555224609375,-3.4620296955108643,-5.554028511047363,3.157832145690918
1761397154962915600,10.45491552734375,-2.6533007621765137,-5.1589741706848145,0.843265175819397
1761397154982306000,10.47430615234375,-2.833702325820923,-3.6540870666503906,-1.7798445224761963
1761397155001682700,10.4936826171875,-0.33239173889160156,-1.8746747970581055,-0.40477287769317627
1761397155021046000,10.5130458984375,0.17305946350097656,0.9486007690429688,-0.5105953216552734
1761397155040436500,10.5324365234375,-5.724608421325684,0.9634532928466797,-1.2138782739639282
