time,seconds_elapsed,z,y,x
1761397144638814200,0.130814208984375,-0.45798271894454956,-0.40483900904655457,0.09773556143045425
1761397144658191000,0.150191162109375,-0.48012593388557434,-0.41736137866973877,0.07146912813186646
1761397144677568000,0.169568115234375,-0.46134239435195923,-0.38910970091819763,0.054518118500709534
1761397144696944600,0.188944580078125,-0.4286620616912842,-0.3507790267467499,0.020463382825255394
1761397144716321500,0.208321533203125,-0.3692571818828583,-0.3762819170951843,-0.038483377546072006
1761397144735698200,0.2276982421875,-0.29656633734703064,-0.40483900904655457,-0.04550812020897865
1761397144755075000,0.247074951171875,-0.23960483074188232,-0.4017847776412964,0.023975754156708717
1761397144774452000,0.266451904296875,-0.19424942135810852,-0.46699273586273193,0.06490252166986465
1761397144793828900,0.285828857421875,-0.1635543555021286,-0.5100574493408203,0.08093725889921188
1761397144813205500,0.30520556640625,-0.12904147803783417,-0.4700469672679901,-0.005650337319821119
1761397144832582400,0.32458251953125,-0.10078980028629303,-0.3605526089668274,-0.11331216990947723
1761397144851959300,0.343959228515625,-0.1635543555021286,-0.3180987238883972,-0.11453386396169662
1761397144871336000,0.3633359375,-0.2680092453956604,-0.26694026589393616,-0.07482878863811493
1761397144890712800,0.382712890625,-0.31916770339012146,-0.24510246515274048,0.009009997360408306
1761397144910089500,0.40208935546875,-0.33352261781692505,-0.36192700266838074,0.11514470726251602
1761397144929466400,0.42146630859375,-0.3694098889827728,-0.38941511511802673,0.19531841576099396
1761397144948843300,0.44084326171875,-0.41766682267189026,-0.14767232537269592,0.266176700592041
1761397144968220200,0.46022021484375,-0.4821111857891083,0.028557108715176582,0.2980934679508209
1761397144987596800,0.4795966796875,-0.5263976454734802,0.0016798300202935934,0.27029991149902344
1761397145006973700,0.4989736328125,-0.5163186192512512,-0.2020377367734909,0.15087927877902985
1761397145026350600,0.5183505859375,-0.4500417113304138,-0.42927291989326477,0.09239064902067184
1761397145045727200,0.537727294921875,-0.3749074935913086,-0.5071559548377991,0.2160872220993042
1761397145065104100,0.557104248046875,-0.37506023049354553,-0.4665345847606659,0.2229592502117157
1761397145084480800,0.576480712890625,-0.411863774061203,-0.5380037426948547,0.09239064902067184
1761397145103857700,0.595857666015625,-0.4608842432498932,-0.7482879161834717,-0.06429167091846466
1761397145123234600,0.615234619140625,-0.5016583204269409,-0.8021951913833618,-0.14003673195838928
1761397145142611500,0.634611572265625,-0.37689274549484253,-0.45049986243247986,-0.005497625097632408
1761397145161988000,0.653988037109375,-0.12018419802188873,-0.16553960740566254,0.16538690030574799
1761397145181365000,0.673364990234375,0.04947862774133682,-0.11575555801391602,0.2476985603570938
1761397145200742000,0.692741943359375,0.17225892841815948,-0.5021164417266846,0.25289076566696167
1761397145220118500,0.712118408203125,0.23166382312774658,-1.2430741786956787,0.02641914412379265
1761397145239495400,0.731495361328125,0.23532891273498535,-1.6247010231018066,-0.3104631304740906
1761397145258872300,0.750872314453125,0.2680092453956604,-1.0602781772613525,-0.34604495763778687
1761397145278249000,0.7702490234375,0.07238540053367615,-0.33199548721313477,-0.3184041380882263
1761397145297625900,0.7896259765625,-0.21929416060447693,0.11529742181301117,-0.1960819661617279
1761397145317002800,0.809002685546875,-0.39979952573776245,0.5528167486190796,0.16630317270755768
1761397145336379400,0.82837939453125,-0.5770979523658752,0.9666658043861389,0.1178935244679451
1761397145355742700,0.84774267578125,-0.7307260632514954,0.6581879258155823,-0.6285618543624878
1761397145375133200,0.86713330078125,-0.6586460471153259,-0.728282630443573,-1.3238587379455566
1761397145394509800,0.886509765625,-0.3710896968841553,-1.5327684879302979,-1.5025315284729004
1761397145413886700,0.90588671875,-0.09452861547470093,-1.599503517150879,-1.2882769107818604
1761397145433263600,0.925263671875,-0.012980503961443901,-1.1566393375396729,-0.9057337641716003
1761397145452640300,0.94464013671875,-0.1301104724407196,-0.49081575870513916,-0.5587725043296814
1761397145472003600,0.964003662109375,-0.2238755226135254,0.23685602843761444,-0.3849864900112152
1761397145491393800,0.983393798828125,-0.14660334587097168,0.878703773021698,-0.4622586667537689
1761397145510770700,1.002770751953125,-0.008551862090826035,0.8386932611465454,-0.556939959526062
1761397145530134000,1.022134033203125,0.10827267915010452,0.44576579332351685,-0.5002838969230652
1761397145549524500,1.0415244140625,0.2289150059223175,-0.09575030952692032,-0.1835595965385437
1761397145568901000,1.060901123046875,0.45706647634506226,-0.6786513328552246,0.26067906618118286
1761397145588264400,1.080264404296875,0.4671454429626465,-1.170077919960022,0.5853443741798401
1761397145607655000,1.099655029296875,0.1823379099369049,-1.3168339729309082,0.6927008032798767
1761397145627031600,1.119031494140625,0.03298575058579445,-1.5355173349380493,0.6814001202583313
1761397145646395000,1.138394775390625,-0.025197450071573257,-1.2617050409317017,0.626882016658783
1761397145665785300,1.157785400390625,-0.09284878522157669,-0.2907632887363434,0.8670976758003235
1761397145685162000,1.177161865234375,-0.23105297982692719,0.0590994730591774,1.3933426141738892
1761397145704525300,1.196525390625,-0.51341712474823,0.11514470726251602,1.7965017557144165
1761397145723915800,1.215915771484375,-0.6620057225227356,0.30725616216659546,1.5585768222808838
1761397145743292400,1.23529248046875,-0.39140036702156067,0.42224815487861633,1.037218689918518
1761397145762669300,1.25466943359375,-0.05008947476744652,0.5100574493408203,0.5943543910980225
1761397145782046200,1.274046142578125,-0.026724567636847496,0.8000571727752686,0.4324798583984375
1761397145801422800,1.2934228515625,-0.1585148572921753,0.7901309132575989,0.38666632771492004
1761397145820786200,1.3127861328125,-0.13301199674606323,0.30221667885780334,0.18722468614578247
1761397145840176600,1.3321767578125,-0.08796200156211853,-0.030542362481355667,-0.1566823273897171
1761397145859553300,1.35155322265625,-0.11835165321826935,-0.09376505762338638,-0.5404471158981323
1761397145878916600,1.37091650390625,-0.2226538211107254,0.014049487188458443,-0.8243383765220642
1761397145898306800,1.390306884765625,-0.3252761662006378,0.2101314514875412,-0.8834378719329834
1761397145917683700,1.40968359375,-0.3411581814289093,0.12995775043964386,-0.6908682584762573
1761397145937060600,1.429060546875,-0.40697699785232544,0.10598199814558029,-0.33169007301330566
1761397145956437500,1.4484375,-0.5065450668334961,0.05008947476744652,0.0004581354442052543
1761397145975814100,1.467814208984375,-0.5870242118835449,-0.4831801950931549,0.08842013776302338
1761397145995191000,1.48719091796875,-0.6094728708267212,-0.8814526200294495,0.11300674080848694
1761397146014568000,1.50656787109375,-0.5657972693443298,-0.7685985565185547,0.32100024819374084
1761397146033944600,1.525944580078125,-0.5969504714012146,-0.3617742955684662,0.42362257838249207
1761397146053321500,1.545321533203125,-0.50196373462677,0.20707722008228302,0.1429382562637329
1761397146072698000,1.564697998046875,-0.4931064546108246,0.37414395809173584,-0.22570806741714478
1761397146092075000,1.584074951171875,-0.362995982170105,0.5703786015510559,0.08002099394798279
1761397146111438300,1.603438232421875,0.0784938707947731,1.13800847530365,0.742026686668396
1761397146130828800,1.622828857421875,0.34222719073295593,0.7098045349121094,0.7751652002334595
1761397146150205400,1.642205322265625,0.2710634768009186,-0.698503851890564,0.11270131915807724
1761397146169568800,1.66156884765625,0.2501419484615326,-1.0294303894042969,-0.29916244745254517
1761397146188959200,1.680959228515625,0.4993676245212555,0.19363857805728912,-0.3570402264595032
1761397146208336000,1.7003359375,0.6036698222160339,1.1520578861236572,-0.39078953862190247
1761397146227699200,1.71969921875,0.6157340407371521,0.8496885299682617,-0.5540384650230408
1761397146247089700,1.739089599609375,0.5573981404304504,-0.012369656935334206,-0.89107346534729
1761397146266466300,1.75846630859375,0.5682406425476074,-0.6603258848190308,-1.2270394563674927
1761397146285829600,1.77782958984375,0.5635066032409668,-0.9002361297607422,-1.521925926208496
1761397146305219800,1.7972197265625,0.4294256269931793,-0.9662076234817505,-1.69387948513031
1761397146324596700,1.8165966796875,0.26663482189178467,-0.6736118197441101,-1.6711254119873047
1761397146343960000,1.8359599609375,-0.10521844029426575,-0.13621893525123596,-1.1679399013519287
1761397146363350500,1.8553505859375,-0.36452311277389526,0.23258009552955627,-0.46867257356643677
1761397146382727200,1.87472705078125,-0.19745637476444244,0.36879903078079224,-0.014813045971095562
1761397146402090500,1.894090576171875,0.18691925704479218,0.3805578351020813,0.3061871826648712
1761397146421481000,1.91348095703125,0.5909947156906128,0.3605526089668274,0.6267293095588684
1761397146440857600,1.932857666015625,0.7566870450973511,0.3164188861846924,0.8719844818115234
1761397146460221000,1.952220947265625,0.8075400590896606,-0.256708562374115,0.8753440976142883
1761397146479611100,1.971611083984375,0.6937697529792786,-0.8922951221466064,0.4503471553325653
1761397146498988000,1.990988037109375,0.6844543814659119,-1.0518789291381836,-0.6236750483512878
1761397146518351400,2.010351318359375,0.9400939345359802,-0.6412369012832642,-1.2226108312606812
1761397146537741600,2.029741455078125,1.473821759223938,-0.03023693896830082,-1.2213890552520752
1761397146557118500,2.049118408203125,1.5756804943084717,-1.1088404655456543,-1.6424155235290527
1761397146576481800,2.068481689453125,1.5656014680862427,-2.4600346088409424,-1.6469969749450684
1761397146595872300,2.087872314453125,1.434574842453003,-1.6876182556152344,-0.2279987335205078
1761397146615249000,2.107248779296875,1.155417561531067,0.358720064163208,1.5773603916168213
1761397146634612200,2.1266123046875,1.1202938556671143,1.4141113758087158,1.7751221656799316
1761397146654002700,2.146002685546875,0.8935168385505676,1.0787562131881714,0.790436327457428
1761397146673379300,2.16537939453125,0.5192201733589172,0.17149536311626434,-0.1582094430923462
1761397146692742700,2.18474267578125,0.45737189054489136,-0.1966928243637085,-0.24097923934459686
1761397146712132900,2.2041328125,0.4888305068016052,-0.27717193961143494,0.21746163070201874
1761397146731509800,2.223509765625,0.24220094084739685,-0.45920443534851074,0.6522321701049805
1761397146750873000,2.242873046875,-0.16340164840221405,-0.6418477296829224,0.8680139780044556
1761397146770263300,2.26226318359375,-0.4506525695323944,-0.6539120078086853,1.0744802951812744
1761397146789640200,2.28164013671875,-0.6175665855407715,-0.36727190017700195,1.3241641521453857
1761397146809003500,2.30100341796875,-0.679872989654541,0.06810946762561798,1.4332003593444824
1761397146828393700,2.320393798828125,-0.5723638534545898,0.4077405333518982,1.2791141271591187
1761397146847770600,2.3397705078125,-0.4474456310272217,0.35200074315071106,0.8412894010543823
1761397146867147500,2.3591474609375,-0.41705596446990967,-0.17256435751914978,0.12797249853610992
1761397146886524200,2.378524169921875,-0.43202173709869385,-0.717440128326416,-0.7922688722610474
1761397146905901000,2.397901123046875,-0.4366030693054199,-1.0008732080459595,-1.29163658618927
1761397146925264400,2.417264404296875,-0.4497362971305847,-0.16111096739768982,-0.9112313985824585
1761397146944654600,2.436654541015625,-0.4682144224643707,0.7264500856399536,-0.5396835803985596
1761397146964031500,2.456031494140625,0.030542362481355667,0.27029991149902344,-0.6960604786872864
1761397146983394800,2.475394775390625,0.8548807501792908,-2.0869596004486084,-1.4157912731170654
1761397147002785000,2.494784912109375,0.833195686340332,-2.1312460899353027,-0.60825115442276
1761397147022162000,2.514161865234375,0.5541911721229553,0.8405258059501648,1.431673288345337
1761397147041525200,2.533525146484375,1.0042328834533691,2.394826650619507,2.23356294631958
1761397147060915500,2.55291552734375,1.1467130184173584,1.864305853843689,1.5793455839157104
1761397147080292400,2.572292236328125,0.5899257659912109,0.4680617153644562,0.15775130689144135
1761397147099655700,2.59165576171875,0.18997350335121155,0.04337015375494957,-1.2478082180023193
1761397147119046000,2.6110458984375,0.12797249853610992,0.5577035546302795,-1.987238883972168
1761397147138422800,2.6304228515625,0.11774080991744995,0.9405520558357239,-2.0409934520721436
1761397147157786000,2.6497861328125,0.02626643143594265,0.9982771277427673,-1.4790139198303223
1761397147177176300,2.66917626953125,-0.03023693896830082,0.8472451567649841,-0.5476245880126953
1761397147196553200,2.68855322265625,0.0847550556063652,0.5732801556587219,0.37047886848449707
1761397147215916500,2.70791650390625,0.22631891071796417,0.24586601555347443,0.9628480076789856
1761397147235306800,2.727306640625,0.10308047384023666,-0.27350685000419617,1.0998305082321167
1761397147254683600,2.74668359375,-0.15454435348510742,-0.7237012982368469,0.8984035849571228
1761397147274060500,2.766060546875,-0.4372139275074005,-0.7455390691757202,0.5166240930557251
1761397147293437200,2.785437255859375,-0.4737120568752289,-0.3843756318092346,0.27686652541160583
1761397147312814000,2.80481396484375,-0.23502348363399506,-0.20936790108680725,0.1238492801785469
1761397147332177400,2.824177490234375,-0.1507265567779541,-0.2489202618598938,-0.009009997360408306
1761397147351567600,2.843567626953125,-0.27915719151496887,0.025961007922887802,0.40712970495224
1761397147370944500,2.862944580078125,-0.09956810623407364,0.43858832120895386,1.2235270738601685
1761397147390307800,2.882307861328125,0.2420482337474823,-0.26968905329704285,0.903901219367981
1761397147409698000,2.901697998046875,0.35291701555252075,-0.7287407517433167,-0.3223746418952942
1761397147429075000,2.921074951171875,0.011147962883114815,0.744928240776062,-0.5628957748413086
1761397147448438300,2.940438232421875,-0.12018419802188873,2.066038131713867,0.26602399349212646
1761397147467828500,2.959828369140625,-0.016798298805952072,1.844300627708435,0.6716265678405762
1761397147487205400,2.979205322265625,-0.0656660795211792,0.9243646264076233,0.2939702570438385
1761397147506568700,2.998568603515625,-0.2843494117259979,0.48760882019996643,-0.46546560525894165
1761397147525959000,3.017958984375,-0.3242071866989136,0.6584933400154114,-0.9530744552612305
1761397147545335800,3.037335693359375,-0.3555130958557129,0.7456917762756348,-1.0045382976531982
1761397147564699100,3.05669921875,-0.44423866271972656,0.351542592048645,-0.8063184022903442
1761397147584089300,3.07608935546875,-0.37567105889320374,-0.3852919042110443,-0.3443651497364044
1761397147603466200,3.09546630859375,-0.15484978258609772,-1.155417561531067,0.4014793634414673
1761397147622829600,3.11482958984375,0.0390942245721817,-1.3875395059585571,1.197871446609497
1761397147642219800,3.1342197265625,-0.1910424828529358,-1.172979474067688,1.6440954208374023
1761397147661596700,3.1535966796875,-0.7757760286331177,-1.2129899263381958,1.4622156620025635
1761397147680960000,3.1729599609375,-1.2780451774597168,-1.3127107620239258,0.7689039707183838
1761397147700350200,3.19235009765625,-1.374406337738037,-0.7533273696899414,0.23593975603580475
1761397147719727000,3.21172705078125,-1.394411563873291,-0.05665608495473862,0.4312581717967987
1761397147739090400,3.23109033203125,-1.3310362100601196,0.024586603045463562,1.3611204624176025
1761397147758480600,3.250480712890625,-1.1219737529754639,-1.385554313659668,1.7858120203018188
1761397147777857500,3.269857421875,-1.2085613012313843,-3.3022403717041016,0.6172611713409424
1761397147797220900,3.289220947265625,-1.2780451774597168,-1.8007776737213135,-0.41323816776275635
1761397147816611000,3.308611083984375,-0.6277982592582703,1.3197355270385742,-0.12216944992542267
1761397147835988000,3.327988037109375,0.27411770820617676,2.079782247543335,0.5412106513977051
1761397147855351300,3.347351318359375,0.43018919229507446,0.9344435930252075,0.778982937335968
1761397147874741500,3.366741455078125,-0.06444438546895981,0.17531315982341766,0.5158604979515076
1761397147894118400,3.386118408203125,-0.17271706461906433,0.2473931461572647,-0.20738264918327332
1761397147913481700,3.405481689453125,0.05070032179355621,0.7099572420120239,-0.8174663186073303
1761397147932872000,3.424871826171875,0.0656660795211792,0.9054283499717712,-0.9428427219390869
1761397147952248800,3.444248779296875,-0.15316994488239288,0.5448757410049438,-0.7214106321334839
1761397147971625500,3.46362548828125,-0.2883199155330658,0.15652960538864136,-0.29946786165237427
1761397147991002400,3.48300244140625,-0.33031564950942993,0.2510582208633423,0.020463382825255394
1761397148010379300,3.502379150390625,-0.4622586667537689,0.5268557667732239,0.18310146033763885
1761397148029756000,3.521755859375,-0.5627430081367493,0.6629219651222229,0.483485609292984
1761397148049132800,3.5411328125,-0.640626072883606,0.5007420182228088,0.8246437907218933
1761397148068509700,3.560509765625,-0.6352811455726624,0.15866757929325104,0.9379559755325317
1761397148087873000,3.579873046875,-0.4981459379196167,-0.15454435348510742,0.8380824327468872
1761397148107263200,3.59926318359375,-0.27197974920272827,0.07482878863811493,0.9619317054748535
1761397148126640000,3.61864013671875,-0.06856760382652283,0.402395635843277,1.1019684076309204
1761397148146003500,3.63800341796875,-0.20432840287685394,-0.323596328496933,0.284654825925827
1761397148165393700,3.6573935546875,-0.4312581717967987,-1.9383710622787476,-1.3803620338439941
1761397148184770600,3.6767705078125,-0.32726141810417175,-1.4614521265029907,-1.9269176721572876
1761397148204133600,3.696133544921875,0.222042977809906,0.6525375843048096,-0.8060129284858704
1761397148223524000,3.715524169921875,0.6852179169654846,1.1274713277816772,0.25655585527420044
1761397148242901000,3.73490087890625,0.8330429196357727,0.21349111199378967,0.6430694460868835
1761397148262264000,3.75426416015625,0.5464028716087341,-0.5789304971694946,0.7382088899612427
1761397148281654500,3.773654541015625,0.04153761267662048,-0.6594096422195435,0.3268032968044281
1761397148301031400,3.793031494140625,-0.10934165865182877,0.08689302206039429,-0.517998456954956
1761397148320394800,3.812394775390625,0.013744063675403595,0.8994725942611694,-1.2450593709945679
1761397148339785000,3.831784912109375,0.19959434866905212,1.0705097913742065,-1.391510009765625
1761397148359161600,3.85116162109375,0.2211267054080963,0.7429429888725281,-1.00224769115448
1761397148378525200,3.870525146484375,0.027946261689066887,0.18432316184043884,-0.3958290219306946
1761397148397915400,3.889915283203125,-0.1776038408279419,-0.23410721123218536,0.1626380831003189
1761397148417292000,3.9092919921875,-0.27717193961143494,-0.38223767280578613,0.5746545791625977
1761397148436655400,3.9286552734375,-0.3309265077114105,-0.4492781460285187,0.7012526392936707
1761397148456045800,3.9480458984375,-0.3802524209022522,-0.8199097514152527,0.3038965165615082
1761397148475422700,3.967422607421875,-0.2539597451686859,-1.2377293109893799,-0.3521534502506256
1761397148494785800,3.986785888671875,0.11682453751564026,-0.9910996556282043,-0.677582323551178
1761397148514176300,4.00617626953125,0.8182299137115479,-0.7285880446434021,-0.8006680607795715
1761397148533553200,4.02555322265625,1.3521103858947754,-2.6333625316619873,-2.2002718448638916
1761397148552916200,4.044916259765625,0.4077405333518982,-3.6232404708862305,-4.087790012359619
1761397148572306700,4.064306640625,-0.48928865790367126,0.6200099587440491,-2.5001978874206543
1761397148591683300,4.083683349609375,0.05390727147459984,3.7017343044281006,0.7047650218009949
1761397148611046700,4.103046630859375,0.49524441361427307,2.7845473289489746,2.4583547115325928
1761397148630437000,4.12243701171875,0.06413896381855011,0.6636855602264404,2.4145264625549316
1761397148649813800,4.141813720703125,0.0328330397605896,-0.3692571818828583,1.0940274000167847
1761397148669177000,4.161177001953125,0.42163732647895813,-0.04016320779919624,-0.025961007922887802
1761397148688567600,4.180567626953125,0.31947311758995056,0.5212054252624512,-0.21440738439559937
1761397148707944200,4.199944091796875,-0.13362284004688263,0.6258130073547363,-0.038636088371276855
1761397148727307500,4.2193076171875,-0.4140017330646515,0.5714476108551025,0.12003148347139359
1761397148746698000,4.238697998046875,-0.43645036220550537,0.5325061082839966,0.21242213249206543
1761397148766074600,4.25807470703125,-0.3239017724990845,0.41705596446990967,0.23303823173046112
1761397148785438000,4.27743798828125,-0.12965233623981476,0.30282753705978394,0.07009471952915192
1761397148804828400,4.296828369140625,-0.04856235533952713,0.38910970091819763,0.030542362481355667
1761397148824205000,4.316205078125,-0.059710320085287094,0.6817055344581604,0.30252209305763245
1761397148843582000,4.33558203125,-0.026724567636847496,0.5998520255088806,0.5047125220298767
1761397148862958800,4.354958740234375,-0.06139015033841133,0.02229592576622963,0.30908870697021484
1761397148882335500,4.37433544921875,0.04199574887752533,-0.02489202655851841,0.059710320085287094
1761397148901698800,4.39369873046875,0.4575245976448059,0.15897299349308014,-0.1782146841287613
1761397148921089300,4.41308935546875,1.1957335472106934,-0.18310146033763885,-1.0408837795257568
1761397148940466000,4.4324658203125,1.5123051404953003,-1.1859599351882935,-2.1478917598724365
1761397148959829200,4.451829345703125,0.8061656951904297,-1.9119518995285034,-2.154916524887085
1761397148979219700,4.4712197265625,-0.2892361879348755,-0.050547610968351364,-1.091889500617981
1761397148998596400,4.490596435546875,-0.4512633979320526,2.1220834255218506,0.24754585325717926
1761397149017959700,4.509959716796875,0.13056860864162445,2.0993292331695557,0.7209524512290955
1761397149037350000,4.529349853515625,0.6800256967544556,0.5297572612762451,0.5015056133270264
1761397149056726800,4.548726806640625,0.8344173431396484,-0.7085828185081482,-0.1629435122013092
1761397149076090000,4.568090087890625,0.7849387526512146,-1.1477819681167603,-0.878703773021698
1761397149095480300,4.587480224609375,0.5769452452659607,-0.8913788795471191,-1.2849172353744507
1761397149114857200,4.606857177734375,0.21791976690292358,-0.4124746024608612,-1.5455962419509888
1761397149134220500,4.626220458984375,-0.19272230565547943,0.3170297145843506,-1.12823486328125
1761397149153611000,4.645611083984375,-0.1829487532377243,0.6554391384124756,-0.37292224168777466
1761397149172987600,4.664987548828125,0.06490252166986465,0.46760356426239014,0.06673506647348404
1761397149192351000,4.68435107421875,0.07834116369485855,0.04581354558467865,0.29916244745254517
1761397149211741200,4.7037412109375,-0.0794101431965828,-0.21058958768844604,0.5871769189834595
1761397149231118000,4.7231181640625,-0.22631891071796417,-0.25777754187583923,0.6945333480834961
1761397149250495000,4.742494873046875,-0.2654131352901459,-0.04031591862440109,0.5474718809127808
1761397149269871600,4.76187158203125,-0.18600298464298248,0.12140589207410812,0.47890424728393555
1761397149289248500,4.78124853515625,-0.282364159822464,-0.06978929787874222,0.4453076422214508
1761397149308611800,4.80061181640625,-0.4234698712825775,-0.2360924631357193,0.197609081864357
1761397149328002000,4.820001953125,-0.27350685000419617,-0.35826191306114197,-0.08338065445423126
1761397149347379000,4.83937890625,0.007024743594229221,-0.16156910359859467,-0.024128466844558716
1761397149366742300,4.8587421875,0.07238540053367615,-0.06261184066534042,0.08826743066310883
1761397149386132500,4.878132568359375,0.1313321590423584,-0.0716218426823616,0.2786990702152252
1761397149405509400,4.89750927734375,0.305576354265213,-0.05375456064939499,0.3892624080181122
1761397149424872700,4.916872802734375,0.5318952798843384,0.010078979656100273,0.1423274129629135
1761397149444263000,4.936262939453125,0.6113054156303406,0.05085303261876106,-0.2725905776023865
1761397149463639800,4.955639892578125,0.4709632396697998,0.10491301864385605,-0.5774033665657043
1761397149483003100,4.975003173828125,0.2151709496974945,0.429883748292923,-0.8562551736831665
1761397149502393300,4.994393310546875,0.05665608495473862,0.8115105628967285,-1.1312891244888306
1761397149521770200,5.013770263671875,0.04749337583780289,0.8428165316581726,-1.249793529510498
1761397149541133600,5.033133544921875,-0.05741964280605316,0.5351021885871887,-1.1173923015594482
1761397149560523800,5.052523681640625,-0.12400199472904205,0.08872556686401367,-0.7707365155220032
1761397149579900700,5.071900634765625,-0.2154763638973236,-0.2414373755455017,-0.15057384967803955
1761397149599264000,5.091263916015625,-0.3545968234539032,-0.6734591126441956,0.7669187188148499
1761397149618654200,5.110654296875,-0.5853443741798401,-1.3760861158370972,2.0037317276000977
1761397149638031000,5.130031005859375,-1.101052165031433,-1.832847237586975,3.0698130130767822
1761397149657394400,5.14939453125,-1.7810778617858887,-1.3114891052246094,2.8216562271118164
1761397149676784600,5.16878466796875,-1.4324368238449097,-0.3943018913269043,1.4046432971954346
1761397149696161500,5.18816162109375,-0.851215660572052,0.2874036431312561,0.6485670804977417
1761397149715524900,5.20752490234375,-1.1441168785095215,0.32634514570236206,1.178935170173645
1761397149734915000,5.2269150390625,-1.1494618654251099,-0.1782146841287613,1.411973476409912
1761397149754292000,5.2462919921875,-0.3142809271812439,-1.7444270849227905,0.1513374149799347
1761397149773655300,5.2656552734375,-0.15179555118083954,-1.875759243965149,-1.1230427026748657
1761397149793045500,5.28504541015625,-0.8156337738037109,0.1710372269153595,-0.6250494718551636
1761397149812422400,5.30442236328125,-1.1355650424957275,1.7244218587875366,0.8657232522964478
1761397149831785700,5.32378564453125,-0.5445703268051147,1.256971001625061,1.0468394756317139
1761397149851176000,5.343176025390625,-0.22341738641262054,-0.13973131775856018,0.4214846193790436
1761397149870552800,5.362552734375,-0.2585411071777344,-1.1900831460952759,-0.5312843918800354
1761397149889916200,5.381916259765625,-0.3208475112915039,-0.980715274810791,-1.3160704374313354
1761397149909306400,5.401306396484375,-0.3823903799057007,0.05604523420333862,-1.468324065208435
1761397149928683300,5.420683349609375,-0.5972558856010437,0.5415160655975342,-1.0584455728530884
1761397149948046600,5.440046630859375,-0.7832589149475098,0.4065188467502594,-0.4683671295642853
1761397149967436800,5.459436767578125,-0.8515210747718811,-0.1563768982887268,0.060932014137506485
1761397149986813700,5.478813720703125,-0.710262656211853,-0.760962963104248,0.3611634373664856
1761397150006177000,5.498177001953125,-0.32634514570236206,-0.8867974877357483,0.45950984954833984
1761397150025567200,5.517567138671875,-0.16599774360656738,-0.775317907333374,0.32970482110977173
1761397150044944100,5.536944091796875,-0.3348970115184784,-0.7178982496261597,0.04840964451432228
1761397150064307500,5.556307373046875,-0.376740038394928,-0.7214106321334839,-0.18905723094940186
1761397150083697700,5.57569775390625,-0.18142163753509521,-0.6694886088371277,-0.12400199472904205
1761397150103074600,5.595074462890625,-0.08170082420110703,-0.365286648273468,0.487761527299881
1761397150122438000,5.61443798828125,-0.2301367074251175,-0.7759287357330322,1.1893196105957031
1761397150141828000,5.633828125,-0.5610632300376892,-2.7494235038757324,0.4975350797176361
1761397150161205000,5.653205078125,-0.6375718116760254,-2.285485029220581,-0.9772028923034668
1761397150180568000,5.672568115234375,-0.7010999321937561,0.6952968835830688,-1.543152928352356
1761397150199958500,5.69195849609375,-0.4253024160861969,1.637681484222412,-0.8128849864006042
1761397150219335400,5.71133544921875,0.05344913527369499,0.30985227227211,-0.05925218388438225
1761397150238698500,5.730698486328125,0.4691306948661804,-0.36788275837898254,0.0016798300202935934
1761397150258089000,5.7500888671875,0.7375980615615845,0.08170082420110703,-0.266176700592041
1761397150277465900,5.7694658203125,0.6759024858474731,0.44576579332351685,-0.47142136096954346
1761397150296829000,5.788828857421875,0.44790375232696533,0.4146125912666321,-0.4434750974178314
1761397150316219400,5.808219482421875,0.3843756318092346,0.11942064017057419,-0.18585027754306793
1761397150335596000,5.827595947265625,0.6241331696510315,-0.2848075330257416,0.26724568009376526
1761397150354959400,5.84695947265625,0.8144121170043945,-0.4390464723110199,0.7279772162437439
1761397150374349800,5.866349853515625,0.6209262609481812,-0.3811686933040619,1.0456178188323975
1761397150393726500,5.8857265625,0.27197974920272827,-0.24724042415618896,1.1813786029815674
1761397150413103400,5.905103271484375,0.05619794875383377,-0.01435491070151329,1.2756017446517944
1761397150432480300,5.924480224609375,-0.04810422286391258,0.09727742522954941,1.3108782768249512
1761397150451857000,5.94385693359375,-0.12354385852813721,0.26694026589393616,1.3388245105743408
1761397150471220200,5.96322021484375,-0.2651077210903168,0.4943281412124634,1.5484977960586548
1761397150490610700,5.982610595703125,-0.2432699203491211,0.2545706033706665,1.6726524829864502
1761397150509987300,6.0019873046875,-0.10124793648719788,-0.5468609929084778,1.2126845121383667
1761397150529350700,6.0213505859375,-0.4556920528411865,-1.6179816722869873,-0.22708246111869812
1761397150548741000,6.0407412109375,-1.243685007095337,-0.7105680704116821,-1.505585789680481
1761397150568117800,6.06011767578125,-1.6610463857650757,1.4512203931808472,-1.4561071395874023
1761397150587481000,6.079481201171875,-1.3647854328155518,2.0113673210144043,-0.5610632300376892
1761397150606871600,6.09887158203125,-0.7896727919578552,0.742637574672699,-0.22433365881443024
1761397150626248200,6.118248291015625,-0.6090146899223328,-0.28786176443099976,-0.3626905679702759
1761397150645611500,6.137611572265625,-0.5169295072555542,-0.0462716780602932,-0.7930324673652649
1761397150665002000,6.157001953125,-0.41797223687171936,0.6606312990188599,-1.3405042886734009
1761397150684378600,6.176378662109375,-0.28098973631858826,0.8896990418434143,-1.6407357454299927
1761397150703742000,6.195741943359375,-0.07803573459386826,0.6997255086898804,-1.468018651008606
1761397150723132400,6.21513232421875,0.11346487700939178,0.45477578043937683,-0.9759812355041504
1761397150742509000,6.234509033203125,0.37857258319854736,0.2667875289916992,-0.5245651006698608
1761397150761886000,6.253885986328125,0.5041016936302185,0.09834641218185425,-0.06887302547693253
1761397150781262800,6.273262939453125,0.5790832042694092,-0.10338589549064636,0.4546230733394623
1761397150800639500,6.292639404296875,0.5570927262306213,-0.17317520081996918,0.8599202036857605
1761397150820016400,6.312016357421875,0.39323291182518005,-0.16492876410484314,0.9423846006393433
1761397150839393300,6.331393310546875,0.16279079020023346,-0.05497625470161438,0.8941276669502258
1761397150858770000,6.35077001953125,0.10674555599689484,0.41736137866973877,1.0279031991958618
1761397150878133200,6.37013330078125,0.21562908589839935,0.5299099683761597,1.295912504196167
1761397150897523700,6.389523681640625,0.27747735381126404,0.0198525357991457,1.4527474641799927
1761397150916900400,6.408900390625,0.22372281551361084,-1.1178505420684814,0.9782719016075134
1761397150936263700,6.428263671875,0.2176143378019333,-1.8432315587997437,-0.677582323551178
1761397150955654100,6.447654052734375,-0.032222192734479904,0.10964708030223846,-1.439461588859558
1761397150975030800,6.46703076171875,-0.020310672000050545,2.059471607208252,-0.1044548824429512
1761397150994394000,6.48639404296875,0.388651579618454,0.9956810474395752,1.2131426334381104
1761397151013784300,6.505784423828125,0.697892963886261,-0.6682668924331665,1.606986403465271
1761397151033161200,6.5251611328125,0.5256340503692627,-0.7049177289009094,0.8312104344367981
1761397151052524500,6.544524658203125,0.2985515892505646,0.3915531039237976,-0.6835380792617798
1761397151071914800,6.563914794921875,0.059557609260082245,0.9978190064430237,-1.730224847793579
1761397151091291600,6.583291748046875,-0.10521844029426575,0.9602518677711487,-1.8059699535369873
1761397151110655000,6.602655029296875,-0.05131116881966591,0.556939959526062,-1.0766183137893677
1761397151130045200,6.622045166015625,0.16095824539661407,0.19287502765655518,0.0462716780602932
1761397151149422000,6.641422119140625,0.20967331528663635,-0.020616095513105392,1.0004150867462158
1761397151168785400,6.660785400390625,-0.03649812191724777,-0.14690876007080078,1.3942588567733765
1761397151188175600,6.680175537109375,-0.31504446268081665,-0.1769929975271225,1.162900447845459
1761397151207552500,6.699552490234375,-0.4127800464630127,0.017714571207761765,0.7230904698371887
1761397151226915800,6.718915771484375,-0.46424391865730286,-0.03649812191724777,0.3692571818828583
1761397151246306000,6.73830615234375,-0.41323816776275635,-0.3695625960826874,0.15515519678592682
1761397151265683000,6.757682861328125,-0.22754059731960297,-0.346808522939682,0.09040539711713791
1761397151285046300,6.77704638671875,-0.14278554916381836,-0.19715094566345215,0.390942245721817
1761397151304436500,6.7964365234375,-0.13530266284942627,-0.5986303091049194,0.791047215461731
1761397151323813400,6.8158134765625,-0.0978882759809494,-1.5197880268096924,-0.09177979826927185
1761397151343176700,6.8351767578125,-0.1375933438539505,-1.023932695388794,-1.6847167015075684
1761397151362567000,6.85456689453125,-0.20616094768047333,0.49081575870513916,-2.241503953933716
1761397151381943800,6.87394384765625,-0.20463383197784424,1.0541696548461914,-1.5985872745513916
1761397151401320700,6.89332080078125,0.145687073469162,0.47417017817497253,-0.4480564594268799
1761397151420697300,6.912697265625,0.16172181069850922,-0.33978378772735596,0.3232909142971039
1761397151440074200,6.93207421875,-0.23319093883037567,-0.5856497883796692,0.32313820719718933
1761397151459437600,6.9514375,-0.33031564950942993,-0.09269607067108154,-0.2414373755455017
1761397151478827800,6.970827880859375,-0.08551861345767975,0.5099047422409058,-0.9407047629356384
1761397151498204700,6.99020458984375,0.06642963737249374,0.6966713070869446,-1.4009782075881958
1761397151517568000,7.009568115234375,0.1516428291797638,0.830294132232666,-1.4820681810379028
1761397151536958200,7.028958251953125,0.1122431829571724,1.006829023361206,-1.6274497509002686
1761397151556335000,7.048335205078125,0.04749337583780289,1.1964970827102661,-1.8881288766860962
1761397151575698400,7.067698486328125,0.3443651497364044,1.4402251243591309,-1.8334580659866333
1761397151595088600,7.087088623046875,0.7511894106864929,1.3357702493667603,-1.6104987859725952
1761397151614465500,7.106465576171875,1.0491302013397217,0.7458444833755493,-1.5492613315582275
1761397151633828900,7.125828857421875,1.2100883722305298,0.3384093940258026,-1.591257095336914
1761397151653219000,7.145218994140625,1.4632846117019653,0.24571330845355988,-1.6323366165161133
1761397151672596000,7.164595947265625,1.7641268968582153,-0.6360446810722351,-1.4043378829956055
1761397151691959300,7.183959228515625,2.080393075942993,-2.3943686485290527,-1.2287192344665527
1761397151711349500,7.203349609375,2.024653196334839,-4.195756912231445,-2.438960313796997
1761397151730726400,7.222726318359375,1.625922679901123,-2.609844923019409,-3.596210479736328
1761397151750089700,7.24208984375,0.9184088706970215,0.9194778203964233,-2.0197665691375732
1761397151769480000,7.26147998046875,0.7660024762153625,0.9744541049003601,0.2770192325115204
1761397151788856800,7.28085693359375,1.2131426334381104,-0.037261683493852615,1.858502745628357
1761397151808220200,7.30022021484375,1.166107416152954,-0.09773556143045425,2.471029758453369
1761397151827610400,7.3196103515625,0.73255854845047,0.38910970091819763,1.654632568359375
1761397151846987300,7.3389873046875,0.3975088596343994,0.81425940990448,0.6143596172332764
1761397151866350600,7.3583505859375,0.1107160672545433,1.0387457609176636,0.4752391576766968
1761397151885740800,7.37774072265625,-0.1107160672545433,1.0825740098953247,0.968956470489502
1761397151905117700,7.39711767578125,-0.2898470163345337,0.9926267862319946,1.3406569957733154
1761397151924481000,7.41648095703125,-0.4674508571624756,1.0028585195541382,1.2496408224105835
1761397151943871200,7.435871337890625,-0.6401679515838623,1.0558494329452515,0.9165763258934021
1761397151963248000,7.455248046875,-0.7715001106262207,0.8542698621749878,0.789061963558197
1761397151982624800,7.474624755859375,-0.9051229357719421,0.19211146235466003,0.9570449590682983
1761397152002001700,7.494001708984375,-1.058598279953003,-0.7429429888725281,1.0512681007385254
1761397152021378600,7.513378662109375,-1.09219491481781,-1.4177764654159546,0.8389987349510193
1761397152040742000,7.532741943359375,-0.8904625773429871,-1.6586030721664429,0.36849361658096313
1761397152060132000,7.552132080078125,-0.693617045879364,-1.7291558980941772,-0.016034740954637527
1761397152079509000,7.571509033203125,-0.6151232123374939,-1.3938007354736328,-0.28221142292022705
1761397152098872300,7.590872314453125,-0.34421244263648987,-1.4017417430877686,-1.2936217784881592
1761397152118262500,7.610262451171875,-0.41048935055732727,-2.635042428970337,-3.2678802013397217
1761397152137639400,7.629639404296875,-0.8200624585151672,-1.5032950639724731,-3.7887802124023438
1761397152157002500,7.64900244140625,-0.5193728804588318,1.654937982559204,-1.6205778121948242
1761397152176393000,7.66839306640625,0.7577560544013977,1.7679446935653687,1.2818629741668701
1761397152195769900,7.687769775390625,1.4554963111877441,-0.2211267054080963,3.427769422531128
1761397152215133000,7.7071328125,1.045770525932312,-1.4764177799224854,3.9587483406066895
1761397152234523400,7.7265234375,0.26846736669540405,-0.6708629727363586,2.441709280014038
1761397152253900300,7.745900390625,-0.5583143830299377,0.9266552925109863,0.30191126465797424
1761397152273263600,7.765263671875,-1.2084085941314697,1.6772338151931763,-0.916270911693573
1761397152292653800,7.78465380859375,-1.3721156120300293,1.6476078033447266,-0.9962918758392334
1761397152312030500,7.804030517578125,-1.082115888595581,1.158624529838562,-0.37704548239707947
1761397152331393800,7.823393798828125,-0.7120952010154724,0.5079194903373718,0.37887802720069885
1761397152350784300,7.8427841796875,-0.4960079789161682,-0.1507265567779541,0.8156337738037109
1761397152370161000,7.862160888671875,-0.31382277607917786,-0.5399889945983887,0.895349383354187
1761397152389524200,7.881524169921875,-0.030389651656150818,-0.8365553021430969,0.4575245976448059
1761397152408914700,7.900914794921875,0.3758237659931183,-1.3183610439300537,-0.19272230565547943
1761397152428291600,7.92029150390625,0.6974348425865173,-1.9849481582641602,-0.7401941418647766
1761397152447654700,7.939654541015625,0.6119162440299988,-2.2063803672790527,-1.6688346862792969
1761397152467045000,7.959045166015625,0.27152159810066223,-0.8431219458580017,-2.2048532962799072
1761397152486421800,7.978421875,0.9758284687995911,0.7759287357330322,-0.936581552028656
1761397152505785000,7.99778515625,2.0266385078430176,1.1691616773605347,0.08796200156211853
1761397152525175600,8.017175537109376,2.768359661102295,0.9249754548072815,0.24708771705627441
1761397152544552200,8.03655224609375,2.9284017086029053,0.6511631608009338,0.39796698093414307
1761397152563915500,8.05591552734375,2.636111259460449,0.6482616662979126,0.8509102463722229
1761397152583306000,8.075305908203125,2.0933735370635986,0.5946598052978516,0.9349017143249512
1761397152602682600,8.0946826171875,1.1531269550323486,0.5671716928482056,0.6276455521583557
1761397152622046000,8.1140458984375,0.27595025300979614,0.8064711093902588,0.21333840489387512
1761397152641436400,8.1334365234375,-0.23975755274295807,0.9084826111793518,0.00992626789957285
1761397152660813000,8.15281298828125,-0.5482354164123535,0.7640172243118286,0.025502873584628105
1761397152680176400,8.17217626953125,-0.6679614782333374,0.4553866386413574,0.45202696323394775
1761397152699566800,8.19156689453125,-0.6308525204658508,0.2898470163345337,0.8631271719932556
1761397152718943500,8.210943603515625,-0.5346440672874451,0.208298921585083,0.9562813639640808
1761397152738306800,8.230306884765625,-0.36971530318260193,-0.30908870697021484,0.5940489768981934
1761397152757697300,8.249697265625,-0.1963873952627182,-0.6617003083229065,0.007635590620338917
1761397152777074000,8.269073974609375,-0.22036315500736237,-1.056002140045166,-0.4897467792034149
1761397152796437200,8.288437255859375,-0.4874561131000519,-1.3395880460739136,-1.1685508489608765
1761397152815827700,8.30782763671875,-0.3970507085323334,-0.7760814428329468,-1.3195828199386597
1761397152835204400,8.327204345703125,0.19989976286888123,0.399952232837677,-0.16462333500385284
1761397152854567700,8.346567626953124,0.399952232837677,0.386208176612854,0.5867187976837158
1761397152873958100,8.365958251953124,-0.09361234307289124,0.661853015422821,0.6675033569335938
1761397152893334800,8.385334716796875,-0.6065713167190552,2.2720463275909424,1.0566130876541138
1761397152912698000,8.404697998046874,-0.45447036623954773,3.587506055831909,1.5278817415237427
1761397152932088300,8.42408837890625,-0.26312246918678284,2.9120616912841797,1.7772600650787354
1761397152951465200,8.44346533203125,-0.21929416060447693,1.1143381595611572,1.732515573501587
1761397152970828500,8.46282861328125,0.047798797488212585,-0.18569757044315338,1.4483188390731812
1761397152990218800,8.48221875,0.28373855352401733,-1.1057862043380737,0.9990406632423401
1761397153009595600,8.501595703125,0.05008947476744652,-0.9567395448684692,0.5958815217018127
1761397153028959000,8.520958984375,-0.41171106696128845,-0.06184828653931618,0.5160132050514221
1761397153048349200,8.54034912109375,-0.8379297256469727,0.3312319219112396,0.7365291118621826
1761397153067726000,8.55972607421875,-1.0024003982543945,0.07742489129304886,0.8168554902076721
1761397153087089400,8.57908935546875,-0.8968765139579773,-0.24494975805282593,0.6053496599197388
1761397153106479900,8.59847998046875,-0.7004891037940979,-0.8689302206039429,0.1241547018289566
1761397153125856500,8.6178564453125,-0.5373928546905518,-1.616760015487671,-0.5506787896156311
1761397153145219800,8.6372197265625,-0.3465031087398529,-2.1359801292419434,-1.2267340421676636
1761397153164610000,8.656610107421875,-0.1757712960243225,-2.3244266510009766,-1.429382562637329
1761397153183987000,8.675987060546875,-0.3127537965774536,-2.5011141300201416,-1.4124315977096558
1761397153203350300,8.695350341796875,-0.4243861436843872,-1.598434567451477,-0.7760814428329468
1761397153222740500,8.714740478515624,-0.4888305068016052,-1.424801230430603,-0.4563029110431671
1761397153242117400,8.734117431640625,-0.4367557764053345,-2.3155691623687744,-1.0549331903457642
1761397153261480700,8.753480712890624,-0.5024218559265137,-1.121057391166687,-1.2015365362167358
1761397153280871000,8.772870849609374,-0.26098448038101196,0.9793408513069153,-0.014049487188458443
1761397153300247800,8.792247802734375,0.13560809195041656,1.2027583122253418,1.3889139890670776
1761397153319611100,8.811611083984374,0.1256818175315857,0.33978378772735596,2.0096874237060547
1761397153339001300,8.83100146484375,-0.0978882759809494,-0.150421142578125,1.557660460472107
1761397153358378200,8.850378173828124,-0.1363716572523117,0.2011214643716812,0.49081575870513916
1761397153377741600,8.869741455078126,-0.3345915973186493,0.8612946271896362,-0.5832064151763916
1761397153397131800,8.8891318359375,-0.645207405090332,1.2670499086380005,-1.2235270738601685
1761397153416508700,8.9085087890625,-0.7634063363075256,1.2343696355819702,-1.260941505432129
1761397153435872000,8.9278720703125,-0.6311579346656799,0.7253811359405518,-0.7064448595046997
1761397153455262200,8.94726220703125,-0.36070531606674194,0.10277505218982697,0.19318044185638428
1761397153474639000,8.96663916015625,-0.07696675509214401,-0.39078953862190247,0.8617527484893799
1761397153494002400,8.98600244140625,-0.047951508313417435,-0.6882721781730652,0.6186355352401733
1761397153513392600,9.005392578125,-0.17622943222522736,-1.005301833152771,-0.5592306852340698
1761397153532769500,9.02476953125,-0.07971556484699249,-1.4289244413375854,-1.8300983905792236
1761397153552132900,9.0441328125,-0.024586603045463562,-1.1992459297180176,-2.592283010482788
1761397153571523000,9.063523193359375,-0.3545968234539032,-0.22616620361804962,-2.080393075942993
1761397153590900000,9.08289990234375,-0.7715001106262207,-0.5619794726371765,-0.6438329815864563
1761397153610263300,9.10226318359375,-0.5453338623046875,-0.8527427911758423,0.395218163728714
1761397153629653500,9.121653564453124,0.23716144263744354,-0.3536805510520935,0.5080721974372864
1761397153649030400,9.141030517578125,0.7994463443756104,-0.025961007922887802,0.30725616216659546
1761397153668393700,9.160393798828125,0.8499939441680908,0.04825693368911743,0.34070006012916565
1761397153687784000,9.179783935546874,0.46516019105911255,0.24632415175437927,0.5402944087982178
1761397153707160800,9.199160888671875,0.15897299349308014,0.6557445526123047,0.5497625470161438
1761397153726524200,9.218524169921874,-0.04443913698196411,1.1262496709823608,0.4020902216434479
1761397153745914400,9.237914306640626,-0.18585027754306793,1.3649382591247559,0.3310792148113251
1761397153765291300,9.257291259765625,-0.20493926107883453,1.3588297367095947,0.42392799258232117
1761397153784654600,9.276654541015626,-0.2742704153060913,1.0553913116455078,0.6678087711334229
1761397153804044800,9.296044921875,-0.32787227630615234,0.5178457498550415,1.0288194417953491
1761397153823421700,9.315421630859374,-0.3405473530292511,0.0261137206107378,1.336839199066162
1761397153842785000,9.334784912109376,-0.29839888215065,-0.12965233623981476,1.290109395980835
1761397153862175200,9.35417529296875,-0.21288026869297028,-0.5332696437835693,0.7087355256080627
1761397153881552100,9.37355224609375,0.04169032722711563,-1.2238324880599976,-0.15988926589488983
1761397153900915500,9.39291552734375,0.23991025984287262,-1.4014363288879395,-0.716829240322113
1761397153920305700,9.4123056640625,0.36223241686820984,-0.5642701387405396,-0.9671239256858826
1761397153939682600,9.4316826171875,0.4485146105289459,0.6247440576553345,-1.2855280637741089
1761397153959046000,9.4510458984375,0.4775298535823822,0.1563768982887268,-1.843995213508606
1761397153978436000,9.47043603515625,0.3968980014324188,-0.7689039707183838,-2.4722516536712646
1761397153997813000,9.48981298828125,0.44546034932136536,-0.10323318839073181,-2.1909563541412354
1761397154017176300,9.50917626953125,0.9393303990364075,0.9836167693138123,-1.0248489379882812
1761397154036566500,9.52856640625,1.2649120092391968,0.9402466416358948,0.03558185324072838
1761397154055943400,9.547943359375,0.9782719016075134,0.18691925704479218,0.6142069101333618
1761397154075306800,9.567306640625,0.4894413650035858,-0.43171629309654236,0.7966975569725037
1761397154094697000,9.586697021484374,0.20677179098129272,-0.20127417147159576,0.6843016147613525
1761397154114073900,9.606073974609375,-0.005803049076348543,0.4103366434574127,0.41293275356292725
1761397154133437200,9.625437255859374,-0.26495498418807983,0.5644228458404541,0.21394924819469452
1761397154152827400,9.644827392578126,-0.5239542126655579,0.5625903010368347,0.22845686972141266
1761397154172204300,9.664204345703125,-0.5740436911582947,0.531742513179779,0.4747810363769531
1761397154191581000,9.683580810546875,-0.6954495906829834,-0.32848310470581055,0.7678350210189819
1761397154210957800,9.702957763671876,-0.9932376146316528,-1.0512681007385254,0.9145910739898682
1761397154230334500,9.72233447265625,-0.8651124238967896,-1.2685770988464355,1.12655508518219
1761397154249698000,9.741697998046876,-0.3849864900112152,-0.6769714951515198,0.9339854717254639
1761397154269088300,9.761088134765625,-0.3530697226524353,-0.8393041491508484,-0.31229567527770996
1761397154288465200,9.780465087890626,-0.2017323076725006,-0.22784602642059326,-1.7879499197006226
1761397154307828200,9.799828125,-0.004581354558467865,0.984991192817688,-2.155221939086914
1761397154327218700,9.81921875,-0.7256865501403809,1.3177502155303955,-1.1303728818893433
1761397154346595600,9.838595703125,-0.9081771373748779,1.0401201248168945,0.617719292640686
1761397154365958700,9.857958740234375,-0.4414898455142975,0.7438592314720154,1.5846904516220093
1761397154385349000,9.87734912109375,-0.2032594233751297,0.5969504714012146,1.9008039236068726
1761397154404726000,9.89672607421875,-0.17622943222522736,-0.055892523378133774,1.8520889282226562
1761397154424089000,9.916089111328125,-0.21440738439559937,-0.9197832345962524,1.332257866859436
1761397154443479600,9.9354794921875,-0.381474107503891,-1.182905673980713,0.518609344959259
1761397154462856200,9.954856201171875,-0.5803049206733704,-0.7175928354263306,-0.2411319613456726
1761397154482219500,9.974219482421875,-0.5821374654769897,-0.19027891755104065,-0.6578825116157532
1761397154501610000,9.99360986328125,-0.20738264918327332,0.07360709458589554,-0.6653653979301453
1761397154520986600,10.012986572265625,-0.23929941654205322,-0.15316994488239288,-0.6449019908905029
1761397154540350000,10.032349853515624,-0.18035265803337097,-0.018630841746926308,-0.07375980913639069
1761397154559740400,10.051740478515624,0.23746687173843384,0.6911736726760864,0.767224133014679
1761397154579117000,10.071116943359375,0.21791976690292358,0.3965925872325897,1.2618577480316162
1761397154598494000,10.090493896484375,-0.13377554714679718,-0.2238755226135254,1.260941505432129
1761397154617870800,10.109870849609376,-0.23838314414024353,0.040010496973991394,1.1809204816818237
1761397154637247500,10.12924755859375,-0.15362808108329773,-0.07895200699567795,1.1680927276611328
1761397154656610800,10.14861083984375,-0.1910424828529358,0.053143709897994995,0.5920637249946594
1761397154676001300,10.168001220703125,-0.28037887811660767,0.2761029601097107,-0.16966283321380615
1761397154695378000,10.1873779296875,-0.09025268256664276,0.2796153426170349,-0.5441122055053711
1761397154714741200,10.2067412109375,-0.01710372418165207,0.305576354265213,-0.520594596862793
1761397154734131700,10.226131591796875,0.02748812735080719,-0.04413371533155441,-0.09926267713308334
1761397154753508400,10.24550830078125,0.41171106696128845,-0.22692975401878357,0.25411245226860046
1761397154772871700,10.26487158203125,0.7621846795082092,0.28098973631858826,0.24647687375545502
1761397154792262100,10.28426220703125,0.6371136903762817,0.6488724946975708,0.3852919042110443
1761397154811638800,10.303638671875,0.3052709102630615,0.7614210844039917,0.6135960817337036
1761397154831002000,10.323002197265625,-0.05665608495473862,0.7458444833755493,0.5801522135734558
1761397154850392600,10.342392578125,-0.22708246111869812,0.851215660572052,0.3199312388896942
1761397154869769200,10.361769287109375,-0.14751961827278137,0.8863393664360046,0.19333316385746002
1761397154889132500,10.381132568359375,-0.08399149775505066,0.6273401379585266,0.37002071738243103
1761397154908523000,10.40052294921875,0.08735115826129913,0.61970454454422,0.7870767116546631
1761397154927899600,10.419899658203125,0.15210096538066864,0.753480076789856,1.119683027267456
1761397154947276500,10.439276611328125,-0.17057909071445465,0.6132906675338745,1.3475290536880493
1761397154966653400,10.4586533203125,-0.39857783913612366,0.037261683493852615,1.556591510772705
1761397154986030000,10.478030029296875,0.06276455521583557,-0.21196399629116058,1.3745590448379517
1761397155005393400,10.497393310546874,0.4161396920681,0.0650552362203598,1.5077236890792847
1761397155024784000,10.516783935546876,0.26694026589393616,-0.058183200657367706,1.9979286193847656
1761397155044160500,10.536160400390624,0.06062658876180649,-1.864611268043518,1.2949961423873901
