time,seconds_elapsed,z,y,x
1761397144635090000,0.12708984375,7.375277519226074,5.784050464630127,-0.5742774605751038
1761397144654466800,0.146466796875,7.331010341644287,5.678766250610352,-0.7328019142150879
1761397144673843700,0.16584375,7.431509017944336,5.594419479370117,-0.9266205430030823
1761397144693220400,0.185220458984375,7.2951178550720215,5.581857204437256,-1.1210373640060425
1761397144712597200,0.20459716796875,7.384250640869141,5.623133182525635,-1.3124631643295288
1761397144731974100,0.22397412109375,7.898707389831543,5.695516109466553,-1.3465609550476074
1761397144751350800,0.243350830078125,8.15234661102295,5.7547383308410645,-1.319043517112732
1761397144770727700,0.262727783203125,8.073982238769531,5.946762561798096,-1.2705888748168945
1761397144790104600,0.2821044921875,7.867002487182617,6.129215240478516,-1.1485549211502075
1761397144809481500,0.3014814453125,7.503891944885254,6.317649841308594,-1.098903775215149
1761397144828858000,0.320858154296875,7.613363265991211,6.329015731811523,-0.8063812255859375
1761397144848235000,0.340235107421875,7.987242221832275,6.241079807281494,-0.44446679949760437
1761397144867612000,0.35961181640625,7.9968132972717285,6.2291154861450195,-0.3481557071208954
1761397144886988500,0.378988525390625,8.121838569641113,6.228517532348633,-0.534795880317688
1761397144906365400,0.398365478515625,7.894520282745361,6.201598167419434,-0.6173482537269592
1761397144925742000,0.4177421875,7.612166881561279,6.1435723304748535,-0.4875376224517822
1761397144945119000,0.437118896484375,7.340581893920898,6.227321147918701,-0.4217349886894226
1761397144964496000,0.456495849609375,7.430312633514404,6.326025009155273,-0.37926238775253296
1761397144983872800,0.475872802734375,6.8279194831848145,6.540182590484619,-0.8207381963729858
1761397145003249400,0.49524951171875,6.307480335235596,6.541378974914551,-1.3381860256195068
1761397145022626300,0.514626220703125,6.967301368713379,6.360720634460449,-1.6277176141738892
1761397145042003200,0.534003173828125,7.527820110321045,6.238687038421631,-1.466800332069397
1761397145061379800,0.5533798828125,6.644270420074463,6.131608009338379,-0.8668000102043152
1761397145080756700,0.5727568359375,6.267400741577148,6.09033203125,-0.849452018737793
1761397145100133400,0.59213330078125,6.416353702545166,5.744568824768066,-0.9272187948226929
1761397145119510300,0.61151025390625,6.63350248336792,5.60817813873291,-1.3435698747634888
1761397145138873600,0.63087353515625,7.934599876403809,5.971288681030273,-2.011765718460083
1761397145158264000,0.65026416015625,8.70090103149414,6.304489612579346,-1.8436698913574219
1761397145177640700,0.669640625,8.613563537597656,6.162116527557373,-1.1174482107162476
1761397145197017600,0.689017578125,9.210572242736816,6.085546016693115,-0.9218349456787109
1761397145216394500,0.70839453125,9.083154678344727,5.8749775886535645,-0.20757736265659332
1761397145235771100,0.727771240234375,8.039285659790039,6.0640106201171875,0.3487538993358612
1761397145255148000,0.74714794921875,7.079165935516357,6.262615203857422,0.44446679949760437
1761397145274524700,0.766524658203125,6.605386734008789,5.434698581695557,0.9888339638710022
1761397145293901600,0.785901611328125,6.664011001586914,5.296513080596924,1.0630114078521729
1761397145313278500,0.805278564453125,6.094519138336182,5.401797294616699,1.1623135805130005
1761397145332655400,0.8246552734375,4.497908592224121,4.961517810821533,0.5653043389320374
1761397145352032000,0.844031982421875,4.8538408279418945,3.930809497833252,0.062213387340307236
1761397145371395300,0.863395263671875,7.868198871612549,4.205984115600586,-0.9493523836135864
1761397145390785800,0.882785888671875,8.963513374328613,5.075775146484375,-0.9786644577980042
1761397145410162400,0.902162353515625,9.688538551330566,5.204987525939941,-0.05922235921025276
1761397145429525800,0.92152587890625,8.60877799987793,4.201198577880859,1.4883357286453247
1761397145448916200,0.940916259765625,7.426723480224609,3.1435706615448,1.6995022296905518
1761397145468292900,0.96029296875,6.545566558837891,3.074777126312256,0.9068797826766968
1761397145487669800,0.979669677734375,6.15254545211792,3.407379388809204,0.2835494875907898
1761397145507046700,0.999046630859375,7.849056243896484,3.9870407581329346,-0.007178467698395252
1761397145526423300,1.01842333984375,8.770891189575195,3.8763725757598877,-0.1423729509115219
1761397145545786600,1.03778662109375,10.230513572692871,3.934398651123047,-0.6376872062683105
1761397145565177000,1.057177001953125,11.944971084594727,4.392624378204346,-0.9260223507881165
1761397145584553700,1.0765537109375,12.53839111328125,4.704887390136719,1.046859860420227
1761397145603930600,1.0959306640625,12.151351928710938,5.398207664489746,2.0865414142608643
1761397145623307500,1.1153076171875,13.349557876586914,6.440282344818115,2.3461625576019287
1761397145642684200,1.13468408203125,13.983057022094727,6.676573276519775,3.084946632385254
1761397145662047500,1.154047607421875,15.336796760559082,6.306283950805664,2.9455647468566895
1761397145681437700,1.173437744140625,16.0707950592041,6.8380889892578125,2.8043880462646484
1761397145700814600,1.192814697265625,13.84247875213623,7.925626754760742,2.9958138465881348
1761397145720178000,1.212177978515625,10.433902740478516,8.554939270019531,1.4015958309173584
1761397145739568400,1.231568359375,9.66939640045166,8.754141807556152,-0.6795616149902344
1761397145758945000,1.250945068359375,10.302297592163086,8.653642654418945,-0.07537391036748886
1761397145778322000,1.270322021484375,10.454241752624512,8.162516593933105,1.0145567655563354
1761397145797698800,1.28969873046875,9.502496719360352,7.52423095703125,0.5826523303985596
1761397145817075500,1.309075439453125,7.750950813293457,6.945167541503906,-0.05024927482008934
1761397145836438800,1.328438720703125,6.190232276916504,5.953342914581299,0.23748764395713806
1761397145855829200,1.347829345703125,5.340780258178711,4.9262237548828125,0.7926225066184998
1761397145875206000,1.367205810546875,4.647459983825684,3.8781673908233643,0.9068797826766968
1761397145894569200,1.3865693359375,4.066003799438477,2.671586513519287,0.49351966381073
1761397145913959400,1.40595947265625,4.068994998931885,1.7670994997024536,-0.048454657196998596
1761397145933336300,1.42533642578125,3.5916268825531006,1.129412293434143,0.7561319470405579
1761397145952713200,1.444713134765625,2.919841766357422,1.368694543838501,0.5551348328590393
1761397145972090000,1.464090087890625,2.616551637649536,1.5254244804382324,0.5120640397071838
1761397145991466800,1.483466796875,3.1453654766082764,2.028515338897705,0.18065811693668365
1761397146010843600,1.50284375,3.8907296657562256,2.4263222217559814,0.44446679949760437
1761397146030220500,1.522220458984375,3.7986059188842773,2.6841487884521484,0.33439695835113525
1761397146049597200,1.54159716796875,3.593421459197998,3.5377883911132812,-0.9056833982467651
1761397146068960500,1.56096044921875,6.6215386390686035,4.330410957336426,-1.4656038284301758
1761397146088350700,1.580350830078125,11.26062297821045,5.711667537689209,-3.2961132526397705
1761397146107727600,1.5997275390625,12.209976196289062,7.304090976715088,-4.858626365661621
1761397146127091000,1.619091064453125,10.927422523498535,8.207980155944824,-4.731208801269531
1761397146146481400,1.6384814453125,11.639287948608398,8.103293418884277,-2.7224340438842773
1761397146165858000,1.657858154296875,13.939388275146484,7.8287177085876465,-1.3764712810516357
1761397146185235000,1.67723486328125,13.537992477416992,7.945367813110352,-0.8703892230987549
1761397146204611800,1.69661181640625,12.901501655578613,8.779864311218262,-1.4638092517852783
1761397146223988500,1.715988525390625,11.462817192077637,9.279366493225098,-2.2241287231445312
1761397146243351800,1.735351806640625,9.494720458984375,8.795417785644531,-1.2436695098876953
1761397146262742000,1.754741943359375,8.188239097595215,7.365706443786621,0.17347964644432068
1761397146282119000,1.774118896484375,7.122236728668213,5.285147190093994,2.1020946502685547
1761397146301482200,1.793482177734375,5.997610092163086,3.0825538635253906,3.4121651649475098
1761397146320872400,1.81287255859375,4.852046012878418,1.007378339767456,4.122235298156738
1761397146340249300,1.832249267578125,5.672784328460693,-0.8638089895248413,4.536193370819092
1761397146359612700,1.85161279296875,5.02851676940918,-1.3549357652664185,2.933002471923828
1761397146379003100,1.871003173828125,3.5617165565490723,-1.6049858331680298,0.7076773047447205
1761397146398379800,1.8903798828125,2.5387847423553467,-1.2394821643829346,-0.7950153350830078
1761397146417743000,1.9097431640625,1.5194423198699951,-0.5168496966362,-0.7674978375434875
1761397146437133600,1.929133544921875,0.6448656916618347,-0.11066804826259613,0.09212367236614227
1761397146456510200,1.94851025390625,0.22971096634864807,0.9768698215484619,0.20997019112110138
1761397146475873500,1.96787353515625,-1.633699655532837,1.94297194480896,0.12143574655056
1761397146495263700,1.987263671875,-1.8711873292922974,4.233501434326172,-1.350150227546692
1761397146514640600,2.006640625,4.925625324249268,7.606783390045166,-4.098307132720947
1761397146534004000,2.02600390625,10.831111907958984,9.716654777526855,-3.7818562984466553
1761397146553394200,2.045394287109375,19.511674880981445,10.150951385498047,0.3188436031341553
1761397146572771000,2.06477099609375,30.863224029541016,8.96231746673584,4.422534465789795
1761397146592134400,2.084134521484375,38.289947509765625,5.562714576721191,10.859227180480957
1761397146611524900,2.10352490234375,33.07120132446289,6.726224422454834,10.601999282836914
1761397146630901500,2.122901611328125,19.519451141357422,8.944969177246094,6.570092678070068
1761397146650264800,2.142264892578125,11.054841041564941,9.726225852966309,5.194818019866943
1761397146669655000,2.161655029296875,8.904889106750488,8.419146537780762,4.416552543640137
1761397146689032000,2.181031982421875,8.920442581176758,5.962913990020752,3.0287153720855713
1761397146708395300,2.200395263671875,7.024130821228027,4.108476638793945,2.9012975692749023
1761397146727785500,2.219785400390625,3.741178274154663,2.9491539001464844,3.6885361671447754
1761397146747162400,2.239162353515625,0.9798609018325806,1.9351953268051147,3.559921979904175
1761397146766525700,2.258525634765625,-0.3690928816795349,1.012762188911438,2.571686029434204
1761397146785916000,2.277916015625,-1.703689694404602,0.03888336941599846,2.073380708694458
1761397146805292800,2.297292724609375,-3.4265220165252686,-0.25363919138908386,0.8075776696205139
1761397146824656100,2.31665625,-5.02432918548584,0.0323031060397625,-0.3846462368965149
1761397146844046600,2.336046630859375,-5.821139335632324,0.6502495408058167,-0.7776673436164856
1761397146863423200,2.35542333984375,-5.961119174957275,1.1264212131500244,-0.3756731450557709
1761397146882786600,2.37478662109375,-4.333401679992676,1.6648063659667969,0.46480581164360046
1761397146902176800,2.3941767578125,2.1236300468444824,3.559921979904175,1.1306086778640747
1761397146921553700,2.4135537109375,7.599604606628418,5.664409637451172,2.6428725719451904
1761397146940917000,2.4329169921875,13.377673149108887,9.079565048217773,1.5014961957931519
1761397146960307200,2.45230712890625,19.5332088470459,12.498908996582031,-3.445664644241333
1761397146979684000,2.47168408203125,27.31825828552246,10.797612190246582,1.8867406845092773
1761397146999047400,2.49104736328125,36.489349365234375,5.901298999786377,12.829716682434082
1761397147018437600,2.510437744140625,32.620155334472656,3.844667673110962,13.001999855041504
1761397147037814500,2.529814453125,18.50070571899414,6.267400741577148,4.6510491371154785
1761397147057177900,2.549177734375,7.544569969177246,7.482954502105713,3.8398821353912354
1761397147076568000,2.568568115234375,1.8867406845092773,7.572685241699219,4.742574691772461
1761397147095945000,2.587945068359375,0.6107679605484009,6.062814235687256,3.9864425659179688
1761397147115308300,2.607308349609375,2.3575284481048584,4.0420756340026855,3.1854450702667236
1761397147134698500,2.626698486328125,4.265804767608643,2.2205393314361572,2.9856443405151367
1761397147154075400,2.646075439453125,5.294718265533447,1.1748759746551514,2.8456642627716064
1761397147173438700,2.665438720703125,4.914857864379883,0.9026923179626465,1.7736797332763672
1761397147192829000,2.684828857421875,3.0388846397399902,1.0408778190612793,0.4977070987224579
1761397147212205800,2.704205810546875,0.5688936114311218,1.222732424736023,0.3242274820804596
1761397147231569200,2.723569091796875,-1.1060823202133179,1.3094722032546997,1.1784651279449463
1761397147250959400,2.74295947265625,-2.059622049331665,1.4584254026412964,1.6606189012527466
1761397147270336300,2.762336181640625,-1.9100706577301025,1.8969101905822754,1.6534404754638672
1761397147289699600,2.781699462890625,0.9002995491027832,2.9312076568603516,0.3200400173664093
1761397147309089800,2.80108984375,3.8913278579711914,3.862015724182129,0.17647066712379456
1761397147328466700,2.820466796875,9.334999084472656,5.799005508422852,1.7808582782745361
1761397147347830000,2.839830078125,18.159130096435547,8.679964065551758,1.4769697189331055
1761397147367220200,2.85922021484375,22.48356056213379,11.967103958129883,-1.337587833404541
1761397147386597000,2.87859716796875,19.81436538696289,13.028321266174316,-0.37148571014404297
1761397147405960400,2.89796044921875,18.981664657592773,10.88554859161377,5.228915691375732
1761397147425350700,2.9173505859375,22.62413787841797,7.144968509674072,9.114261627197266
1761397147444727600,2.9367275390625,21.912872314453125,6.3391852378845215,6.289534091949463
1761397147464091000,2.9560908203125,15.101103782653809,6.620940208435059,3.4271202087402344
1761397147483481000,2.975481201171875,8.27258586883545,6.066403388977051,3.8907296657562256
1761397147502858000,2.99485791015625,3.975076675415039,4.863411903381348,4.326223373413086
1761397147522221300,3.01422119140625,2.9688947200775146,3.5156545639038086,3.4995031356811523
1761397147541611500,3.033611572265625,2.8043880462646484,2.217548370361328,3.25663161277771
1761397147560988400,3.052988525390625,2.6865415573120117,1.5355939865112305,2.3976082801818848
1761397147580351700,3.072351806640625,3.1238300800323486,1.6683956384658813,1.332203984260559
1761397147599742000,3.091741943359375,3.445664644241333,2.4765713214874268,1.0450652837753296
1761397147619118800,3.111118896484375,2.239083766937256,3.321237802505493,2.6255247592926025
1761397147638482200,3.130482177734375,0.10887342691421509,4.374678134918213,4.860421180725098
1761397147657872400,3.149872314453125,-1.415354609489441,5.344967365264893,5.638088226318359
1761397147677249300,3.169249267578125,-0.9529415965080261,5.824130535125732,4.831109046936035
1761397147696612600,3.188612548828125,3.2380871772766113,6.295516490936279,3.335594654083252
1761397147716002800,3.2080029296875,10.245468139648438,6.499504566192627,2.293520450592041
1761397147735379700,3.227379638671875,16.363916397094727,8.898308753967285,-1.4644074440002441
1761397147754743000,3.246742919921875,17.20918083190918,11.151749610900879,-3.214757204055786
1761397147774133200,3.26613330078125,16.44527244567871,10.075577735900879,1.3417752981185913
1761397147793510100,3.28551025390625,18.218952178955078,7.471588611602783,5.013561725616455
1761397147812873500,3.30487353515625,20.190038681030273,6.183651924133301,0.6951149702072144
1761397147832263700,3.324263671875,17.914464950561523,6.929614543914795,-2.6727828979492188
1761397147851640600,3.343640625,12.690335273742676,7.184450149536133,0.1339980661869049
1761397147871004000,3.36300390625,6.57547664642334,6.956533432006836,2.3611178398132324
1761397147890394000,3.38239404296875,2.2779672145843506,5.6931233406066895,1.0564311742782593
1761397147909771000,3.40177099609375,1.6660027503967285,3.926621913909912,1.201795220375061
1761397147929134300,3.42113427734375,2.8277182579040527,2.365305185317993,2.1469600200653076
1761397147948524500,3.440524658203125,3.50129771232605,1.5756736993789673,2.562114953994751
1761397147967901400,3.4599013671875,3.342175006866455,1.500898003578186,1.9280169010162354
1761397147987264800,3.4792646484375,1.9716858863830566,1.3555340766906738,1.674377679824829
1761397148006655000,3.498655029296875,1.7635103464126587,1.033101201057434,1.6109678745269775
1761397148026031900,3.518031982421875,2.203789710998535,1.2065808773040771,1.095314621925354
1761397148045408500,3.537408447265625,1.9866410493850708,1.6325032711029053,0.5509474277496338
1761397148064785400,3.556785400390625,1.5176477432250977,2.617149829864502,-0.6915257573127747
1761397148084162300,3.576162353515625,2.583052158355713,4.512265205383301,-1.7665013074874878
1761397148103525600,3.595525634765625,4.966901779174805,7.359126091003418,-2.103889226913452
1761397148122915800,3.614915771484375,5.2013983726501465,10.89990520477295,-2.4257240295410156
1761397148142292700,3.634292724609375,4.812564373016357,12.105289459228516,-1.4291132688522339
1761397148161656000,3.653656005859375,9.142376899719238,11.656635284423828,-0.30927231907844543
1761397148181046300,3.67304638671875,18.250656127929688,11.106884956359863,0.9038887619972229
1761397148200423200,3.692423095703125,23.527429580688477,10.603793144226074,-0.2386840581893921
1761397148219799800,3.7117998046875,20.556140899658203,10.925628662109375,-1.604387640953064
1761397148239176700,3.7311767578125,14.668601036071777,10.796415328979492,-0.003589233849197626
1761397148258553600,3.7505537109375,8.908478736877441,9.300901412963867,3.4366915225982666
1761397148277916700,3.769916748046875,3.035893678665161,6.847660064697266,4.156930923461914
1761397148297307100,3.78930712890625,-0.4462614357471466,4.297509670257568,2.224726915359497
1761397148316684000,3.80868408203125,-0.4815555512905121,1.95852530002594,0.7004988193511963
1761397148336047400,3.82804736328125,1.6313068866729736,0.5455635786056519,0.3158525824546814
1761397148355437600,3.8474375,2.940778970718384,-0.5138586759567261,1.5296118259429932
1761397148374814200,3.866814208984375,2.9312076568603516,-1.048654556274414,2.74755859375
1761397148394191000,3.886191162109375,1.908276081085205,-0.8009973764419556,2.6189444065093994
1761397148413568000,3.905568115234375,0.43190449476242065,0.046061836183071136,1.963310956954956
1761397148432944600,3.924944580078125,-1.389631748199463,1.23589289188385,1.3010972738265991
1761397148452308000,3.944307861328125,-2.5495524406433105,2.56510591506958,0.3200400173664093
1761397148471698400,3.963698486328125,-1.0187442302703857,4.573880672454834,-1.2376874685287476
1761397148491075300,3.983075439453125,2.7840490341186523,8.724231719970703,-3.70767879486084
1761397148510438400,4.0024384765625,7.210771083831787,13.645668983459473,-7.509873867034912
1761397148529828900,4.021828857421875,11.504691123962402,12.818350791931152,-1.017547845840454
1761397148549205800,4.041205810546875,24.563520431518555,8.728418350219727,13.421341896057129
1761397148568568800,4.06056884765625,41.352760314941406,3.6406795978546143,14.54357624053955
1761397148587959300,4.079959228515625,39.875789642333984,7.749754428863525,1.5565310716629028
1761397148607336000,4.0993359375,24.81656265258789,9.306883811950684,1.404586911201477
1761397148626699300,4.11869921875,10.076774597167969,11.999407768249512,1.9674984216690063
1761397148646089700,4.13808984375,0.9565308690071106,11.385648727416992,-1.2681959867477417
1761397148665466400,4.15746630859375,1.3513466119766235,8.92821979522705,0.3696911036968231
1761397148684829700,4.17682958984375,3.8937206268310547,6.714260101318359,3.421138286590576
1761397148704220200,4.19622021484375,3.472583770751953,4.229912281036377,3.363112211227417
1761397148723596800,4.2155966796875,1.8179470300674438,2.334198474884033,1.3387842178344727
1761397148742960000,4.234960205078125,0.37507495284080505,0.8297112584114075,-0.19262222945690155
1761397148762350600,4.2543505859375,-0.6586244106292725,-0.607776939868927,-0.251844584941864
1761397148781727200,4.273727294921875,-1.1467602252960205,-1.7826528549194336,-0.08853443711996078
1761397148801104100,4.293104248046875,0.12681959569454193,-1.7982062101364136,0.494716078042984
1761397148820481000,4.31248095703125,0.9116654396057129,-1.067797064781189,0.6173482537269592
1761397148839857700,4.331857666015625,0.1417747437953949,0.039481572806835175,-0.3026920557022095
1761397148859234600,4.351234619140625,-0.4013960063457489,0.7579265832901001,-0.7794619798660278
1761397148878611500,4.370611572265625,0.28175488114356995,2.6081767082214355,-1.9256240129470825
1761397148897988000,4.389988037109375,1.3573286533355713,5.792425632476807,-4.237090587615967
1761397148917351400,4.409351318359375,2.953939437866211,9.53659439086914,-6.183651924133301
1761397148936742000,4.428741943359375,12.984652519226074,9.733404159545898,-0.664606511592865
1761397148956118500,4.448118408203125,26.120649337768555,6.976274490356445,8.854640007019043
1761397148975481900,4.46748193359375,30.888349533081055,3.119044303894043,11.522637367248535
1761397148994872300,4.486872314453125,26.809783935546875,5.632704734802246,3.4779677391052246
1761397149014249000,4.5062490234375,17.7356014251709,8.219346046447754,-3.8153557777404785
1761397149033612300,4.5256123046875,10.603793144226074,10.597811698913574,-4.748556613922119
1761397149053002500,4.54500244140625,6.40020227432251,10.533803939819336,-2.4765713214874268
1761397149072379400,4.56437939453125,6.796214580535889,8.487939834594727,1.2442678213119507
1761397149091742700,4.58374267578125,7.917252063751221,6.799205780029297,4.1593241691589355
1761397149111133000,4.6031328125,8.419744491577148,5.097310543060303,5.449055194854736
1761397149130509800,4.622509765625,10.134202003479004,2.744567632675171,4.644468784332275
1761397149149873200,4.641873046875,8.635697364807129,1.7653049230575562,1.3698909282684326
1761397149169263400,4.661263427734375,5.720640659332275,1.2161520719528198,0.4253242313861847
1761397149188640300,4.68064013671875,3.950550079345703,0.6203392744064331,1.4476577043533325
1761397149208003600,4.700003662109375,2.947359323501587,0.9768698215484619,1.649253010749817
1761397149227393800,4.719393798828125,1.0223335027694702,1.4117653369903564,1.2687941789627075
1761397149246770700,4.738770751953125,0.30508488416671753,1.8167506456375122,0.47676992416381836
1761397149266147600,4.758147705078125,1.3878371715545654,2.6937201023101807,-0.06580262631177902
1761397149285524200,4.777524169921875,2.5734808444976807,3.7531423568725586,0.6711867451667786
1761397149304901000,4.796901123046875,4.384847640991211,5.13739013671875,-0.17347964644432068
1761397149324264400,4.816264404296875,8.591429710388184,6.52462911605835,-1.975873351097107
1761397149343654700,4.835654541015625,13.853246688842773,8.552546501159668,-2.076970100402832
1761397149363031600,4.855031494140625,18.417556762695312,9.067601203918457,-0.4462614357471466
1761397149382395000,4.874394775390625,22.036102294921875,8.784649848937988,0.16091732680797577
1761397149401785000,4.89378515625,21.299711227416992,8.620741844177246,-0.0975075215101242
1761397149421162000,4.913161865234375,18.02273941040039,8.484949111938477,-0.10049854964017868
1761397149440525300,4.932525390625,14.868401527404785,7.933403491973877,1.028315544128418
1761397149459915500,4.95191552734375,12.017951965332031,6.616752624511719,2.454437732696533
1761397149479292400,4.97129248046875,8.12123966217041,4.884947299957275,3.294318675994873
1761397149498655700,4.99065576171875,5.050052165985107,3.2763724327087402,2.6147570610046387
1761397149518046000,5.0100458984375,3.31884503364563,2.204387903213501,2.403590440750122
1761397149537422800,5.0294228515625,2.6638097763061523,1.724626898765564,2.39401912689209
1761397149556786200,5.0487861328125,2.5489542484283447,1.4374881982803345,1.9836499691009521
1761397149576176400,5.06817626953125,3.3056845664978027,1.1521440744400024,2.592623233795166
1761397149595553300,5.08755322265625,4.485345840454102,1.3920245170593262,3.248854875564575
1761397149614916600,5.10691650390625,6.211169242858887,1.667797327041626,4.432703971862793
1761397149634306800,5.126306884765625,5.149952411651611,2.641077995300293,6.496513366699219
1761397149653683700,5.14568359375,0.16510476171970367,3.9768712520599365,5.316253662109375
1761397149673047000,5.165047119140625,-1.0719845294952393,5.742176055908203,0.3840480446815491
1761397149692437200,5.184437255859375,5.855835437774658,6.338587284088135,1.8843477964401245
1761397149711814100,5.203814208984375,12.741182327270508,7.70668363571167,3.0825538635253906
1761397149731177500,5.223177490234375,12.017951965332031,10.88136100769043,-3.704089403152466
1761397149750567700,5.242567626953125,12.392428398132324,11.860025405883789,-5.402993679046631
1761397149769944600,5.261944580078125,18.06760597229004,9.615557670593262,4.089334011077881
1761397149789308000,5.281307861328125,24.461227416992188,5.602794170379639,8.958727836608887
1761397149808698000,5.300697998046875,21.62872314453125,6.0472612380981445,1.0199406147003174
1761397149828075000,5.320074951171875,12.30808162689209,8.054241180419922,-5.454439163208008
1761397149847438300,5.339438232421875,7.296314239501953,8.802596092224121,-4.11625337600708
1761397149866828500,5.35882861328125,3.992424488067627,7.266404151916504,-0.6197410821914673
1761397149886205400,5.378205322265625,3.2691938877105713,4.850849628448486,1.4787644147872925
1761397149905568800,5.39756884765625,4.2484564781188965,2.932404041290283,2.9306094646453857
1761397149924959000,5.416958984375,4.743172645568848,2.1439690589904785,2.5746772289276123
1761397149944336000,5.4363359375,3.6981074810028076,1.672582983970642,1.2532408237457275
1761397149963699200,5.45569921875,2.1415762901306152,1.6977076530456543,-0.1537388563156128
1761397149983089400,5.47508935546875,0.5641079545021057,1.7934205532073975,-1.8454644680023193
1761397150002466300,5.49446630859375,-0.6484549641609192,1.9812572002410889,-2.3461625576019287
1761397150021829600,5.51382958984375,-1.201795220375061,2.3814568519592285,-0.786640465259552
1761397150041219800,5.5332197265625,-0.09571290761232376,2.9940192699432373,-0.0011964113218709826
1761397150060596700,5.5525966796875,2.7726831436157227,3.858426570892334,-1.347757339477539
1761397150079960000,5.5719599609375,6.5042901039123535,5.009374141693115,-2.310868501663208
1761397150099350300,5.591350341796875,10.545767784118652,7.11146879196167,-1.6145570278167725
1761397150118727200,5.61072705078125,12.775877952575684,10.091131210327148,-1.5332010984420776
1761397150138090500,5.630090576171875,12.008978843688965,10.199406623840332,1.098305583000183
1761397150157480700,5.649480712890625,12.871591567993164,10.41775131225586,4.9435715675354
1761397150176857600,5.668857666015625,18.443279266357422,8.160123825073242,5.874379634857178
1761397150196220700,5.688220703125,22.445274353027344,8.422137260437012,-0.4899304509162903
1761397150215611100,5.707611083984375,18.710079193115234,8.46760082244873,-2.973680257797241
1761397150234988000,5.726988037109375,12.104691505432129,8.443673133850098,-1.409970760345459
1761397150254351000,5.74635107421875,8.120641708374023,7.692924976348877,1.0223335027694702
1761397150273741600,5.765741455078125,6.6107707023620605,6.296114444732666,2.3874387741088867
1761397150293118500,5.785118408203125,6.01675271987915,4.832305431365967,1.872383713722229
1761397150312481800,5.804481689453125,5.748157978057861,3.683152198791504,0.03529413416981697
1761397150331872000,5.8238720703125,5.493322372436523,3.25663161277771,-0.9708877801895142
1761397150351248600,5.84324853515625,4.540979385375977,2.851048231124878,1.0277173519134521
1761397150370612000,5.862612060546875,3.6843485832214355,2.5459632873535156,3.207578659057617
1761397150390002400,5.88200244140625,3.449253797531128,2.3778674602508545,3.541377544403076
1761397150409379000,5.901379150390625,3.8057844638824463,2.6835505962371826,2.8396823406219482
1761397150428756000,5.920755859375,4.2592244148254395,3.3852458000183105,2.100898265838623
1761397150448132900,5.9401328125,5.054239749908447,4.2281174659729,2.155334949493408
1761397150467509500,5.959509521484375,6.239284992218018,5.696114540100098,1.6426727771759033
1761397150486872800,5.978872802734375,6.242276191711426,8.560921669006348,-0.841675341129303
1761397150506263300,5.99826318359375,5.787639617919922,10.940583229064941,-1.2699905633926392
1761397150525640000,6.017639892578125,6.367899417877197,11.282158851623535,4.12761926651001
1761397150545003300,6.037003173828125,10.998010635375977,10.721041679382324,8.151748657226562
1761397150564393700,6.056393798828125,16.042678833007812,8.401798248291016,5.3970112800598145
1761397150583770400,6.075770263671875,16.92622947692871,9.07717227935791,-1.9316060543060303
1761397150603133700,6.0951337890625,12.878171920776367,9.737591743469238,-3.731606960296631
1761397150622524200,6.114524169921875,8.791230201721191,8.882157325744629,-0.8482556343078613
1761397150641900800,6.13390087890625,4.7712883949279785,7.200003147125244,0.4833501875400543
1761397150661264100,6.15326416015625,2.7320053577423096,5.205585479736328,0.42412781715393066
1761397150680654600,6.172654541015625,3.235694408416748,3.4743785858154297,-0.9667003750801086
1761397150700031200,6.19203125,4.7958149909973145,2.4119651317596436,-1.256830096244812
1761397150719394600,6.21139453125,5.352744102478027,2.0141584873199463,-1.5314065217971802
1761397150738785000,6.230784912109375,4.8089752197265625,1.689931035041809,-1.2496516704559326
1761397150758161700,6.25016162109375,5.101497650146484,1.3148560523986816,-0.08315058797597885
1761397150777538600,6.26953857421875,5.0979084968566895,1.3411771059036255,0.40259242057800293
1761397150796915500,6.28891552734375,4.201796531677246,2.1643080711364746,1.1467602252960205
1761397150816292000,6.3082919921875,3.0664021968841553,3.01196551322937,1.8753747940063477
1761397150835655400,6.327655517578125,3.778865098953247,4.156332969665527,1.689931035041809
1761397150855046000,6.3470458984375,5.127220630645752,5.62672233581543,0.3008974492549896
1761397150874422500,6.366422607421875,6.585646152496338,8.136195182800293,-2.001596212387085
1761397150893785900,6.385785888671875,7.887939929962158,12.261421203613281,-4.008575916290283
1761397150913176300,6.40517626953125,8.906085968017578,13.749756813049316,-3.6735808849334717
1761397150932553000,6.424552978515625,9.322437286376953,12.888340950012207,0.8482556343078613
1761397150951916300,6.443916259765625,17.065011978149414,9.872187614440918,5.243870735168457
1761397150971306500,6.463306396484375,23.576480865478516,8.788837432861328,0.973878800868988
1761397150990683400,6.482683349609375,19.98545265197754,9.565308570861816,-3.91705060005188
1761397151010046700,6.502046630859375,12.275778770446777,9.716654777526855,-1.542174220085144
1761397151029437000,6.52143701171875,3.7884364128112793,9.257830619812012,3.146561861038208
1761397151048813800,6.540813720703125,0.03409772366285324,7.785048484802246,4.400400638580322
1761397151068177200,6.56017724609375,2.6608188152313232,5.433502197265625,3.786043643951416
1761397151087567400,6.5795673828125,6.0741801261901855,3.174079179763794,2.1547367572784424
1761397151106944300,6.5989443359375,8.222336769104004,1.8496519327163696,0.7040880918502808
1761397151126307600,6.6183076171875,7.741977691650391,1.1653046607971191,0.4414757788181305
1761397151145697800,6.63769775390625,4.848456859588623,0.8225327730178833,1.8508483171463013
1761397151165074700,6.65707470703125,0.9690931439399719,1.0809576511383057,2.633301258087158
1761397151184438000,6.67643798828125,-1.9567307233810425,1.547558069229126,1.8460626602172852
1761397151203828200,6.695828125,-2.4508485794067383,2.1003000736236572,0.7202396392822266
1761397151223205000,6.715205078125,-0.8165507316589355,2.8247270584106445,-0.08374879509210587
1761397151242568400,6.734568359375,1.7377874851226807,3.9912281036376953,-1.052243709564209
1761397151261958700,6.753958740234375,4.646861553192139,5.898906230926514,-1.3381860256195068
1761397151281335600,6.77333544921875,8.947959899902344,8.933005332946777,-1.490728497505188
1761397151300699000,6.792698974609375,10.871191024780273,11.891730308532715,-2.8313074111938477
1761397151320089000,6.812089111328125,8.108677864074707,12.576675415039062,-1.6995022296905518
1761397151339466000,6.831466064453125,10.319047927856445,12.914063453674316,0.9786644577980042
1761397151358829300,6.850829345703125,17.385650634765625,11.023734092712402,2.0171494483947754
1761397151378219500,6.870219482421875,22.311277389526367,9.754940032958984,-0.641276478767395
1761397151397596400,6.889596435546875,20.88156509399414,9.681958198547363,-2.7050859928131104
1761397151416959700,6.908959716796875,14.355141639709473,8.522037506103516,0.6460621356964111
1761397151436350000,6.928349853515625,7.043273448944092,6.619743824005127,2.41375994682312
1761397151455726800,6.947726806640625,1.8029918670654297,4.686343193054199,0.2745763957500458
1761397151475090200,6.967090087890625,-0.31764721870422363,2.489133834838867,-1.0534402132034302
1761397151494480400,6.98648046875,0.02751746028661728,0.5455635786056519,-1.012762188911438
1761397151513857300,7.005857177734375,0.4325026869773865,-0.9667003750801086,-0.8781659007072449
1761397151533220600,7.025220703125,-0.6771687865257263,-2.82951283454895,-0.6933203339576721
1761397151552610800,7.04461083984375,-0.3900300860404968,-4.11206579208374,-2.30069899559021
1761397151571987700,7.06398779296875,0.7250252366065979,-3.902693748474121,-4.639084815979004
1761397151591351000,7.08335107421875,0.6993024349212646,-3.221935749053955,-5.289932727813721
1761397151610741200,7.1027412109375,-0.36311084032058716,-2.1337995529174805,-4.383651256561279
1761397151630118100,7.1221181640625,-0.7950153350830078,-1.0636097192764282,-3.5736806392669678
1761397151649481500,7.1414814453125,-0.49172505736351013,-0.001794616924598813,-3.5605201721191406
1761397151668871700,7.16087158203125,3.4205398559570312,2.4598217010498047,-3.5371899604797363
1761397151688248600,7.18024853515625,8.297710418701172,7.810771465301514,-3.135794162750244
1761397151707612000,7.19961181640625,14.925829887390137,9.944570541381836,4.263411521911621
1761397151727002000,7.219002197265625,30.5718994140625,7.320242881774902,14.984453201293945
1761397151746379000,7.23837890625,47.413780212402344,4.041477680206299,16.637296676635742
1761397151765742300,7.257742431640625,46.03850555419922,5.916254043579102,4.8299126625061035
1761397151785132500,7.277132568359375,35.879180908203125,7.202396392822266,1.643869161605835
1761397151804509400,7.296509521484375,22.658235549926758,7.903493404388428,4.804787635803223
1761397151823872800,7.315872802734375,11.297114372253418,7.708477973937988,5.657829284667969
1761397151843263000,7.335262939453125,8.082955360412598,6.09033203125,4.623531341552734
1761397151862639900,7.354639892578125,8.406583786010742,3.4737801551818848,4.327419757843018
1761397151882003200,7.374003173828125,6.024528980255127,1.3184453248977661,3.683152198791504
1761397151901393400,7.393393310546875,1.0755738019943237,-0.02751746028661728,2.9521448612213135
1761397151920770300,7.412770263671875,-3.4157543182373047,-0.7435696125030518,2.448455810546875
1761397151940133600,7.432133544921875,-5.216353416442871,-1.4518451690673828,1.893320918083191
1761397151959523800,7.45152392578125,-4.695316314697266,-1.7150555849075317,1.0791629552841187
1761397151978900700,7.470900634765625,-3.8703906536102295,-1.3453645706176758,0.44027936458587646
1761397151998277400,7.49027734375,-4.353740692138672,-1.113858938217163,0.45224347710609436
1761397152017654300,7.509654296875,-4.753342151641846,-0.5084748268127441,-0.25782662630081177
1761397152037031200,7.52903125,-3.556332588195801,0.8093722462654114,-0.8739784955978394
1761397152056394500,7.54839453125,0.719641387462616,3.3056845664978027,-0.2356930375099182
1761397152075784700,7.56778466796875,5.682953834533691,8.310273170471191,-1.1330015659332275
1761397152095161600,7.58716162109375,11.071590423583984,12.967902183532715,-2.6662025451660156
1761397152114524700,7.606524658203125,20.947965621948242,10.984850883483887,3.517449378967285
1761397152133915100,7.6259150390625,36.217166900634766,4.135993957519531,11.866007804870605
1761397152153292000,7.6452919921875,44.0626335144043,1.7868403196334839,3.7232320308685303
1761397152172655000,7.664655029296875,39.04727554321289,3.067000389099121,-5.248058319091797
1761397152192045600,7.684045654296875,26.191837310791016,3.9661035537719727,-1.495514154434204
1761397152211422500,7.70342236328125,9.353543281555176,5.139782905578613,4.6995038986206055
1761397152230785500,7.72278564453125,-4.898108005523682,5.763113498687744,7.386643409729004
1761397152250176000,7.742176025390625,-8.589634895324707,4.218546390533447,6.412166595458984
1761397152269553000,7.761552978515625,-5.311468124389648,1.5810575485229492,2.9868409633636475
1761397152288916200,7.780916259765625,-1.8011972904205322,-0.5491527915000916,-0.9643075466156006
1761397152308306400,7.800306396484375,-0.3768695592880249,-1.2544373273849487,-3.2626137733459473
1761397152327683000,7.81968310546875,-1.4745769500732422,-1.2478569746017456,-3.477369546890259
1761397152347046400,7.83904638671875,-3.4510483741760254,-1.1700903177261353,-2.940180778503418
1761397152366436900,7.858436767578125,-5.0943193435668945,-0.32303106784820557,-3.3750762939453125
1761397152385813500,7.8778134765625,-5.800800323486328,0.8327022790908813,-4.24785852432251
1761397152405176800,7.8971767578125,-2.314457654953003,2.5704896450042725,-4.7234320640563965
1761397152424567300,7.9165673828125,4.132404804229736,5.039882659912109,-2.9312076568603516
1761397152443944200,7.935944091796875,12.336196899414062,7.560122966766357,1.4578272104263306
1761397152463307300,7.955307373046875,26.95514678955078,5.48793888092041,3.9122650623321533
1761397152482697700,7.97469775390625,37.860435485839844,1.5535401105880737,0.6107679605484009
1761397152502074400,7.994074462890625,33.379276275634766,0.19980068504810333,-0.8171489238739014
1761397152521437700,8.013437744140624,26.55614471435547,1.85383939743042,-0.8267202377319336
1761397152540828200,8.032828125,22.322643280029297,2.7804598808288574,3.4019956588745117
1761397152560204800,8.052204833984375,16.411771774291992,3.7507495880126953,6.405586242675781
1761397152579568000,8.071568115234374,8.812766075134277,5.237888813018799,8.325826644897461
1761397152598958600,8.09095849609375,2.6021945476531982,5.780461311340332,9.755537986755371
1761397152618335200,8.110335205078124,-0.9930213689804077,5.053641319274902,7.874779224395752
1761397152637698600,8.129698486328126,-2.3910279273986816,3.964907169342041,5.100899696350098
1761397152657089000,8.149089111328125,-2.730210542678833,3.071187973022461,2.8085756301879883
1761397152676465700,8.168465576171876,-1.3549357652664185,2.848057270050049,0.7040880918502808
1761397152695829000,8.1878291015625,-2.789433002471924,2.1308085918426514,-0.37148571014404297
1761397152715219500,8.207219482421875,-4.460819721221924,1.7383856773376465,-0.9762716293334961
1761397152734596000,8.22659619140625,-5.855237007141113,1.6163517236709595,-1.6313068866729736
1761397152753973000,8.245972900390624,-4.9878387451171875,1.9124635457992554,-1.2161520719528198
1761397152773350000,8.265349853515625,-2.2307088375091553,2.7529425621032715,0.5988038778305054
1761397152792726500,8.2847265625,1.5649060010910034,4.904688358306885,1.262213945388794
1761397152812089900,8.30408984375,13.541581153869629,8.569295883178711,-1.2335001230239868
1761397152831480300,8.323480224609375,29.2067928314209,10.51107120513916,-1.2251251935958862
1761397152850857000,8.34285693359375,38.09014892578125,11.142178535461426,3.9595232009887695
1761397152870220300,8.36222021484375,42.196231842041016,8.69491958618164,10.562517166137695
1761397152889610800,8.38161083984375,39.363128662109375,6.365506649017334,8.725427627563477
1761397152908987400,8.4009873046875,27.95355224609375,5.995815277099609,2.0333011150360107
1761397152928350700,8.420350830078124,16.057634353637695,6.403791427612305,-1.046859860420227
1761397152947741000,8.439740966796874,7.121638298034668,5.836692810058594,-1.8837496042251587
1761397152967117800,8.459117919921875,1.1108678579330444,4.537988185882568,-1.8376877307891846
1761397152986481200,8.478481201171874,-2.720639228820801,2.9413771629333496,1.1126625537872314
1761397153005871400,8.497871337890626,-5.5758748054504395,1.95852530002594,5.30129861831665
1761397153025248300,8.517248291015624,-5.669195175170898,0.6071787476539612,5.9814581871032715
1761397153044611600,8.536611572265626,-5.5005011558532715,-1.0474581718444824,4.685146808624268
1761397153064001800,8.556001708984375,-6.736393928527832,-1.5284154415130615,2.0811574459075928
1761397153083378700,8.575378662109374,-8.24267578125,-0.9565308690071106,-0.4384847581386566
1761397153102742000,8.594741943359375,-8.689535140991211,-0.6616154313087463,-1.4608181715011597
1761397153122132500,8.614132568359375,-7.733004570007324,0.07956135272979736,-1.6085749864578247
1761397153141509000,8.633509033203126,-4.658825874328613,1.537388563156128,-1.3525429964065552
1761397153160872400,8.65287255859375,1.8340985774993896,3.988835334777832,-0.722034215927124
1761397153180262700,8.6722626953125,11.106884956359863,5.179264545440674,1.49611234664917
1761397153199639600,8.6916396484375,21.738794326782227,9.217751502990723,1.8891334533691406
1761397153219003000,8.7110029296875,28.192235946655273,13.00678539276123,-0.7908278703689575
1761397153238393000,8.73039306640625,32.40958786010742,12.199806213378906,2.179861545562744
1761397153257770000,8.74977001953125,35.84926986694336,8.46879768371582,7.788637638092041
1761397153277133300,8.76913330078125,34.32085418701172,6.453442573547363,4.34536600112915
1761397153296523500,8.7885234375,24.34756851196289,6.7208404541015625,1.012762188911438
1761397153315900400,8.807900390625,11.167303085327148,6.792026996612549,1.970489501953125
1761397153335263700,8.827263671875,0.06819544732570648,6.047859191894531,2.306680917739868
1761397153354654000,8.846654052734374,-5.708078384399414,4.855037212371826,2.0673987865448
1761397153374030800,8.86603076171875,-7.193423271179199,2.60339093208313,3.126222848892212
1761397153393394200,8.885394287109374,-5.605785369873047,0.7046862840652466,2.292922258377075
1761397153412784400,8.904784423828126,-2.7188446521759033,-0.31824541091918945,-0.026919255033135414
1761397153432161300,8.924161376953125,-0.08015955984592438,-0.7411768436431885,-1.5966109037399292
1761397153451524600,8.943524658203126,0.7567301392555237,-0.844068169593811,-2.079961061477661
1761397153470914800,8.962914794921875,-1.073180913925171,-0.45284169912338257,-1.7515461444854736
1761397153490291700,8.982291748046874,-4.538586139678955,0.6759724020957947,-0.4163511395454407
1761397153509655000,9.001655029296876,-4.591826438903809,2.1230318546295166,-0.40259242057800293
1761397153529045200,9.021045166015625,1.2305090427398682,4.630710124969482,-1.394417405128479
1761397153548422100,9.040422119140626,11.281560897827148,6.634698867797852,1.1312068700790405
1761397153567785500,9.059785400390625,26.32164764404297,7.382455825805664,3.8015968799591064
1761397153587175700,9.07917578125,35.77509307861328,5.3108696937561035,3.652045488357544
1761397153606552600,9.098552490234376,32.43590545654297,6.282954216003418,-0.5527420043945312
1761397153625916000,9.117916015625,25.336402893066406,7.800003528594971,-2.365305185317993
1761397153645306000,9.13730615234375,20.911476135253906,9.034101486206055,-0.9176474809646606
1761397153664683000,9.15668310546875,16.173686981201172,8.858229637145996,2.5764718055725098
1761397153684046300,9.17604638671875,10.4219388961792,7.372884750366211,4.5475592613220215
1761397153703436500,9.1954365234375,4.372883319854736,5.9407806396484375,3.568894863128662
1761397153722813400,9.2148134765625,0.5587241053581238,4.420739650726318,2.466402053833008
1761397153742176800,9.2341767578125,-1.0839486122131348,2.490330219268799,1.042074203491211
1761397153761567000,9.25356689453125,-1.3854442834854126,0.4133601188659668,0.48873403668403625
1761397153780944000,9.27294384765625,-1.1300104856491089,-0.7914260625839233,0.4061816334724426
1761397153800307200,9.29230712890625,-0.7070791125297546,-1.428515076637268,-0.05144568532705307
1761397153819697400,9.311697509765626,-1.2221341133117676,-1.1754741668701172,-0.8243274092674255
1761397153839074300,9.33107421875,-2.551347255706787,-0.6508477330207825,-1.3728820085525513
1761397153858437600,9.350437744140624,-2.475374937057495,0.6819544434547424,-2.349153518676758
1761397153877827800,9.369827880859376,0.4127618968486786,2.093719720840454,-2.6195425987243652
1761397153897204700,9.389204833984374,6.058028697967529,4.524827480316162,-1.6564314365386963
1761397153916568000,9.408568115234376,11.463415145874023,8.033304214477539,-1.5206388235092163
1761397153935958300,9.427958251953125,16.892131805419922,9.45045280456543,-0.8548358678817749
1761397153955335200,9.447335205078126,21.202800750732422,8.602795600891113,-0.20817556977272034
1761397153974698500,9.466698486328125,24.041885375976562,6.723233222961426,2.675175666809082
1761397153994088700,9.486088623046875,26.65723991394043,6.000002861022949,2.5292134284973145
1761397154013465600,9.505465576171876,25.619354248046875,6.9134626388549805,-0.7393822073936462
1761397154032829000,9.524828857421875,19.55354881286621,7.417750358581543,-0.2476571500301361
1761397154052219100,9.54421923828125,12.504891395568848,7.440482139587402,2.5806591510772705
1761397154071596000,9.563595947265625,6.715456962585449,6.924230575561523,3.4002010822296143
1761397154090959400,9.58295947265625,2.2295124530792236,6.27577543258667,3.139383316040039
1761397154110349600,9.602349609375,-0.5617151260375977,5.223531723022461,3.1513473987579346
1761397154129726500,9.6217265625,-1.057627558708191,4.155136585235596,2.8773691654205322
1761397154149089800,9.64108984375,-1.2658032178878784,3.363112211227417,2.2468605041503906
1761397154168480000,9.66047998046875,-1.3357932567596436,3.463012456893921,0.2315055876970291
1761397154187857000,9.67985693359375,-0.44805604219436646,2.8486554622650146,0.20099709928035736
1761397154207233500,9.699233642578125,-0.004785645287483931,2.213959217071533,0.3355933725833893
1761397154226610400,9.7186103515625,1.2161520719528198,2.7798616886138916,-1.856830358505249
1761397154245987000,9.737987060546875,1.5254244804382324,4.825725078582764,-1.4398809671401978
1761397154265350700,9.7573505859375,6.442076683044434,10.050453186035156,-0.48095735907554626
1761397154284740900,9.776740966796876,13.066007614135742,9.742975234985352,-0.4654040038585663
1761397154304117800,9.79611767578125,25.316661834716797,5.61116886138916,3.472583770751953
1761397154323480800,9.815480712890626,31.18446159362793,2.369492530822754,5.608776092529297
1761397154342871300,9.834871337890625,29.25285530090332,4.335794448852539,-0.4624129831790924
1761397154362248200,9.854248291015624,20.124237060546875,5.26600456237793,-2.4849462509155273
1761397154381611300,9.873611328125,12.608380317687988,6.245266914367676,-1.6456637382507324
1761397154401001700,9.893001708984375,6.01675271987915,6.352345943450928,-1.6169499158859253
1761397154420378600,9.912378662109376,1.074975609779358,5.80917501449585,-0.6777670383453369
1761397154439742000,9.931741943359375,-1.7940187454223633,4.664209365844727,1.5355939865112305
1761397154459132200,9.951132080078125,-1.1563315391540527,2.4335005283355713,2.2773690223693848
1761397154478508800,9.9705087890625,0.6825526356697083,1.5954145193099976,0.7734799385070801
1761397154497872100,9.9898720703125,2.9760732650756836,3.4995031356811523,-1.4015958309173584
1761397154517262600,10.0092626953125,3.4947173595428467,-1.5056836605072021,1.0133603811264038
1761397154536639200,10.02863916015625,7.194619655609131,0.5736792087554932,-0.5395814776420593
1761397154556002600,10.04800244140625,7.33759069442749,1.3088740110397339,-0.9768698215484619
1761397154575393000,10.06739306640625,7.103692054748535,1.4799607992172241,0.9858429431915283
1761397154594770000,10.08677001953125,5.896512985229492,2.2707886695861816,1.563111424446106
1761397154614133000,10.106133056640624,7.048657417297363,4.025924205780029,-0.16869398951530457
1761397154633523500,10.1255234375,8.668000221252441,6.694519519805908,-1.2861422300338745
1761397154652900000,10.144900146484375,7.8903326988220215,8.632107734680176,-0.21296121180057526
1761397154672263400,10.164263427734374,10.533205032348633,9.193822860717773,-1.0959128141403198
1761397154691654000,10.18365380859375,14.110475540161133,9.470193862915039,-2.430509567260742
1761397154711030500,10.203030517578124,16.995620727539062,9.599406242370605,-1.835893154144287
1761397154730393900,10.222393798828126,18.601205825805664,9.601799011230469,-2.665006160736084
1761397154749784300,10.241784423828125,16.025930404663086,9.840482711791992,-3.844069480895996
1761397154769161000,10.261160888671874,12.501899719238281,9.590433120727539,-1.3202399015426636
1761397154788524300,10.280524169921875,10.792826652526855,8.048856735229492,1.9244276285171509
1761397154807914800,10.299914794921875,7.991429328918457,6.389434814453125,2.575275421142578
1761397154827291400,10.31929150390625,4.386641979217529,4.788636207580566,2.214557409286499
1761397154846654700,10.33865478515625,2.2193429470062256,3.6197423934936523,0.7256234884262085
1761397154866045200,10.358045166015625,2.536990165710449,2.999403238296509,-0.6251249313354492
1761397154885421800,10.377421875,3.696312665939331,2.407179594039917,-0.7214360237121582
1761397154904798700,10.396798828125,3.8530426025390625,2.0895323753356934,-0.96370929479599
1761397154924175600,10.416175537109375,2.851048231124878,1.9369899034500122,0.3966103494167328
1761397154943552300,10.43555224609375,2.894717216491699,1.815554141998291,1.9268203973770142
1761397154962915600,10.45491552734375,3.4809587001800537,2.3820550441741943,-0.4749752879142761
1761397154982306000,10.47430615234375,3.098107099533081,4.049253940582275,-3.088535785675049
1761397155001682700,10.4936826171875,5.3832526206970215,5.998806476593018,-1.6600207090377808
1761397155021046000,10.5130458984375,5.597410202026367,9.031708717346191,-1.724626898765564
1761397155040436500,10.5324365234375,-0.5587241053581238,9.234500885009766,-2.282752752304077
