time,seconds_elapsed,z,y,x
1761396578628284700,0.14028466796875,9.29910659790039,3.4241292476654053,-0.3128615617752075
1761396578647661800,0.159661865234375,9.170493125915527,3.407379388809204,-0.2476571500301361
1761396578667039200,0.179039306640625,9.062217712402344,3.476173162460327,-0.3200400173664093
1761396578686416400,0.19841650390625,9.349954605102539,3.4995031356811523,-0.37806597352027893
1761396578705793800,0.217793701171875,9.364311218261719,3.462414264678955,-0.3164508044719696
1761396578725171000,0.2371708984375,9.18724250793457,3.424727439880371,-0.15972091257572174
1761396578744548400,0.25654833984375,9.329615592956543,3.4366915225982666,0.01196411345154047
1761396578763925500,0.275925537109375,9.555737495422363,3.6119658946990967,-0.07836493849754333
1761396578783303000,0.295302978515625,9.891928672790527,3.565305709838867,-0.10408778488636017
1761396578802680000,0.31468017578125,9.734601020812988,3.4133615493774414,0.1052841991186142
1761396578822057500,0.334057373046875,9.274580955505371,3.3607194423675537,0.28953152894973755
1761396578841434600,0.3534345703125,9.065208435058594,3.7567315101623535,0.21655045449733734
1761396578860812000,0.37281201171875,10.076774597167969,3.7531423568725586,0.1136590763926506
1761396578880189200,0.392189208984375,9.139984130859375,3.8566319942474365,0.1333998590707779
1761396578899566600,0.411566650390625,8.418548583984375,3.331407308578491,-0.11844471842050552
1761396578918944000,0.430944091796875,7.976474285125732,2.159522533416748,0.3026920557022095
1761396578938321200,0.450321044921875,8.718847274780273,2.7176482677459717,-0.4414757788181305
1761396578957698300,0.4696982421875,9.508479118347168,3.576073408126831,-0.97926265001297
1761396578977075700,0.48907568359375,9.714262008666992,3.3475589752197266,-1.072582721710205
1761396578996452900,0.508452880859375,9.633503913879395,2.857030153274536,0.3361915946006775
1761396579015816700,0.527816650390625,7.413562774658203,2.496910333633423,0.01615155301988125
1761396579035207700,0.547207763671875,6.515655994415283,4.205984115600586,-1.0342975854873657
1761396579054584800,0.566584716796875,8.221738815307617,5.201996326446533,-2.1607189178466797
1761396579073962200,0.585962158203125,9.633503913879395,5.4526448249816895,-2.63449764251709
1761396579093339400,0.60533935546875,7.797610759735107,4.831707000732422,-1.919043779373169
1761396579112716800,0.624716796875,9.294321060180664,3.6957144737243652,2.1128623485565186
1761396579132080400,0.644080322265625,10.499107360839844,1.8753747940063477,6.784250259399414
1761396579151471400,0.663471435546875,9.602396965026855,0.924227774143219,3.558725595474243
1761396579170848500,0.6828486328125,8.415556907653809,3.311666488647461,-1.3052847385406494
1761396579190226000,0.702225830078125,8.840283393859863,3.1926236152648926,-0.33858439326286316
1761396579209603000,0.72160302734375,10.327422142028809,2.6159534454345703,1.6480566263198853
1761396579228980500,0.74098046875,8.948558807373047,2.9030921459198,2.007578134536743
1761396579248357600,0.760357666015625,7.406384468078613,3.5736806392669678,1.4261223077774048
1761396579267735000,0.779735107421875,9.717850685119629,3.603590965270996,0.5629115104675293
1761396579287112200,0.7991123046875,10.906485557556152,4.022335052490234,0.26560330390930176
1761396579306476000,0.81847607421875,8.039883613586426,3.8566319942474365,2.035693883895874
1761396579325867000,0.837866943359375,9.31884765625,4.082155227661133,3.057429075241089
1761396579345244200,0.857244140625,11.604591369628906,4.412364959716797,1.597209095954895
1761396579364608000,0.87660791015625,12.798011779785156,5.280959606170654,1.2167502641677856
1761396579383998700,0.895998779296875,14.609976768493652,5.7786664962768555,2.4388844966888428
1761396579403376000,0.915376220703125,14.775679588317871,6.2500529289245605,2.465803623199463
1761396579422739700,0.93473974609375,15.477972984313965,6.583851337432861,1.3567304611206055
1761396579442130700,0.954130615234375,15.53779411315918,6.302694797515869,1.7718851566314697
1761396579461507800,0.9735078125,14.169098854064941,5.993422508239746,3.9672999382019043
1761396579480871700,0.99287158203125,11.014760971069336,5.627918720245361,6.463014125823975
1761396579500262400,1.012262451171875,7.835297584533691,5.162514686584473,7.3776702880859375
1761396579519639800,1.031639892578125,5.61954402923584,3.93679141998291,7.343572616577148
1761396579539003600,1.051003662109375,2.462812662124634,2.5902304649353027,5.179264545440674
1761396579558394400,1.070394287109375,0.8159525394439697,1.2951152324676514,2.390429735183716
1761396579577771500,1.089771484375,1.3776676654815674,0.22612173855304718,0.16749759018421173
1761396579597135400,1.10913525390625,2.609971284866333,-0.18364913761615753,-0.9176474809646606
1761396579616526000,1.128526123046875,2.589034080505371,-0.0771685317158699,-0.7058826684951782
1761396579635903500,1.147903564453125,1.9178473949432373,0.22073788940906525,-0.9834501147270203
1761396579655280600,1.16728076171875,1.9591234922409058,1.0037890672683716,-1.3519448041915894
1761396579674658000,1.186657958984375,3.8979079723358154,1.8167506456375122,-1.4452649354934692
1761396579694035500,1.206035400390625,7.768298625946045,2.819941520690918,0.6843472719192505
1761396579713399000,1.22539892578125,13.98963737487793,2.89890456199646,4.0456647872924805
1761396579732790000,1.2447900390625,18.9260311126709,3.9284164905548096,1.0773683786392212
1761396579752167200,1.264167236328125,19.694725036621094,7.825128078460693,-0.9026923179626465
1761396579771531000,1.283531005859375,14.593825340270996,10.76830005645752,1.9172492027282715
1761396579790921700,1.302921630859375,12.011371612548828,12.52283763885498,0.8781659007072449
1761396579810299100,1.322299072265625,16.744972229003906,11.103893280029297,1.6151553392410278
1761396579829663000,1.3416630859375,21.501306533813477,8.802596092224121,2.8977081775665283
1761396579849053700,1.3610537109375,19.860427856445312,7.786244869232178,2.908475875854492
1761396579868430800,1.380430908203125,10.932806968688965,7.179664134979248,1.8131613731384277
1761396579887794700,1.399794677734375,1.7688941955566406,6.227919101715088,-0.11485548317432404
1761396579907185700,1.419185546875,-3.527618885040283,4.046263217926025,0.9308080077171326
1761396579926562800,1.438562744140625,-4.751547336578369,1.1156535148620605,1.6342978477478027
1761396579945926700,1.4579267578125,-3.043670415878296,-1.9728822708129883,0.4666004180908203
1761396579965317400,1.4773173828125,-0.47916272282600403,-3.050848960876465,-1.4554343223571777
1761396579984694800,1.49669482421875,1.0426725149154663,-3.177070379257202,-3.0376882553100586
1761396580004058400,1.516058349609375,-0.46719861030578613,-2.5776681900024414,-3.256033420562744
1761396580023449300,1.535449462890625,-2.65423846244812,-1.9172492027282715,-2.9306094646453857
1761396580042826500,1.554826416015625,-0.9068797826766968,-0.9050851464271545,-3.5533416271209717
1761396580062190300,1.5741904296875,3.267399311065674,0.1495514214038849,-3.9260237216949463
1761396580081581000,1.5935810546875,3.3553354740142822,2.734398126602173,-2.114656925201416
1761396580100958500,1.61295849609375,-3.345165967941284,10.268199920654297,-4.7503509521484375
1761396580120322300,1.632322265625,2.3192434310913086,15.349359512329102,-3.6293137073516846
1761396580139713000,1.651713134765625,39.157344818115234,13.143177032470703,9.22253704071045
1761396580159090200,1.671090087890625,62.65247344970703,9.133403778076172,8.960522651672363
1761396580178454000,1.6904541015625,50.443092346191406,13.031311988830566,2.538186550140381
1761396580197845000,1.709844970703125,23.496322631835938,14.380864143371582,5.405386447906494
1761396580217222100,1.72922216796875,2.9527430534362793,13.153346061706543,5.995217323303223
1761396580236586000,1.7485859375,-6.409773826599121,8.763712882995605,7.307680130004883
1761396580255976700,1.767976806640625,-10.354940414428711,3.074777126312256,4.869394302368164
1761396580275354000,1.78735400390625,-8.843274116516113,-1.7563318014144897,2.6937201023101807
1761396580294718000,1.806718017578125,-7.304689407348633,-4.8675994873046875,-0.4384847581386566
1761396580314108700,1.826108642578125,-5.644070625305176,-6.761518478393555,-1.088136076927185
1761396580333485800,1.84548583984375,-5.253442287445068,-6.728617191314697,-4.320241451263428
1761396580352863200,1.86486328125,-5.215754985809326,-4.76530647277832,-2.6626133918762207
1761396580372240400,1.884240478515625,-6.858428001403809,-2.833700180053711,0.45284169912338257
1761396580391617800,1.90361767578125,-6.064609050750732,-0.29431718587875366,0.8350951075553894
1761396580410981600,1.922981689453125,-0.43130627274513245,2.1918256282806396,1.6564314365386963
1761396580430372400,1.942372314453125,8.808578491210938,6.880561351776123,1.8179470300674438
1761396580449749800,1.961749755859375,22.314268112182617,12.827323913574219,0.2721835672855377
1761396580469113300,1.98111328125,30.33799934387207,15.64247989654541,4.604987144470215
1761396580488504300,2.00050439453125,41.87678909301758,12.608380317687988,13.747364044189453
1761396580507881500,2.019881591796875,52.84608459472656,10.065408706665039,9.064610481262207
1761396580527245300,2.039245361328125,40.344783782958984,11.770893096923828,2.0207388401031494
1761396580546636000,2.058635986328125,19.444076538085938,12.932608604431152,4.598406791687012
1761396580566013400,2.078013427734375,1.5864413976669312,11.462817192077637,7.871788501739502
1761396580585377300,2.097377197265625,-8.840283393859863,7.465606689453125,6.935596466064453
1761396580604768000,2.11676806640625,-9.462417602539062,2.5184457302093506,3.4504501819610596
1761396580624145400,2.1361455078125,-5.870192050933838,-2.4562325477600098,0.35054850578308105
1761396580643509000,2.155509033203125,-2.8013970851898193,-5.951548099517822,-3.0454649925231934
1761396580662900000,2.17489990234375,-1.8047864437103271,-6.771090030670166,-4.703691005706787
1761396580682277000,2.194277099609375,-5.578866004943848,-5.879165172576904,-3.087339401245117
1761396580701641000,2.213640869140625,-9.32602596282959,-3.463610887527466,-1.7216359376907349
1761396580721031700,2.23303173828125,-7.762914657592773,-0.8817551732063293,0.061016976833343506
1761396580740409000,2.2524091796875,-1.892722725868225,1.6420745849609375,0.7034898400306702
1761396580759773000,2.27177294921875,6.9475603103637695,6.154339790344238,-0.5377869009971619
1761396580779163600,2.29116357421875,16.16770362854004,10.352546691894531,-1.052243709564209
1761396580798540800,2.310540771484375,23.479572296142578,13.816158294677734,4.278964996337891
1761396580817904600,2.329904541015625,30.3972225189209,12.480962753295898,5.829514026641846
1761396580837295600,2.349295654296875,38.05305862426758,10.421340942382812,1.6683956384658813
1761396580856672800,2.3686728515625,34.96571731567383,11.01416301727295,-0.5306084156036377
1761396580876036600,2.38803662109375,19.470996856689453,11.503495216369629,-0.1495514214038849
1761396580895427300,2.40742724609375,4.1036906242370605,10.003194808959961,3.321237802505493
1761396580914804700,2.4268046875,-5.100899696350098,6.626922130584717,6.427719593048096
1761396580934168600,2.44616845703125,-6.2530436515808105,2.7834508419036865,2.726621389389038
1761396580953559300,2.465559326171875,-2.1128623485565186,-0.6705885529518127,-1.6959130764007568
1761396580972936700,2.484936767578125,0.4995017349720001,-2.1032910346984863,-3.152543783187866
1761396580992300300,2.50430029296875,-0.3732803463935852,-2.517249345779419,-2.297109842300415
1761396581011691300,2.523691162109375,-3.6681971549987793,-2.0572292804718018,-1.5361921787261963
1761396581031068400,2.543068359375,-7.024729251861572,-1.2849457263946533,-0.31764721870422363
1761396581050432300,2.562432373046875,-6.44686222076416,0.39421752095222473,-1.4691931009292603
1761396581069823000,2.581822998046875,-3.3379876613616943,1.8245272636413574,-2.7936203479766846
1761396581089200400,2.601200439453125,3.046661376953125,3.597608804702759,-0.6317051649093628
1761396581108564200,2.620564208984375,13.771890640258789,6.135795593261719,3.4959139823913574
1761396581127955000,2.639954833984375,21.461824417114258,9.329615592956543,2.6368906497955322
1761396581147337700,2.659337646484375,18.615562438964844,13.468002319335938,2.0309081077575684
1761396581166701600,2.67870166015625,17.677576065063477,14.413764953613281,2.792423963546753
1761396581186092300,2.69809228515625,22.728824615478516,12.4540433883667,2.0470597743988037
1761396581205469700,2.7174697265625,28.018157958984375,10.690533638000488,0.09272187948226929
1761396581224833300,2.736833251953125,27.513273239135742,10.243075370788574,-1.2430713176727295
1761396581244224300,2.756224365234375,18.882959365844727,10.185647964477539,-1.3830515146255493
1761396581263601400,2.775601318359375,8.072187423706055,9.493523597717285,0.997208833694458
1761396581282965200,2.79496533203125,1.557727575302124,7.475776195526123,4.662415027618408
1761396581302356000,2.81435595703125,-0.3278166949748993,4.768895626068115,4.173680782318115
1761396581321733400,2.8337333984375,-0.064606212079525,1.7222341299057007,0.6071787476539612
1761396581341097200,2.85309716796875,1.3674981594085693,-0.8279166221618652,-1.420140266418457
1761396581360488000,2.872488037109375,1.217348575592041,-2.004587173461914,-1.2801600694656372
1761396581379865000,2.891864990234375,-1.784447431564331,-1.8849459886550903,0.1256231814622879
1761396581399229000,2.91122900390625,-3.8327035903930664,-1.1186445951461792,0.15672987699508667
1761396581418620000,2.930619873046875,-1.8801604509353638,0.5353940725326538,-0.97926265001297
1761396581437997000,2.9499970703125,1.5242279767990112,2.266601324081421,-0.3720839321613312
1761396581457361000,2.96936083984375,4.78385066986084,4.298107624053955,0.08554340898990631
1761396581476751600,2.988751708984375,7.919046401977539,6.925426959991455,-0.7106683254241943
1761396581496129000,3.00812890625,10.423733711242676,11.036295890808105,-0.8428717851638794
1761396581515492900,3.027492919921875,9.019744873046875,15.093326568603516,-2.2193429470062256
1761396581534883600,3.046883544921875,9.407979965209961,15.112469673156738,-2.4430718421936035
1761396581554261000,3.066260986328125,20.917457580566406,13.425529479980469,-0.8267202377319336
1761396581573624600,3.08562451171875,31.8406925201416,11.344970703125,-0.9828519225120544
1761396581593015600,3.105015625,26.884559631347656,11.435897827148438,-1.4404792785644531
1761396581612392700,3.124392822265625,11.665608406066895,11.071590423583984,3.5605201721191406
1761396581631756500,3.143756591796875,-0.42352959513664246,9.255437850952148,3.989433526992798
1761396581651147300,3.163147216796875,-3.149552822113037,5.654240131378174,0.7812566161155701
1761396581670524700,3.182524658203125,1.6971094608306885,2.5836503505706787,-1.2574282884597778
1761396581689888500,3.201888427734375,5.5591254234313965,0.6640082597732544,-1.124626636505127
1761396581709279200,3.221279296875,3.9391841888427734,-0.08315058797597885,-1.2658032178878784
1761396581728656600,3.24065673828125,1.475175142288208,-0.5335994362831116,-1.973480463027954
1761396581748020500,3.2600205078125,0.529412031173706,-0.5120640397071838,-2.3336002826690674
1761396581767411200,3.2794111328125,0.9284151792526245,-0.3326023519039154,-1.3298112154006958
1761396581786788400,3.298788330078125,2.0745773315429688,0.7740781307220459,-0.31824541091918945
1761396581806152200,3.318152099609375,2.977867841720581,2.4029922485351562,0.7070791125297546
1761396581825543000,3.33754296875,4.394418716430664,4.419543266296387,1.6546368598937988
1761396581844920300,3.35692041015625,7.729415416717529,7.557730197906494,0.4055834412574768
1761396581864284200,3.3762841796875,8.439485549926758,11.307283401489258,-1.129412293434143
1761396581883675000,3.3956748046875,6.656832695007324,13.905290603637695,1.373480200767517
1761396581903052300,3.41505224609375,9.098708152770996,13.571492195129395,2.9030921459198
1761396581922416000,3.434416015625,17.40718650817871,13.464412689208984,-2.746960401535034
1761396581941806800,3.453806884765625,22.42134666442871,13.296915054321289,-4.9639105796813965
1761396581961184000,3.47318408203125,22.1545467376709,12.890135765075684,-0.5712863802909851
1761396581980547800,3.4925478515625,15.230316162109375,11.992228507995605,4.6372904777526855
1761396581999938800,3.511938720703125,5.149952411651611,10.3681001663208,3.858426570892334
1761396582019316000,3.53131591796875,-0.015553346835076809,7.084549427032471,1.6402798891067505
1761396582038679800,3.5506796875,-0.24825534224510193,4.323232173919678,1.557727575302124
1761396582058070500,3.570070556640625,5.144568920135498,1.9208383560180664,2.6255247592926025
1761396582077448000,3.589447998046875,8.10807991027832,0.7812566161155701,0.865005373954773
1761396582096811800,3.608811767578125,1.8490537405014038,1.0719845294952393,-1.2197413444519043
1761396582116202500,3.628202392578125,-2.2468605041503906,1.1210373640060425,-0.243469700217247
1761396582135580000,3.647579833984375,-1.28255295753479,0.6909275650978088,0.31465616822242737
1761396582154957000,3.66695703125,1.2801600694656372,0.8051848411560059,-0.5479564070701599
1761396582174334500,3.68633447265625,2.3611178398132324,1.841277003288269,-0.4989035129547119
1761396582193711600,3.705711669921875,4.673182487487793,2.7571299076080322,0.542572557926178
1761396582213075500,3.725075439453125,5.96889591217041,4.2825541496276855,-0.2955136001110077
1761396582232466400,3.744466552734375,6.583253383636475,7.083951473236084,-2.5046870708465576
1761396582251843600,3.763843505859375,6.4289164543151855,11.71286678314209,-1.9513468742370605
1761396582271207400,3.78320751953125,5.6446685791015625,15.565909385681152,-0.8380861282348633
1761396582290598100,3.80259814453125,7.139584541320801,15.171093940734863,-1.3908281326293945
1761396582309975600,3.8219755859375,17.25225067138672,14.71645736694336,-2.0709879398345947
1761396582329339400,3.84133935546875,26.65365219116211,13.662419319152832,-0.7627122402191162
1761396582348730000,3.860730224609375,24.952354431152344,13.484153747558594,1.2819547653198242
1761396582368107500,3.880107421875,14.520245552062988,12.373286247253418,3.102294445037842
1761396582387471000,3.89947119140625,5.5381879806518555,9.330811500549316,2.3090739250183105
1761396582406862000,3.918862060546875,0.6556333899497986,5.718247890472412,0.0933200865983963
1761396582426239200,3.9382392578125,-2.2259232997894287,2.2265214920043945,0.7776673436164856
1761396582445603000,3.95760302734375,-3.218944549560547,-1.2705888748168945,1.6199408769607544
1761396582464993800,3.976993896484375,0.21954147517681122,-4.277170658111572,0.20159530639648438
1761396582484371200,3.99637109375,2.624328136444092,-5.292923450469971,-1.1802598237991333
1761396582503735000,4.015735107421875,0.17288143932819366,-4.389034748077393,-0.8859425783157349
1761396582523125800,4.035125732421875,-3.9571304321289062,-2.946761131286621,0.20578274130821228
1761396582542503200,4.054503173828125,-6.345765590667725,-1.6959130764007568,0.924227774143219
1761396582561867000,4.073866943359375,-5.298307418823242,0.3367897868156433,0.38344982266426086
1761396582581257700,4.0932578125,-1.4225330352783203,1.6911274194717407,-0.7830511927604675
1761396582600635000,4.112634765625,2.8660032749176025,4.003790378570557,-1.9782661199569702
1761396582619998700,4.131998779296875,7.929215908050537,7.605587005615234,-4.549952030181885
1761396582639389700,4.1513896484375,12.902099609375,11.484950065612793,-4.850849628448486
1761396582658766800,4.170766845703125,16.0103759765625,11.81755256652832,-2.8594231605529785
1761396582678130700,4.190130615234375,23.275583267211914,8.373682975769043,3.3607194423675537
1761396582697521400,4.209521484375,34.22633743286133,4.263411521911621,7.63729190826416
1761396582716898800,4.22889892578125,29.531021118164062,4.502694129943848,0.01375873014330864
1761396582736262700,4.2482626953125,16.89691734313965,5.230112075805664,-1.2735798358917236
1761396582755653400,4.2676533203125,11.283953666687012,6.87517786026001,1.1204391717910767
1761396582775030800,4.28703076171875,1.1802598237991333,7.822137355804443,1.8957136869430542
1761396582794394600,4.30639453125,-4.208974838256836,7.204190731048584,3.2446675300598145
1761396582813785300,4.325785400390625,-3.2482566833496094,5.592026710510254,4.524827480316162
1761396582833162500,4.34516259765625,1.3124631643295288,4.501497745513916,1.7072789669036865
1761396582852526300,4.3645263671875,6.278766632080078,3.9086756706237793,-1.3148560523986816
1761396582871917300,4.383917236328125,9.037691116333008,3.62153697013855,-2.884547710418701
1761396582891294500,4.40329443359375,7.574480056762695,3.5910286903381348,-3.5467612743377686
1761396582910658300,4.422658203125,4.067798614501953,3.617349624633789,-1.4057832956314087
1761396582930049000,4.442049072265625,1.6031911373138428,3.1064820289611816,0.8350951075553894
1761396582949426400,4.461426513671875,4.4997029304504395,2.090130567550659,-0.8656035661697388
1761396582968790300,4.480790283203125,14.495121002197266,1.064207911491394,-0.8745766878128052
1761396582988181000,4.500180908203125,23.51486587524414,-0.3236292600631714,2.3874387741088867
1761396583007558400,4.519558349609375,20.11107635498047,3.2201411724090576,0.31824541091918945
1761396583026922200,4.538922119140625,15.725630760192871,3.1645078659057617,9.76391315460205
1761396583046313000,4.55831298828125,23.46222496032715,0.48095735907554626,16.520645141601562
1761396583065690400,4.5776904296875,26.93779945373535,-0.12801600992679596,8.401798248291016
1761396583085054000,4.597053955078125,16.75394630432129,2.0380866527557373,0.2560320198535919
1761396583104445000,4.61644482421875,7.426723480224609,3.817748546600342,0.05024927482008934
1761396583123822000,4.635822021484375,3.1866414546966553,4.408775806427002,2.38265323638916
1761396583143186000,4.65518603515625,-0.8709874153137207,3.4235310554504395,4.36091947555542
1761396583162577000,4.674576904296875,-2.8905298709869385,2.66560435295105,5.260022163391113
1761396583181954000,4.6939541015625,-2.4287149906158447,2.462812662124634,4.419543266296387
1761396583201318000,4.71331787109375,1.3417752981185913,2.0033907890319824,0.9834501147270203
1761396583220708600,4.73270849609375,3.197409152984619,1.9202401638031006,-0.8105686902999878
1761396583240086000,4.7520859375,3.0185458660125732,1.25144624710083,-2.813361167907715
1761396583259463200,4.771463134765625,3.3643085956573486,1.1270195245742798,-3.538386583328247
1761396583278840600,4.790840576171875,4.367499351501465,1.415354609489441,-0.05563312768936157
1761396583298218000,4.810218017578125,8.71346378326416,1.9423737525939941,2.504088878631592
1761396583317581600,4.82958154296875,14.820545196533203,2.2169501781463623,4.468596458435059
1761396583336972500,4.84897265625,19.451255798339844,2.661417007446289,9.193224906921387
1761396583356349700,4.868349609375,22.648664474487305,3.747758388519287,14.170893669128418
1761396583375713500,4.887713623046875,27.416961669921875,4.35673189163208,22.34417724609375
1761396583395104300,4.907104248046875,29.265417098999023,2.9730820655822754,25.26641273498535
1761396583414481700,4.926481689453125,26.5860538482666,2.227717876434326,12.226127624511719
1761396583433845500,4.945845458984375,17.635700225830078,2.888735055923462,1.526620864868164
1761396583453236200,4.965236328125,8.61475944519043,3.497708559036255,-0.028115665540099144
1761396583472613600,4.984613525390625,1.9519450664520264,3.5048868656158447,1.7126628160476685
1761396583491977500,5.0039775390625,-5.603392601013184,2.5902304649353027,3.098107099533081
1761396583511368200,5.0233681640625,-7.029514789581299,1.8693926334381104,2.659024238586426
1761396583530745600,5.04274560546875,-5.702096462249756,1.7060825824737549,0.8027920126914978
1761396583550109400,5.062109375,-4.414159774780273,1.4386845827102661,-0.7818548083305359
1761396583569500200,5.081500244140625,-1.801795482635498,0.6771687865257263,-1.3268201351165771
1761396583588877600,5.100877685546875,-2.6967110633850098,0.6550351977348328,-3.5150563716888428
1761396583608241200,5.1202412109375,-4.235296249389648,0.2967100143432617,-2.5806591510772705
1761396583627632000,5.139632080078125,-3.260220766067505,0.31764721870422363,-2.523829698562622
1761396583647009300,5.15900927734375,4.265206336975098,1.1210373640060425,-2.84087872505188
1761396583666373000,5.178373046875,18.221343994140625,1.695314884185791,4.272983074188232
1761396583685763800,5.197763916015625,28.452455520629883,2.6392834186553955,7.384250640869141
1761396583705141200,5.217141357421875,26.718257904052734,3.903291940689087,6.141179084777832
1761396583724505000,5.236505126953125,28.833513259887695,4.491328239440918,16.57986831665039
1761396583743895800,5.255895751953125,32.94198989868164,2.6452653408050537,19.946569442749023
1761396583763273200,5.275273193359375,26.650659561157227,1.5326029062271118,8.091927528381348
1761396583782637000,5.294636962890625,17.58126449584961,2.2127628326416016,-0.7304090857505798
1761396583802027800,5.31402783203125,8.886942863464355,2.659024238586426,-1.2550355195999146
1761396583821405000,5.333405029296875,-0.9756734371185303,3.008974552154541,0.32243284583091736
1761396583840768800,5.352768798828125,-7.591827869415283,2.3437697887420654,2.633899450302124
1761396583860159700,5.37215966796875,-6.003592014312744,0.47916272282600403,3.0065815448760986
1761396583879537000,5.391536865234375,-2.1062822341918945,-0.05922235921025276,-0.24287149310112
1761396583898900700,5.410900634765625,-0.31824541091918945,-0.12083754688501358,-2.430509567260742
1761396583918291500,5.43029150390625,-0.06041877344250679,0.5569294691085815,-3.9355950355529785
1761396583937668900,5.4496689453125,-1.8969101905822754,1.2939188480377197,-2.4113669395446777
1761396583957032700,5.46903271484375,-1.6271194219589233,2.0033907890319824,0.5688936114311218
1761396583976423400,5.48842333984375,3.7292141914367676,2.0853450298309326,0.8039883971214294
1761396583995800800,5.50780078125,10.800004959106445,2.193620204925537,0.12502498924732208
1761396584015164700,5.52716455078125,15.783656120300293,2.0997018814086914,1.3962119817733765
1761396584034555400,5.546555419921875,21.065214157104492,2.4227328300476074,0.7399803996086121
1761396584053932800,5.565932861328125,24.006591796875,3.2679975032806396,-1.9262222051620483
1761396584073296600,5.585296630859375,21.868005752563477,2.8247270584106445,0.10229317098855972
1761396584092687400,5.604687255859375,20.707487106323242,1.5858432054519653,7.116852760314941
1761396584112064500,5.624064453125,22.57269287109375,0.1417747437953949,12.6945219039917
1761396584131428400,5.643428466796875,20.041086196899414,0.666999340057373,7.022336483001709
1761396584150819300,5.6628193359375,13.71924877166748,2.0961127281188965,0.28893333673477173
1761396584170196500,5.682196533203125,7.918448448181152,3.0861430168151855,-0.08195417374372482
1761396584189560300,5.701560302734375,1.2317054271697998,3.2745778560638428,0.8422735929489136
1761396584208951000,5.720950927734375,-3.160918712615967,2.4323041439056396,2.2235305309295654
1761396584228328400,5.740328369140625,-1.3208380937576294,0.5916253924369812,2.4125633239746094
1761396584247692300,5.7596923828125,0.5341976284980774,-0.3074777126312256,0.14416755735874176
1761396584267083000,5.7790830078125,0.44805604219436646,-0.7399803996086121,-0.20877377688884735
1761396584286460400,5.79846044921875,-0.5473581552505493,-1.3148560523986816,-1.5182459354400635
1761396584305824300,5.81782421875,0.07836493849754333,-2.0476579666137695,-4.8089752197265625
1761396584325215000,5.837215087890625,0.8679963946342468,-3.0251259803771973,-7.292725086212158
1761396584344592400,5.85659228515625,-0.503689169883728,-3.671786308288574,-8.400602340698242
1761396584363956200,5.875956298828125,-3.802793502807617,-4.007379531860352,-8.048258781433105
1761396584383347000,5.895346923828125,-3.0412776470184326,-4.82751989364624,-5.947958946228027
1761396584402724000,5.91472412109375,-0.5096712112426758,-4.350749969482422,-0.6227321028709412
1761396584422088000,5.934087890625,2.1415762901306152,-4.499104976654053,8.73200798034668
1761396584441479000,5.95347900390625,10.028918266296387,-5.100899696350098,11.1104736328125
1761396584460856000,5.97285595703125,19.242481231689453,-5.715855121612549,22.507488250732422
1761396584480220000,5.992219970703125,24.591636657714844,-3.4331023693084717,41.28636169433594
1761396584499610600,6.011610595703125,29.780471801757812,-0.6735795736312866,50.85944366455078
1761396584518988000,6.030988037109375,30.035308837890625,1.171286702156067,44.503509521484375
1761396584538351900,6.050351806640625,18.59462547302246,2.778067111968994,27.76152801513672
1761396584557742600,6.06974267578125,8.544171333312988,3.7663028240203857,15.143576622009277
1761396584577120000,6.0891201171875,1.409970760345459,4.297509670257568,8.210970878601074
1761396584596483800,6.10848388671875,-5.179862976074219,3.813561201095581,3.4139597415924072
1761396584615874600,6.12787451171875,-8.338388442993164,2.1481566429138184,-0.14476576447486877
1761396584635252000,6.147251953125,-7.205387115478516,-0.20877377688884735,-3.6472599506378174
1761396584654615600,6.166615478515625,-1.6755740642547607,-2.6662025451660156,-9.845269203186035
1761396584674006500,6.186006591796875,2.586043119430542,-3.9152560234069824,-14.315659523010254
1761396584693383700,6.2053837890625,1.1700903177261353,-4.496711730957031,-15.317055702209473
1761396584712747500,6.22474755859375,-3.4337005615234375,-4.340580463409424,-13.417753219604492
1761396584732138500,6.244138427734375,-4.718646049499512,-3.9326040744781494,-7.880163192749023
1761396584751515600,6.263515625,-4.094717979431152,-3.315255880355835,-1.9669002294540405
1761396584770879500,6.28287939453125,-0.21774685382843018,-1.1060823202133179,7.122236728668213
1761396584790270500,6.3022705078125,6.569494724273682,4.972883701324463,23.056041717529297
1761396584809647600,6.321647705078125,15.474384307861328,6.067001819610596,51.431331634521484
1761396584829011500,6.341011474609375,14.335400581359863,4.418346881866455,46.959144592285156
1761396584848402200,6.360402099609375,21.163917541503906,2.4711875915527344,37.71088409423828
1761396584867779600,6.379779541015625,17.837894439697266,-0.02632104977965355,28.721649169921875
1761396584887143400,6.399143310546875,19.75873374938965,-0.7746763229370117,14.601601600646973
1761396584906534100,6.4185341796875,18.75255012512207,-1.3004990816116333,5.155934810638428
1761396584925911600,6.43791162109375,9.818349838256836,-1.2652050256729126,0.4007977843284607
1761396584945275400,6.457275390625,0.849452018737793,-1.3094722032546997,-2.5363919734954834
1761396584964666000,6.476666015625,-4.374079704284668,-1.6205391883850098,-2.7182464599609375
1761396584984043500,6.49604345703125,-7.1886372566223145,-2.234896421432495,-2.2881367206573486
1761396585003407400,6.515407470703125,-6.186643123626709,-2.7768707275390625,-2.6297121047973633
1761396585022798000,6.534798095703125,-4.0528435707092285,-3.2823543548583984,-3.7016966342926025
1761396585042175500,6.554175537109375,-1.4171491861343384,-3.424727439880371,-4.816751956939697
1761396585061539000,6.5735390625,-2.524427890777588,-3.3481571674346924,-5.944369792938232
1761396585080930000,6.592929931640625,-4.438685894012451,-2.885145902633667,-5.817550182342529
1761396585100307200,6.61230712890625,-4.601995944976807,-1.7766708135604858,-2.7738797664642334
1761396585119671000,6.631671142578125,-2.988037347793579,-0.4456632137298584,1.6552350521087646
1761396585139061800,6.651061767578125,3.0000014305114746,1.581655740737915,6.931408882141113
1761396585158439200,6.670439208984375,13.565509796142578,3.0065815448760986,14.860026359558105
1761396585177803000,6.689802978515625,26.46282386779785,3.848257064819336,23.43410873413086
1761396585197193700,6.70919384765625,35.799617767333984,5.548955917358398,32.396427154541016
1761396585216571100,6.728571044921875,36.15495300292969,5.913262844085693,37.79044723510742
1761396585235935000,6.74793505859375,27.92842674255371,5.185844898223877,28.256244659423828
1761396585255325700,6.76732568359375,19.752153396606445,4.1389851570129395,13.458431243896484
1761396585274703000,6.786703125,10.520044326782227,3.245863914489746,5.44845724105835
1761396585294067000,6.80606689453125,-0.46360939741134644,2.830111026763916,1.906481385231018
1761396585313457700,6.825457763671875,-9.727422714233398,2.0057835578918457,1.212562918663025
1761396585332835000,6.8448349609375,-13.702498435974121,0.30987054109573364,1.0169496536254883
1761396585352198700,6.86419873046875,-10.783853530883789,-1.5601203441619873,-0.0364905446767807
1761396585371589600,6.883589599609375,-4.988437175750732,-2.919243574142456,-2.6733810901641846
1761396585390966800,6.902966796875,-0.33798620104789734,-2.9766714572906494,-5.885745525360107
1761396585410330600,6.92233056640625,0.9559326171875,-2.8390841484069824,-6.982854843139648
1761396585429721600,6.9417216796875,-1.8005990982055664,-2.3880369663238525,-6.5288166999816895
1761396585449098800,6.9610986328125,-5.062614440917969,-1.8831514120101929,-5.012365341186523
1761396585468462600,6.980462646484375,-6.355337142944336,-0.916451096534729,-2.6141586303710938
1761396585487853600,6.999853515625,-1.7252250909805298,0.841675341129303,1.1234302520751953
1761396585507230700,7.019230712890625,7.6869425773620605,3.648456335067749,8.870193481445312
1761396585526594600,7.038594482421875,20.433509826660156,5.950351715087891,20.656042098999023
1761396585545985300,7.0579853515625,33.1035041809082,8.33719253540039,28.651060104370117
1761396585565362700,7.07736279296875,34.0283317565918,9.998409271240234,32.17927551269531
1761396585584726500,7.0967265625,26.786453247070312,10.119845390319824,30.440292358398438
1761396585604117200,7.1161171875,23.174488067626953,7.978269100189209,24.119651794433594
1761396585623494700,7.13549462890625,19.664813995361328,4.770092010498047,13.173685073852539
1761396585642858500,7.1548583984375,13.742578506469727,2.8325037956237793,3.850649833679199
1761396585662249200,7.174249267578125,6.0849480628967285,1.4644074440002441,-0.37806597352027893
1761396585681626600,7.193626708984375,-2.68534517288208,0.10468599200248718,-1.0085747241973877
1761396585700990200,7.212990234375,-11.22772216796875,-1.3310075998306274,-1.540379524230957
1761396585720381200,7.232381103515625,-14.492130279541016,-2.6039891242980957,-1.3567304611206055
1761396585739758300,7.25175830078125,-11.633903503417969,-3.6053855419158936,-2.313859462738037
1761396585759122200,7.2711220703125,-7.654639720916748,-3.8590247631073,-5.761318683624268
1761396585778513200,7.29051318359375,-4.648656368255615,-3.3469607830047607,-6.464210510253906
1761396585797890300,7.309890380859375,-3.9631125926971436,-2.1122641563415527,-5.088337421417236
1761396585817254100,7.329254150390625,-6.498906135559082,-0.8691928386688232,-2.8863422870635986
1761396585836644900,7.348644775390625,-7.001997470855713,0.5928218364715576,-1.3692927360534668
1761396585856022300,7.368022216796875,-2.77866530418396,3.1555347442626953,0.9930213689804077
1761396585875386000,7.38738623046875,10.412965774536133,5.879165172576904,8.678768157958984
1761396585894776800,7.40677685546875,31.70549774169922,7.95434045791626,20.05484390258789
1761396585914154200,7.426154296875,41.36412811279297,9.993623733520508,20.385652542114258
1761396585933518000,7.44551806640625,40.1312255859375,10.136594772338867,16.094722747802734
1761396585952908800,7.46490869140625,37.38127517700195,8.307880401611328,16.147964477539062
1761396585972286200,7.4842861328125,29.73919677734375,6.376872539520264,11.364112854003906
1761396585991650000,7.503650146484375,15.90269947052002,5.664409637451172,5.037489891052246
1761396586011040800,7.523040771484375,3.975076675415039,5.376672267913818,2.0931215286254883
1761396586030418200,7.542418212890625,-5.00578498840332,4.711467742919922,1.459621787071228
1761396586049781800,7.56178173828125,-10.29033374786377,2.8695926666259766,2.094916343688965
1761396586069172700,7.5811728515625,-10.683355331420898,0.6921239495277405,2.7014968395233154
1761396586088550000,7.6005498046875,-9.262018203735352,-1.0462616682052612,1.5876377820968628
1761396586107913700,7.619913818359375,-6.487540245056152,-2.1475582122802734,-1.5553346872329712
1761396586127304700,7.6393046875,-4.135395526885986,-2.11405873298645,-4.502694129943848
1761396586146681900,7.658681884765625,-3.8291144371032715,-1.9423737525939941,-4.820939540863037
1761396586166059300,7.678059326171875,-4.612165451049805,-1.0660024881362915,-3.844667673110962
1761396586185436400,7.6974365234375,-5.253442287445068,0.16331014037132263,-1.5649060010910034
1761396586204813800,7.716813720703125,-1.5637096166610718,2.6967110633850098,0.3487538993358612
1761396586224177700,7.736177734375,10.622936248779297,5.309673309326172,4.770689964294434
1761396586243568400,7.755568359375,26.735605239868164,9.45583724975586,9.629316329956055
1761396586262945800,7.77494580078125,37.917266845703125,12.528221130371094,10.700702667236328
1761396586282309600,7.7943095703125,44.71647262573242,13.180265426635742,7.09711217880249
1761396586301700400,7.813700439453125,40.07678985595703,12.477374076843262,3.7645082473754883
1761396586321077800,7.833077880859375,32.170902252197266,11.45384407043457,2.606980323791504
1761396586340441600,7.852441650390625,24.56830596923828,10.195816993713379,2.531008243560791
1761396586359832300,7.871832275390625,15.011971473693848,7.968697547912598,3.1232316493988037
1761396586379209700,7.891209716796875,4.953741073608398,5.052444934844971,4.073780536651611
1761396586398573600,7.910573486328125,-3.551547050476074,2.1655044555664062,3.895515203475952
1761396586417964300,7.92996435546875,-9.329615592956543,-1.100698471069336,4.3519463539123535
1761396586437341400,7.949341552734375,-11.560922622680664,-4.358526229858398,4.210171222686768
1761396586456705300,7.968705322265625,-8.85523796081543,-5.285745143890381,-0.15074782073497772
1761396586476096300,7.98809619140625,-3.5617165565490723,-4.777270317077637,-4.06121826171875
1761396586495473400,8.007473388671874,-0.4043870270252228,-3.0729825496673584,-5.0943193435668945
1761396586514837200,8.026837158203126,-0.3032902777194977,-0.9475577473640442,-3.1238300800323486
1761396586534228000,8.04622802734375,0.17108681797981262,1.7491533756256104,0.7962117195129395
1761396586553605400,8.06560546875,0.7525427341461182,4.928018093109131,3.7974095344543457
1761396586572969200,8.08496923828125,4.636094093322754,6.70289421081543,5.837889194488525
1761396586592360000,8.10435986328125,14.891731262207031,7.150352478027344,7.131807804107666
1761396586611737300,8.1237373046875,22.935205459594727,8.72064208984375,2.3120648860931396
1761396586631101200,8.14310107421875,18.395421981811523,11.151151657104492,-1.9016958475112915
1761396586650492000,8.162491943359376,12.474382400512695,12.99960708618164,-2.775076150894165
1761396586669869300,8.181869384765625,9.130413055419922,14.129019737243652,-3.9014973640441895
1761396586689233200,8.201233154296874,8.47477912902832,13.374682426452637,-3.7010984420776367
1761396586708624000,8.220623779296876,11.398808479309082,11.408978462219238,-1.9154545068740845
1761396586728001300,8.240001220703125,12.759726524353027,9.095118522644043,-0.25064817070961
1761396586747365000,8.259365234375,8.94137954711914,6.729813575744629,0.4695914387702942
1761396586766755800,8.278755859375,3.914059638977051,4.244269371032715,-0.4366901218891144
1761396586786133200,8.29813330078125,1.9770697355270386,2.606980323791504,-2.7696921825408936
1761396586805496800,8.317496826171874,0.41216370463371277,1.954936146736145,-1.835893154144287
1761396586824887800,8.3368876953125,-1.1443674564361572,1.1395817995071411,1.3716856241226196
1761396586844265000,8.356264892578125,0.1256231814622879,0.966102123260498,1.9555343389511108
1761396586863628800,8.37562890625,1.9357935190200806,1.057029366493225,0.9523434042930603
1761396586883019800,8.395019775390624,3.1094729900360107,1.6241283416748047,-0.5641079545021057
1761396586902397000,8.41439697265625,2.662015199661255,2.026122570037842,-0.8368897438049316
1761396586921760800,8.4337607421875,2.6697919368743896,3.3134610652923584,-0.2147558331489563
1761396586941151700,8.45315185546875,3.741776466369629,4.680959224700928,-0.6825526356697083
1761396586960529000,8.47252880859375,5.443671703338623,7.0067830085754395,-1.2580264806747437
1761396586979892700,8.491892822265624,8.00100040435791,9.515657424926758,-1.8239290714263916
1761396586999283500,8.511283447265624,9.613164901733398,13.257433891296387,-2.9174489974975586
1761396587018660900,8.530660888671875,5.9437713623046875,13.768899917602539,-1.373480200767517
1761396587038024700,8.550024658203125,1.6193426847457886,15.489338874816895,-1.3770694732666016
1761396587057415400,8.56941552734375,5.019543647766113,14.21994686126709,-1.7114664316177368
1761396587076792800,8.588792724609375,17.1469669342041,11.693724632263184,-3.562912940979004
1761396587096156700,8.60815673828125,24.189044952392578,9.719047546386719,-0.020937198773026466
1761396587115547400,8.62754736328125,19.305294036865234,6.8997039794921875,7.074379920959473
1761396587134924800,8.6469248046875,7.851449489593506,5.811567783355713,4.954339504241943
1761396587154288400,8.666288330078125,-1.2711870670318604,6.321238994598389,0.6532405614852905
1761396587173679400,8.685679443359374,-0.8309076428413391,5.365904808044434,-1.7665013074874878
1761396587193056500,8.705056396484375,5.510072231292725,4.044468402862549,-1.6552350521087646
1761396587212420400,8.72442041015625,9.053842544555664,2.1206390857696533,1.618146300315857
1761396587231811300,8.743811279296875,8.951549530029297,0.9248259663581848,3.301496982574463
1761396587251188500,8.7631884765625,5.318048477172852,0.9218349456787109,2.492722988128662
1761396587270552300,8.78255224609375,1.292722463607788,1.8239290714263916,0.7465606927871704
1761396587289943300,8.801943359375,1.0462616682052612,2.7906293869018555,0.8033902049064636
1761396587309320400,8.821320556640625,2.1571295261383057,4.347758769989014,0.27397820353507996
1761396587328684300,8.840684326171875,4.783252239227295,6.49770975112915,0.02751746028661728
1761396587348075000,8.860074951171875,7.456035137176514,9.421140670776367,0.7106683254241943
1761396587367452400,8.879452392578125,6.638886451721191,12.874582290649414,-2.1062822341918945
1761396587386816300,8.898816162109375,-0.6933203339576721,14.688342094421387,-2.840280532836914
1761396587406207000,8.91820703125,0.6394818425178528,15.004792213439941,-1.2687941789627075
1761396587425584400,8.93758447265625,11.531610488891602,13.168301582336426,-2.076371908187866
1761396587444948200,8.9569482421875,18.19382667541504,12.806984901428223,-1.9992033243179321
1761396587464339000,8.9763388671875,16.733009338378906,11.145768165588379,4.7234320640563965
1761396587483716400,8.99571630859375,10.39920711517334,8.849854469299316,7.478168964385986
1761396587503080200,9.015080078125,3.1800613403320312,7.240681171417236,1.4919248819351196
1761396587522471000,9.034470947265625,-0.19262222945690155,6.85962438583374,-4.661816596984863
1761396587541848300,9.053848388671875,-1.0546365976333618,5.588437080383301,-5.346762180328369
1761396587561212200,9.073212158203125,4.403990268707275,3.600001573562622,-3.2895328998565674
1761396587580603000,9.092602783203125,10.140782356262207,1.789831280708313,-1.358525037765503
1761396587599980000,9.11197998046875,10.108479499816895,0.8057830333709717,-0.08673982322216034
1761396587619344000,9.13134375,5.96171760559082,1.153340458869934,-0.4618147611618042
1761396587638734800,9.15073486328125,2.524427890777588,2.142174482345581,-0.11006984114646912
1761396587658112000,9.170112060546876,1.225723385810852,3.2889347076416016,-0.2721835672855377
1761396587677475800,9.189475830078125,2.048854351043701,4.874179840087891,0.33918261528015137
1761396587696866800,9.20886669921875,4.022335052490234,6.495316982269287,0.7585247755050659
1761396587716244000,9.228243896484376,4.722833633422852,9.787840843200684,-0.8267202377319336
1761396587735607800,9.24760791015625,1.210170030593872,12.165708541870117,-0.841675341129303
1761396587754998500,9.26699853515625,-0.39840495586395264,12.541979789733887,-0.09092725813388824
1761396587774376000,9.2863759765625,6.742974281311035,13.725829124450684,-2.503490686416626
1761396587793739800,9.30573974609375,13.164113998413086,13.790434837341309,-3.2709884643554688
1761396587813130500,9.325130615234375,14.56092357635498,13.15394401550293,-1.2604193687438965
1761396587832508000,9.3445078125,14.590235710144043,13.311272621154785,2.510071039199829
1761396587851871700,9.363871826171875,11.904293060302734,12.763914108276367,7.0546393394470215
1761396587871262500,9.383262451171875,8.260024070739746,11.748759269714355,6.578467845916748
1761396587890640000,9.402639892578126,4.807778835296631,9.94397258758545,2.781656265258789
1761396587910003700,9.422003662109375,4.686343193054199,8.015955924987793,-0.5593222975730896
1761396587929394400,9.44139453125,6.656832695007324,5.706881999969482,-0.8584251403808594
1761396587948771800,9.460771728515626,7.789236068725586,3.3607194423675537,-1.0325030088424683
1761396587968135700,9.4801357421875,6.292525291442871,1.8113667964935303,-1.5774682760238647
1761396587987526400,9.4995263671875,3.195016384124756,1.1431710720062256,0.21714866161346436
1761396588006903800,9.51890380859375,1.5493526458740234,1.4231312274932861,-0.4085744619369507
1761396588026281000,9.538281005859375,2.011167526245117,2.7804598808288574,-1.6546368598937988
1761396588045658400,9.557658447265625,2.3958137035369873,3.675375461578369,0.5389832854270935
1761396588065035500,9.577035400390624,2.6775684356689453,5.2941203117370605,1.4464613199234009
1761396588084399400,9.5963994140625,3.170490026473999,7.2951178550720215,-2.9491539001464844
1761396588103790300,9.615790283203125,2.999403238296509,9.68494987487793,-3.2679975032806396
1761396588123167500,9.63516748046875,0.2021935135126114,11.392229080200195,-2.7738797664642334
1761396588142531300,9.65453125,-0.6933203339576721,12.607184410095215,-2.1888344287872314
1761396588161922300,9.67392236328125,4.9986066818237305,14.409578323364258,-4.220340728759766
1761396588181299500,9.693299560546874,4.59721040725708,15.967305183410645,-6.967301368713379
