time,seconds_elapsed,z,y,x
1761396578725171000,0.2371708984375,-0.009781837463378906,0.022278785705566406,0.10873186588287354
1761396578744548400,0.25654833984375,0.1254873275756836,0.05309700965881348,0.2827605605125427
1761396578763925500,0.275925537109375,0.3452625274658203,0.24649715423583984,0.19501060247421265
1761396578783303000,0.295302978515625,0.6781463623046875,0.2085714340209961,0.16681146621704102
1761396578802680000,0.31468017578125,0.5262870788574219,0.0404965877532959,0.3650810122489929
1761396578822057500,0.334057373046875,0.0822000503540039,-0.05382275581359863,0.5671056509017944
1761396578841434600,0.3534345703125,-0.10342597961425781,0.2831287384033203,0.5362688302993774
1761396578860812000,0.37281201171875,0.9378442764282227,0.20723772048950195,0.4822933077812195
1761396578880189200,0.392189208984375,0.024816513061523438,0.2513706684112549,0.51863694190979
1761396578899566600,0.411566650390625,-0.6781778335571289,-0.3173666000366211,0.296686053276062
1761396578918944000,0.430944091796875,-1.0891246795654297,-1.5509703159332275,0.8350675702095032
1761396578938321200,0.450321044921875,-0.30344104766845703,-1.0646123886108398,0.2858167886734009
1761396578957698300,0.4696982421875,0.531214714050293,-0.2835719585418701,-0.11515599489212036
1761396578977075700,0.48907568359375,0.7720756530761719,-0.5712041854858398,-0.11252087354660034
1761396578996452900,0.508452880859375,0.7106590270996094,-1.1065247058868408,1.292271375656128
1761396579015816700,0.527816650390625,-1.5300168991088867,-1.4367754459381104,0.8963727355003357
1761396579035207700,0.547207763671875,-2.480687141418457,0.37987756729125977,-0.22187119722366333
1761396579054584800,0.566584716796875,-0.8572483062744141,1.5513701438903809,-1.4663820266723633
1761396579073962200,0.585962158203125,0.44893836975097656,2.0271835327148438,-2.254115581512451
1761396579093339400,0.60533935546875,-1.477264404296875,1.6363582611083984,-1.9525011777877808
1761396579112716800,0.624716796875,-0.03587818145751953,0.6990759372711182,1.6631624698638916
1761396579132080400,0.644080322265625,1.159592628479004,-1.0495507717132568,6.112276554107666
1761396579151471400,0.663471435546875,0.2871847152709961,-2.107499599456787,3.033090114593506
1761396579170848500,0.6828486328125,-0.8696451187133789,0.16465139389038086,-1.6485055685043335
1761396579190226000,0.702225830078125,-0.43700218200683594,0.01752495765686035,-0.6284695267677307
1761396579209603000,0.72160302734375,1.0636615753173828,-0.6009330749511719,1.3751767873764038
1761396579228980500,0.74098046875,-0.27668190002441406,-0.4238712787628174,1.7600822448730469
1761396579248357600,0.760357666015625,-1.7818589210510254,0.14363718032836914,1.2135543823242188
1761396579267735000,0.779735107421875,0.5525131225585938,0.11566305160522461,0.3108154833316803
1761396579287112200,0.7991123046875,1.7706413269042969,0.4689149856567383,-0.11468291282653809
1761396579306476000,0.81847607421875,-1.064626693725586,0.24254131317138672,1.5026984214782715
1761396579325867000,0.837866943359375,0.23604297637939453,0.42507266998291016,2.4492251873016357
1761396579345244200,0.857244140625,2.552617073059082,0.6838724613189697,0.9702249765396118
1761396579364608000,0.87660791015625,3.788797378540039,1.4536104202270508,0.5680218935012817
1761396579383998700,0.895998779296875,5.6575727462768555,1.8273746967315674,1.7491424083709717
1761396579403376000,0.915376220703125,5.898663520812988,2.137373447418213,1.7411725521087646
1761396579422739700,0.93473974609375,6.685854911804199,2.3192968368530273,0.4917435050010681
1761396579442130700,0.954130615234375,6.852190971374512,1.880953311920166,0.6566846370697021
1761396579461507800,0.9735078125,5.623653411865234,1.3961338996887207,2.5258066654205322
1761396579480871700,0.99287158203125,2.6456356048583984,0.84552001953125,4.640975475311279
1761396579500262400,1.012262451171875,-0.34755420684814453,0.21004199981689453,5.198383331298828
1761396579519639800,1.031639892578125,-2.395758628845215,-1.1775543689727783,4.92783260345459
1761396579539003600,1.051003662109375,-5.461096286773682,-2.6584174633026123,2.75007700920105
1761396579558394400,1.070394287109375,-7.126121520996094,-4.009326934814453,0.14997029304504395
1761396579577771500,1.089771484375,-6.644001007080078,-5.068035125732422,-1.7952723503112793
1761396579597135400,1.10913525390625,-5.473234176635742,-5.469367504119873,-2.636504650115967
1761396579616526000,1.128526123046875,-5.484690189361572,-5.423337459564209,-2.277933120727539
1761396579635903500,1.147903564453125,-6.0929274559021,-5.222912788391113,-2.5399584770202637
1761396579655280600,1.16728076171875,-5.988396167755127,-4.515128135681152,-2.9687530994415283
1761396579674658000,1.186657958984375,-4.0094733238220215,-3.74578857421875,-3.110292911529541
1761396579694035500,1.206035400390625,-0.10994148254394531,-2.76393461227417,-1.0459883213043213
1761396579713399000,1.22539892578125,6.153714179992676,-2.719003677368164,2.237612724304199
1761396579732790000,1.2447900390625,11.17544174194336,-1.8271784782409668,-0.6660975217819214
1761396579752167200,1.264167236328125,12.105792999267578,1.824352741241455,-2.5262997150421143
1761396579771531000,1.283531005859375,7.179905891418457,4.519028663635254,0.42810022830963135
1761396579790921700,1.302921630859375,4.63274621963501,6.212522506713867,-0.5259883403778076
1761396579810299100,1.322299072265625,9.230123519897461,4.968138217926025,0.1604984998703003
1761396579829663000,1.3416630859375,13.789779663085938,2.9031081199645996,1.4984943866729736
1761396579849053700,1.3610537109375,12.036575317382812,1.980611801147461,1.7603018283843994
1761396579868430800,1.380430908203125,3.132748603820801,1.2882485389709473,0.9828177094459534
1761396579887794700,1.399794677734375,-5.9446330070495605,0.20046091079711914,-0.7509266138076782
1761396579907185700,1.419185546875,-11.18466567993164,-2.0590763092041016,0.35185807943344116
1761396579926562800,1.438562744140625,-12.419049263000488,-4.983704090118408,1.1370575428009033
1761396579945926700,1.4579267578125,-10.785645484924316,-7.98659610748291,0.0994042456150055
1761396579965317400,1.4773173828125,-8.304156303405762,-8.964041709899902,-1.6724952459335327
1761396579984694800,1.49669482421875,-6.805166244506836,-9.062801361083984,-3.124401330947876
1761396580004058400,1.516058349609375,-8.271349906921387,-8.522001266479492,-3.3032443523406982
1761396580023449300,1.535449462890625,-10.409090995788574,-7.925083160400391,-3.002011775970459
1761396580042826500,1.554826416015625,-8.642217636108398,-6.937734603881836,-3.639740228652954
1761396580062190300,1.5741904296875,-4.412040710449219,-5.953352451324463,-4.051611423492432
1761396580081581000,1.5935810546875,-4.1801018714904785,-3.542285442352295,-2.344914197921753
1761396580100958500,1.61295849609375,-10.764604568481445,3.859435558319092,-5.092381477355957
1761396580120322300,1.632322265625,-5.3057756423950195,9.214574813842773,-4.311763286590576
1761396580139713000,1.651713134765625,31.098960876464844,7.723843574523926,7.833595275878906
1761396580159090200,1.671090087890625,54.314056396484375,4.213054180145264,7.380600929260254
1761396580178454000,1.6904541015625,42.06311798095703,8.059770584106445,1.4006448984146118
1761396580197845000,1.709844970703125,15.330137252807617,9.004241943359375,4.603972911834717
1761396580217222100,1.72922216796875,-4.9204864501953125,7.352181911468506,5.221704006195068
1761396580236586000,1.7485859375,-14.062910079956055,2.6769204139709473,6.519036293029785
1761396580255976700,1.767976806640625,-17.92386245727539,-3.139315366744995,4.292570114135742
1761396580275354000,1.78735400390625,-16.434450149536133,-7.965765953063965,2.468719959259033
1761396580294718000,1.806718017578125,-14.948990821838379,-11.014543533325195,-0.3173155188560486
1761396580314108700,1.826108642578125,-13.329255104064941,-12.844918251037598,-0.6795064806938171
1761396580333485800,1.84548583984375,-12.95918083190918,-12.7718505859375,-3.7376461029052734
1761396580352863200,1.86486328125,-12.916915893554688,-10.814053535461426,-2.0747575759887695
1761396580372240400,1.884240478515625,-14.572742462158203,-8.877786636352539,0.8999334573745728
1761396580391617800,1.90361767578125,-13.88115406036377,-6.218811988830566,1.0388281345367432
1761396580410981600,1.922981689453125,-8.441569328308105,-3.471086025238037,1.5621548891067505
1761396580430372400,1.942372314453125,0.5545635223388672,1.593252182006836,1.436079740524292
1761396580449749800,1.961749755859375,13.851653099060059,7.906507968902588,-0.3648649752140045
1761396580469113300,1.98111328125,21.720867156982422,11.057761192321777,3.621272563934326
1761396580488504300,2.00050439453125,33.071632385253906,8.508633613586426,12.368489265441895
1761396580507881500,2.019881591796875,43.893741607666016,6.2235565185546875,7.9090752601623535
1761396580527245300,2.039245361328125,31.46823501586914,7.647132396697998,1.3618521690368652
1761396580546636000,2.058635986328125,10.854641914367676,8.219270706176758,4.10463809967041
1761396580566013400,2.078013427734375,-6.651542663574219,6.162171363830566,7.347006320953369
1761396580585377300,2.097377197265625,-16.85068130493164,1.8172650337219238,6.529953956604004
1761396580604768000,2.11676806640625,-17.429725646972656,-3.205146074295044,3.4308085441589355
1761396580624145400,2.1361455078125,-13.871675491333008,-8.116486549377441,0.7739191055297852
1761396580643509000,2.155509033203125,-10.821540832519531,-11.556638717651367,-2.3420369625091553
1761396580662900000,2.17489990234375,-9.773076057434082,-12.436746597290039,-3.9047210216522217
1761396580682277000,2.194277099609375,-13.418190002441406,-11.723188400268555,-2.296119213104248
1761396580701641000,2.213640869140625,-17.059385299682617,-9.459383010864258,-1.0260472297668457
1761396580721031700,2.23303173828125,-15.494670867919922,-6.89771842956543,0.5787347555160522
1761396580740409000,2.2524091796875,-9.703017234802246,-4.2886247634887695,0.955864429473877
1761396580759773000,2.27177294921875,-0.9630370140075684,0.35233259201049805,-0.5458612442016602
1761396580779163600,2.29116357421875,8.185128211975098,4.654343605041504,-1.2708667516708374
1761396580798540800,2.310540771484375,15.429275512695312,8.22384262084961,3.890062093734741
1761396580817904600,2.329904541015625,22.233572006225586,7.0631303787231445,5.341856479644775
1761396580837295600,2.349295654296875,29.794923782348633,5.14917516708374,1.1756995916366577
1761396580856672800,2.3686728515625,26.796541213989258,5.592528820037842,-0.8666302561759949
1761396580876036600,2.38803662109375,11.575128555297852,5.687751770019531,-0.4187232255935669
1761396580895427300,2.40742724609375,-3.496814727783203,3.810391902923584,2.9794023036956787
1761396580914804700,2.4268046875,-12.548498153686523,0.2523775100708008,6.062840461730957
1761396580934168600,2.44616845703125,-13.757566452026367,-3.5309815406799316,2.5149011611938477
1761396580953559300,2.465559326171875,-9.772801399230957,-6.7990217208862305,-1.6629353761672974
1761396580972936700,2.484936767578125,-7.2747721672058105,-8.083250045776367,-2.9520957469940186
1761396580992300300,2.50430029296875,-8.165040016174316,-8.472064018249512,-2.0444188117980957
1761396581011691300,2.523691162109375,-11.410531044006348,-8.076881408691406,-1.3038537502288818
1761396581031068400,2.543068359375,-14.728365898132324,-7.355700969696045,-0.12589576840400696
1761396581050432300,2.562432373046875,-14.178207397460938,-5.642086505889893,-1.3255987167358398
1761396581069823000,2.581822998046875,-11.160974502563477,-4.094219207763672,-2.780832529067993
1761396581089200400,2.601200439453125,-4.8994855880737305,-2.1494524478912354,-0.8844074010848999
1761396581108564200,2.620564208984375,5.749755859375,0.5133004188537598,2.9725182056427
1761396581127955000,2.639954833984375,13.491268157958984,3.650587558746338,1.9592924118041992
1761396581147337700,2.659337646484375,10.752527236938477,7.6411027908325195,1.3524670600891113
1761396581166701600,2.67870166015625,9.8251953125,8.566215515136719,2.17488169670105
1761396581186092300,2.69809228515625,14.759773254394531,6.760071754455566,1.4927083253860474
1761396581205469700,2.7174697265625,19.924781799316406,5.157927989959717,-0.2500627636909485
1761396581224833300,2.736833251953125,19.406869888305664,4.719492435455322,-1.3463010787963867
1761396581244224300,2.756224365234375,10.884468078613281,4.505533218383789,-1.3942638635635376
1761396581263601400,2.775601318359375,0.2041630744934082,3.6343789100646973,0.9659093022346497
1761396581282965200,2.79496533203125,-6.245569705963135,1.5303502082824707,4.63771915435791
1761396581302356000,2.81435595703125,-8.143413543701172,-1.1592817306518555,4.27215051651001
1761396581321733400,2.8337333984375,-7.922492027282715,-4.142617225646973,0.9024682641029358
1761396581341097200,2.85309716796875,-6.513945579528809,-6.650557041168213,-0.9569458961486816
1761396581360488000,2.872488037109375,-6.621192455291748,-7.879308700561523,-0.754108726978302
1761396581379865000,2.891864990234375,-9.520021438598633,-7.89269495010376,0.6711492538452148
1761396581399229000,2.91122900390625,-11.478936195373535,-7.239620208740234,0.7065966129302979
1761396581418620000,2.930619873046875,-9.49185848236084,-5.632309913635254,-0.4761078953742981
1761396581437997000,2.9499970703125,-6.084087371826172,-3.911162853240967,0.05881759524345398
1761396581457361000,2.96936083984375,-2.811680793762207,-1.897439956665039,0.48627138137817383
1761396581476751600,2.988751708984375,0.3648662567138672,0.678433895111084,-0.3347136974334717
1761396581496129000,3.00812890625,2.945554256439209,4.695725440979004,-0.5031498670578003
1761396581515492900,3.027492919921875,1.627516269683838,8.657295227050781,-1.8058178424835205
1761396581534883600,3.046883544921875,1.947800636291504,8.755772590637207,-2.026681661605835
1761396581554261000,3.066260986328125,13.226381301879883,7.343520641326904,-0.5222240090370178
1761396581573624600,3.08562451171875,24.041976928710938,5.401577949523926,-0.6689358353614807
1761396581593015600,3.105015625,19.23633575439453,5.298610687255859,-1.1623862981796265
1761396581612392700,3.124392822265625,4.300915241241455,4.591732501983643,3.643948793411255
1761396581631756500,3.143756591796875,-7.571969032287598,2.537125587463379,3.951054573059082
1761396581651147300,3.163147216796875,-10.280961990356445,-1.0826153755187988,0.7666364312171936
1761396581670524700,3.182524658203125,-5.550101280212402,-4.028190612792969,-1.200454831123352
1761396581689888500,3.201888427734375,-1.764418125152588,-5.862950325012207,-1.076523780822754
1761396581709279200,3.221279296875,-3.3547275066375732,-6.643393039703369,-1.295090675354004
1761396581728656600,3.24065673828125,-5.748244285583496,-7.170659065246582,-2.0700905323028564
1761396581748020500,3.2600205078125,-6.620993614196777,-7.227080821990967,-2.433652639389038
1761396581767411200,3.2794111328125,-6.172703742980957,-7.100376129150391,-1.401512861251831
1761396581786788400,3.298788330078125,-4.983707427978516,-6.038804054260254,-0.37476372718811035
1761396581806152200,3.318152099609375,-4.032033920288086,-4.459595680236816,0.6293885111808777
1761396581825543000,3.33754296875,-2.5682268142700195,-2.4902992248535156,1.5607045888900757
1761396581844920300,3.35692041015625,0.8360819816589355,0.5777955055236816,0.36430788040161133
1761396581864284200,3.3762841796875,1.6664271354675293,4.210516929626465,-1.0951238870620728
1761396581883675000,3.3956748046875,-0.0186004638671875,6.716944217681885,1.41504967212677
1761396581903052300,3.41505224609375,2.3379926681518555,6.463109970092773,2.9155118465423584
1761396581922416000,3.434416015625,10.452581405639648,6.54588508605957,-2.672639846801758
1761396581941806800,3.453806884765625,15.350672721862793,6.498167991638184,-4.821926593780518
1761396581961184000,3.47318408203125,15.094673156738281,6.078805446624756,-0.5530704259872437
1761396581980547800,3.4925478515625,8.30996322631836,5.041651248931885,4.458082675933838
1761396581999938800,3.511938720703125,-1.6192760467529297,3.273590087890625,3.5774004459381104
1761396582019316000,3.53131591796875,-6.772889614105225,-0.021927833557128906,1.3719295263290405
1761396582038679800,3.5506796875,-7.102447509765625,-2.6904497146606445,1.3062474727630615
1761396582058070500,3.570070556640625,-1.8554835319519043,-4.946588516235352,2.3585526943206787
1761396582077448000,3.589447998046875,1.1190829277038574,-6.098233222961426,0.6173279881477356
1761396582096811800,3.608811767578125,-5.006091117858887,-5.940929889678955,-1.4632315635681152
1761396582116202500,3.628202392578125,-8.990350723266602,-5.997565269470215,-0.5312945246696472
1761396582135580000,3.647579833984375,-8.005706787109375,-6.447910308837891,0.045699238777160645
1761396582154957000,3.66695703125,-5.468436241149902,-6.313075065612793,-0.7161473035812378
1761396582174334500,3.68633447265625,-4.4029130935668945,-5.263340473175049,-0.5781054496765137
1761396582193711600,3.705711669921875,-2.073359489440918,-4.364582538604736,0.5170000791549683
1761396582213075500,3.725075439453125,-0.6983122825622559,-2.9134011268615723,-0.2367735207080841
1761396582232466400,3.744466552734375,0.03917741775512695,-0.22291994094848633,-2.373805284500122
1761396582251843600,3.763843505859375,0.022014617919921875,4.285434722900391,-1.8032124042510986
1761396582271207400,3.78320751953125,-0.6872653961181641,8.074836730957031,-0.686650276184082
1761396582290598100,3.80259814453125,0.6902704238891602,7.7799201011657715,-1.2813184261322021
1761396582309975600,3.8219755859375,10.508177757263184,7.592185020446777,-2.047122001647949
1761396582329339400,3.84133935546875,19.69748306274414,6.745169162750244,-0.7758724093437195
1761396582348730000,3.860730224609375,18.00133514404297,6.562541961669922,1.1886913776397705
1761396582368107500,3.880107421875,7.718235969543457,5.307829856872559,2.8685901165008545
1761396582387471000,3.89947119140625,-1.1138620376586914,2.127124309539795,1.9966894388198853
1761396582406862000,3.918862060546875,-5.922253608703613,-1.5521183013916016,-0.23855455219745636
1761396582426239200,3.9382392578125,-8.811554908752441,-5.038144111633301,0.4773011803627014
1761396582445603000,3.95760302734375,-9.898377418518066,-8.45307445526123,1.4373843669891357
1761396582464993800,3.976993896484375,-6.594939708709717,-11.334053039550781,0.18141590058803558
1761396582484371200,3.99637109375,-4.22895622253418,-12.310901641845703,-1.0733091831207275
1761396582503735000,4.015735107421875,-6.578856945037842,-11.50367546081543,-0.7186284065246582
1761396582523125800,4.035125732421875,-10.53850269317627,-10.220230102539062,0.34582850337028503
1761396582542503200,4.054503173828125,-12.811136245727539,-9.074029922485352,0.9686882495880127
1761396582561867000,4.073866943359375,-11.778450012207031,-7.0282979011535645,0.3142373561859131
1761396582581257700,4.0932578125,-8.016767501831055,-5.570061683654785,-0.9500011801719666
1761396582600635000,4.112634765625,-3.9236409664154053,-3.072805881500244,-2.217872381210327
1761396582619998700,4.131998779296875,0.9256772994995117,0.7407803535461426,-4.799251556396484
1761396582639389700,4.1513896484375,5.701712131500244,4.828333377838135,-5.13018798828125
1761396582658766800,4.170766845703125,8.585102081298828,5.429214954376221,-3.4006574153900146
1761396582678130700,4.190130615234375,15.489937782287598,2.494401454925537,2.3332064151763916
1761396582697521400,4.209521484375,26.052040100097656,-1.052934169769287,6.562707901000977
1761396582716898800,4.22889892578125,21.071571350097656,-0.4446401596069336,-0.43757694959640503
1761396582736262700,4.2482626953125,8.260442733764648,0.582207202911377,-1.0762155055999756
1761396582755653400,4.2676533203125,2.532400131225586,2.458436965942383,1.5017564296722412
1761396582775030800,4.28703076171875,-7.674468517303467,3.6009554862976074,2.0241854190826416
1761396582794394600,4.30639453125,-13.221162796020508,3.3296878337860107,3.2082643508911133
1761396582813785300,4.325785400390625,-12.476516723632812,2.2636821269989014,4.578711986541748
1761396582833162500,4.34516259765625,-8.119330406188965,1.8168244361877441,1.9679752588272095
1761396582852526300,4.3645263671875,-3.2894039154052734,1.794477939605713,-0.8544973134994507
1761396582871917300,4.383917236328125,-0.5913457870483398,1.8297450542449951,-2.328683853149414
1761396582891294500,4.40329443359375,-2.060906410217285,1.8211801052093506,-3.0318946838378906
1761396582910658300,4.422658203125,-5.538829326629639,1.6596051454544067,-1.0620415210723877
1761396582930049000,4.442049072265625,-7.960963726043701,0.926093339920044,0.9078599214553833
1761396582949426400,4.461426513671875,-5.035687446594238,-0.20485806465148926,-1.0761022567749023
1761396582968790300,4.480790283203125,4.993834495544434,-1.3148751258850098,-1.4235217571258545
1761396582988181000,4.500180908203125,14.10750675201416,-2.984564781188965,1.5759589672088623
1761396583007558400,4.519558349609375,10.86039924621582,0.1422438621520996,-0.7724612951278687
1761396583026922200,4.538922119140625,6.611988067626953,0.020476102828979492,7.947900772094727
1761396583046313000,4.55831298828125,14.442525863647461,-2.3258919715881348,13.874250411987305
1761396583065690400,4.5776904296875,17.8701171875,-2.647193670272827,5.633706569671631
1761396583085054000,4.597053955078125,7.515317916870117,-0.36490821838378906,-2.0039329528808594
1761396583104445000,4.61644482421875,-1.9262285232543945,1.4923992156982422,-1.779782772064209
1761396583123822000,4.635822021484375,-6.1356682777404785,2.114593982696533,0.3671579360961914
1761396583143186000,4.65518603515625,-10.075103759765625,1.1666886806488037,1.825122356414795
1761396583162577000,4.674576904296875,-12.002732276916504,0.5196433067321777,2.327653169631958
1761396583181954000,4.6939541015625,-11.55381965637207,0.5224126577377319,1.3861172199249268
1761396583201318000,4.71331787109375,-7.838250160217285,0.27405714988708496,-2.011018991470337
1761396583220708600,4.73270849609375,-5.973887920379639,0.28140711784362793,-3.882680892944336
1761396583240086000,4.7520859375,-6.10982084274292,-0.42324256896972656,-5.991961479187012
1761396583259463200,4.771463134765625,-5.676625728607178,-0.6718612909317017,-6.893524169921875
1761396583278840600,4.790840576171875,-4.525328636169434,-0.5416965484619141,-3.705678939819336
1761396583298218000,4.810218017578125,-0.023937225341796875,-0.1439533233642578,-1.4378435611724854
1761396583317581600,4.82958154296875,6.177715301513672,0.024638891220092773,0.3781161308288574
1761396583336972500,4.84897265625,10.85364055633545,0.36563682556152344,5.064833641052246
1761396583356349700,4.868349609375,14.12618350982666,1.3967080116271973,9.91909122467041
1761396583375713500,4.887713623046875,19.11429214477539,2.0566306114196777,17.652681350708008
1761396583395104300,4.907104248046875,21.081283569335938,0.7776308059692383,20.32331085205078
1761396583414481700,4.926481689453125,18.119319915771484,0.0569615364074707,7.772187232971191
1761396583433845500,4.945845458984375,8.809342384338379,0.678217887878418,-2.1400375366210938
1761396583453236200,4.965236328125,-0.42164039611816406,1.2253501415252686,-3.0967960357666016
1761396583472613600,4.984613525390625,-7.136059284210205,1.1187562942504883,-1.1062617301940918
1761396583491977500,5.0039775390625,-14.735580444335938,0.15975117683410645,0.46446847915649414
1761396583511368200,5.0233681640625,-16.276430130004883,-0.4689650535583496,0.3655431270599365
1761396583530745600,5.04274560546875,-15.085830688476562,-0.47371912002563477,-1.0500123500823975
1761396583550109400,5.062109375,-13.91038703918457,-0.5877406597137451,-2.1770577430725098
1761396583569500200,5.081500244140625,-11.353148460388184,-1.2855463027954102,-2.399244785308838
1761396583588877600,5.100877685546875,-12.252820014953613,-1.368322730064392,-4.425066947937012
1761396583608241200,5.1202412109375,-13.766583442687988,-1.8376095294952393,-3.497037410736084
1761396583627632000,5.139632080078125,-12.760852813720703,-1.868126630783081,-3.6184310913085938
1761396583647009300,5.15900927734375,-5.2006001472473145,-0.9869188070297241,-4.322864055633545
1761396583666373000,5.178373046875,8.83304214477539,-0.2943950891494751,2.24025821685791
1761396583685763800,5.197763916015625,19.178489685058594,0.5484538078308105,4.963794231414795
1761396583705141200,5.217141357421875,17.560836791992188,1.625058889389038,3.460824489593506
1761396583724505000,5.236505126953125,19.80221939086914,2.2342357635498047,13.48536491394043
1761396583743895800,5.255895751953125,23.97631072998047,0.44710397720336914,16.62728500366211
1761396583763273200,5.275273193359375,17.567798614501953,-0.7248339653015137,5.15200138092041
1761396583782637000,5.294636962890625,8.357871055603027,-0.17992758750915527,-3.06388521194458
1761396583802027800,5.31402783203125,-0.3620271682739258,0.04702472686767578,-3.221749782562256
1761396583821405000,5.333405029296875,-10.168682098388672,0.16855239868164062,-1.5888365507125854
1761396583840768800,5.352768798828125,-16.760683059692383,-0.5407295227050781,0.6738691329956055
1761396583860159700,5.37215966796875,-15.230489730834961,-2.2278707027435303,1.0649038553237915
1761396583879537000,5.391536865234375,-11.435861587524414,-2.5377509593963623,-1.9911664724349976
1761396583898900700,5.410900634765625,-9.734760284423828,-2.454791307449341,-3.8850643634796143
1761396583918291500,5.43029150390625,-9.507497787475586,-1.7631374597549438,-5.200807094573975
1761396583937668900,5.4496689453125,-11.335531234741211,-1.0789693593978882,-3.6454923152923584
1761396583957032700,5.46903271484375,-11.05505084991455,-0.35802340507507324,-0.7615704536437988
1761396583976423400,5.48842333984375,-5.707662582397461,-0.1454148292541504,-0.6810165047645569
1761396583995800800,5.50780078125,1.3449535369873047,0.12599492073059082,-1.4746243953704834
1761396584015164700,5.52716455078125,6.291969299316406,0.10464787483215332,-0.07578444480895996
1761396584034555400,5.546555419921875,11.551637649536133,0.3633112907409668,-0.48169052600860596
1761396584053932800,5.565932861328125,14.525749206542969,0.963611364364624,-2.947176933288574
1761396584073296600,5.585296630859375,12.47689151763916,0.17699050903320312,-0.9151139259338379
1761396584092687400,5.604687255859375,11.434839248657227,-1.293412446975708,5.713566780090332
1761396584112064500,5.624064453125,13.398530960083008,-2.80892276763916,10.8612699508667
1761396584131428400,5.643428466796875,10.86751651763916,-2.3450546264648438,5.28804874420166
1761396584150819300,5.6628193359375,4.503737449645996,-1.0017547607421875,-1.0209438800811768
1761396584170196500,5.682196533203125,-1.2925314903259277,-0.11679530143737793,-1.1487399339675903
1761396584189560300,5.701560302734375,-7.941046714782715,0.00041985511779785156,-0.3337535262107849
1761396584208951000,5.720950927734375,-12.330180168151855,-0.7584059238433838,0.8168092966079712
1761396584228328400,5.740328369140625,-10.544539451599121,-2.3693346977233887,0.8645048141479492
1761396584247692300,5.7596923828125,-8.750802040100098,-3.064396858215332,-1.4138835668563843
1761396584267083000,5.7790830078125,-8.85092830657959,-3.4047231674194336,-1.840211272239685
1761396584286460400,5.79846044921875,-9.786892890930176,-4.009543418884277,-3.4165737628936768
1761396584305824300,5.81782421875,-9.004425048828125,-4.868602752685547,-7.212934494018555
1761396584325215000,5.837215087890625,-7.933667182922363,-6.061415195465088,-10.383455276489258
1761396584344592400,5.85659228515625,-8.905336380004883,-6.970465660095215,-12.242734909057617
1761396584363956200,5.875956298828125,-11.764813423156738,-7.471614360809326,-12.61407470703125
1761396584383347000,5.895346923828125,-10.606826782226562,-8.210975646972656,-11.196450233459473
1761396584402724000,5.91472412109375,-7.799867153167725,-7.414889812469482,-6.427579879760742
1761396584422088000,5.934087890625,-4.937521934509277,-7.0762038230896,2.448904037475586
1761396584441479000,5.95347900390625,3.239556312561035,-7.037418365478516,4.299261093139648
1761396584460856000,5.97285595703125,12.959989547729492,-6.83830451965332,15.057461738586426
1761396584480220000,5.992219970703125,18.81171226501465,-3.72450852394104,33.365325927734375
1761396584499610600,6.011610595703125,24.188621520996094,-0.3605067729949951,42.80549240112305
1761396584518988000,6.030988037109375,24.28417205810547,1.5580538511276245,36.5655632019043
1761396584538351900,6.050351806640625,12.518198013305664,2.8353700637817383,20.060558319091797
1761396584557742600,6.06974267578125,2.257070541381836,3.357844352722168,7.624345779418945
1761396584577120000,6.0891201171875,-4.821581840515137,3.4046945571899414,0.6870784759521484
1761396584596483800,6.10848388671875,-11.244916915893555,2.491511821746826,-4.1821818351745605
1761396584615874600,6.12787451171875,-14.348064422607422,0.5142803192138672,-7.724091053009033
1761396584635252000,6.147251953125,-13.300558090209961,-2.059744119644165,-11.107635498046875
1761396584654615600,6.166615478515625,-7.856657981872559,-4.6870574951171875,-17.1898250579834
1761396584674006500,6.186006591796875,-3.541991710662842,-6.093634605407715,-21.659536361694336
1761396584693383700,6.2053837890625,-4.736438751220703,-6.810741901397705,-22.800098419189453
1761396584712747500,6.22474755859375,-9.074508666992188,-6.651906967163086,-21.104068756103516
1761396584732138500,6.244138427734375,-10.155387878417969,-6.034669399261475,-15.770467758178711
1761396584751515600,6.263515625,-9.328689575195312,-5.052788257598877,-10.079821586608887
1761396584770879500,6.28287939453125,-5.3068037033081055,-2.3367514610290527,-1.1740856170654297
1761396584790270500,6.3022705078125,1.42634916305542,4.291256427764893,14.730162620544434
1761396584809647600,6.321647705078125,10.286405563354492,5.652839660644531,43.115474700927734
1761396584829011500,6.341011474609375,9.001768112182617,3.8740744590759277,38.74353790283203
1761396584848402200,6.360402099609375,15.598329544067383,1.6722807884216309,29.6721248626709
1761396584867779600,6.379779541015625,11.992402076721191,-1.1585628986358643,20.925373077392578
1761396584887143400,6.399143310546875,13.471851348876953,-2.2154014110565186,7.210021495819092
1761396584906534100,6.4185341796875,12.053955078125,-3.0742735862731934,-1.7880573272705078
1761396584925911600,6.43791162109375,2.8895044326782227,-3.4408373832702637,-6.193985939025879
1761396584945275400,6.457275390625,-6.155853271484375,-3.8567352294921875,-8.913724899291992
1761396584964666000,6.476666015625,-11.366464614868164,-4.4484663009643555,-8.991415977478027
1761396584984043500,6.49604345703125,-14.196683883666992,-5.220297813415527,-8.469762802124023
1761396585003407400,6.515407470703125,-13.269537925720215,-5.810370445251465,-8.701953887939453
1761396585022798000,6.534798095703125,-11.249626159667969,-6.312217712402344,-9.639404296875
1761396585042175500,6.554175537109375,-8.674262046813965,-6.4777021408081055,-10.668683052062988
1761396585061539000,6.5735390625,-9.719521522521973,-6.46835994720459,-11.83795166015625
1761396585080930000,6.592929931640625,-11.504201889038086,-6.028194427490234,-11.853631973266602
1761396585100307200,6.61230712890625,-11.5127534866333,-4.8483195304870605,-9.022727012634277
1761396585119671000,6.631671142578125,-9.776972770690918,-3.3268656730651855,-4.813643455505371
1761396585139061800,6.651061767578125,-3.75749135017395,-0.972334623336792,0.29455995559692383
1761396585158439200,6.670439208984375,6.724827289581299,0.8689010143280029,8.16143798828125
1761396585177803000,6.689802978515625,19.545089721679688,2.079406261444092,16.70728302001953
1761396585197193700,6.70919384765625,28.99977684020996,4.000469207763672,25.49666976928711
1761396585216571100,6.728571044921875,29.467397689819336,4.3534088134765625,30.78487205505371
1761396585235935000,6.74793505859375,21.046072006225586,3.395068645477295,21.49912452697754
1761396585255325700,6.76732568359375,12.453189849853516,2.0044867992401123,7.261312484741211
1761396585274703000,6.786703125,2.939452648162842,0.6535143852233887,-0.21237516403198242
1761396585294067000,6.80606689453125,-8.064804077148438,-0.2874445915222168,-3.4542884826660156
1761396585313457700,6.825457763671875,-17.229724884033203,-1.5272948741912842,-4.027918338775635
1761396585332835000,6.8448349609375,-21.188404083251953,-3.4177749156951904,-4.112188339233398
1761396585352198700,6.86419873046875,-18.41775131225586,-5.255322456359863,-4.9657111167907715
1761396585371589600,6.883589599609375,-12.854310989379883,-6.468799591064453,-7.338863372802734
1761396585390966800,6.902966796875,-8.406466484069824,-6.406671047210693,-10.286858558654785
1761396585410330600,6.92233056640625,-7.182112693786621,-6.287807464599609,-11.239179611206055
1761396585429721600,6.9417216796875,-9.841512680053711,-5.970792293548584,-10.857877731323242
1761396585449098800,6.9610986328125,-12.89272689819336,-5.602350234985352,-9.605164527893066
1761396585468462600,6.980462646484375,-13.96764850616455,-4.649444580078125,-7.549127578735352
1761396585487853600,6.999853515625,-9.149633407592773,-2.7264466285705566,-4.204132080078125
1761396585507230700,7.019230712890625,0.4339303970336914,0.39008021354675293,3.124289035797119
1761396585526594600,7.038594482421875,13.241288185119629,3.0054571628570557,14.670257568359375
1761396585545985300,7.0579853515625,25.87725067138672,5.530187606811523,22.639842987060547
1761396585565362700,7.07736279296875,26.852672576904297,7.074481964111328,26.16317367553711
1761396585584726500,7.0967265625,19.640108108520508,6.966890335083008,24.505107879638672
1761396585604117200,7.1161171875,15.896827697753906,4.5958662033081055,18.47799301147461
1761396585623494700,7.13549462890625,12.112346649169922,1.1049928665161133,8.098114013671875
1761396585642858500,7.1548583984375,5.965978622436523,-1.1970932483673096,-0.567986249923706
1761396585662249200,7.174249267578125,-1.738870620727539,-3.0044326782226562,-4.258396625518799
1761396585681626600,7.193626708984375,-10.378950119018555,-4.843717098236084,-4.553071975708008
1761396585700990200,7.212990234375,-18.762134552001953,-6.650544166564941,-4.882928848266602
1761396585720381200,7.232381103515625,-22.007715225219727,-8.077325820922852,-4.485883712768555
1761396585739758300,7.25175830078125,-19.2756290435791,-9.054604530334473,-5.167531490325928
1761396585759122200,7.2711220703125,-15.462976455688477,-9.209817886352539,-8.337448120117188
1761396585778513200,7.29051318359375,-12.559175491333008,-8.618843078613281,-8.886043548583984
1761396585797890300,7.309890380859375,-11.833425521850586,-7.396529197692871,-7.611397743225098
1761396585817254100,7.329254150390625,-14.221502304077148,-6.201427936553955,-5.7445878982543945
1761396585836644900,7.348644775390625,-14.596683502197266,-4.69755220413208,-4.62069845199585
1761396585856022300,7.368022216796875,-10.344136238098145,-1.9179210662841797,-2.6495556831359863
1761396585875386000,7.38738623046875,2.756587028503418,1.2681260108947754,4.63436222076416
1761396585894776800,7.40677685546875,23.912424087524414,3.797412395477295,15.786117553710938
1761396585914154200,7.426154296875,33.4432487487793,5.980461120605469,16.215511322021484
1761396585933518000,7.44551806640625,32.136558532714844,6.118523120880127,12.072639465332031
1761396585952908800,7.46490869140625,29.329620361328125,4.209778308868408,12.32509994506836
1761396585972286200,7.4842861328125,21.643062591552734,2.0181007385253906,7.946325302124023
1761396585991650000,7.503650146484375,7.833067893981934,0.8981103897094727,2.139249324798584
1761396586011040800,7.523040771484375,-3.9818007946014404,0.18287992477416992,-0.3454916477203369
1761396586030418200,7.542418212890625,-12.819287300109863,-0.8367881774902344,-0.6384708881378174
1761396586049781800,7.56178173828125,-18.030881881713867,-2.8666508197784424,0.24797725677490234
1761396586069172700,7.5811728515625,-18.46561622619629,-5.065764427185059,1.1131482124328613
1761396586088550000,7.6005498046875,-17.16210174560547,-6.724175453186035,0.3275398015975952
1761396586107913700,7.619913818359375,-14.532817840576172,-7.687163352966309,-2.458388566970825
1761396586127304700,7.6393046875,-12.287466049194336,-7.535467147827148,-5.124120235443115
1761396586146681900,7.658681884765625,-12.01793384552002,-7.321575164794922,-5.320012092590332
1761396586166059300,7.678059326171875,-12.781156539916992,-6.464879989624023,-4.442394256591797
1761396586185436400,7.6974365234375,-13.39801025390625,-5.227433681488037,-2.484651565551758
1761396586204813800,7.716813720703125,-9.74679946899414,-2.539372444152832,-1.0146846771240234
1761396586224177700,7.736177734375,2.295527458190918,0.43428850173950195,3.006312370300293
1761396586243568400,7.755568359375,18.244949340820312,4.94050931930542,7.690232753753662
1761396586262945800,7.77494580078125,29.27735710144043,8.238175392150879,8.916582107543945
1761396586282309600,7.7943095703125,35.9918327331543,8.937524795532227,5.641763687133789
1761396586301700400,7.813700439453125,31.37750244140625,8.082216262817383,2.649963855743408
1761396586321077800,7.833077880859375,23.57295799255371,6.795969009399414,1.8235703706741333
1761396586340441600,7.852441650390625,16.164386749267578,5.159882545471191,2.0358288288116455
1761396586359832300,7.871832275390625,6.918218612670898,2.4349350929260254,2.800931453704834
1761396586379209700,7.891209716796875,-2.733351230621338,-1.0362324714660645,3.8148386478424072
1761396586398573600,7.910573486328125,-10.798172950744629,-4.4441399574279785,3.7022697925567627
1761396586417964300,7.92996435546875,-16.206600189208984,-8.096290588378906,4.27924108505249
1761396586437341400,7.949341552734375,-18.230443954467773,-11.550579071044922,4.362666606903076
1761396586456705300,7.968705322265625,-15.471332550048828,-12.514196395874023,0.31166061758995056
1761396586476096300,7.98809619140625,-10.188364028930664,-11.978462219238281,-3.377241611480713
1761396586495473400,8.007473388671874,-7.014163017272949,-10.289586067199707,-4.41459321975708
1761396586514837200,8.026837158203126,-6.846262454986572,-8.23908519744873,-2.6178596019744873
1761396586534228000,8.04622802734375,-6.283711910247803,-5.634774208068848,1.024275779724121
1761396586553605400,8.06560546875,-5.673552513122559,-2.4841408729553223,3.7782883644104004
1761396586572969200,8.08496923828125,-1.9093456268310547,-0.6021857261657715,5.664050579071045
1761396586592360000,8.10435986328125,8.143081665039062,0.031488895416259766,7.002440452575684
1761396586611737300,8.1237373046875,16.161563873291016,1.626610279083252,2.4821739196777344
1761396586631101200,8.14310107421875,11.832978248596191,3.876354217529297,-1.398160696029663
1761396586650492000,8.162491943359376,6.152298927307129,5.529906272888184,-2.0868120193481445
1761396586669869300,8.181869384765625,2.9141478538513184,6.573563098907471,-3.189424991607666
1761396586689233200,8.201233154296874,2.1894102096557617,5.870907306671143,-3.04852294921875
1761396586708624000,8.220623779296876,4.956819534301758,4.036519527435303,-1.2948200702667236
1761396586728001300,8.240001220703125,6.231869220733643,1.8031954765319824,0.4179888963699341
1761396586747365000,8.259365234375,2.4401254653930664,-0.5768232345581055,1.2331984043121338
1761396586766755800,8.278755859375,-2.516757011413574,-3.112881660461426,0.4343990087509155
1761396586786133200,8.29813330078125,-4.404836654663086,-4.783664703369141,-1.8275954723358154
1761396586805496800,8.317496826171874,-5.921003818511963,-5.48061990737915,-0.9165366888046265
1761396586824887800,8.3368876953125,-7.454117298126221,-6.322300434112549,2.231534481048584
1761396586844265000,8.356264892578125,-6.201951503753662,-6.482498645782471,2.8020355701446533
1761396586863628800,8.37562890625,-4.407125949859619,-6.374454021453857,1.829181432723999
1761396586883019800,8.395019775390624,-3.1949853897094727,-5.834602355957031,0.3593788146972656
1761396586902397000,8.41439697265625,-3.546877861022949,-5.510942459106445,0.10029631853103638
1761396586921760800,8.4337607421875,-3.439835786819458,-4.308207988739014,0.6895432472229004
1761396586941151700,8.45315185546875,-2.2963523864746094,-3.0026535987854004,0.17812269926071167
1761396586960529000,8.47252880859375,-0.5398640632629395,-0.7232379913330078,-0.4328184723854065
1761396586979892700,8.491892822265624,2.092677593231201,1.731046199798584,-0.9691268801689148
1761396586999283500,8.511283447265624,3.8439078330993652,5.373071193695068,-2.0305540561676025
1761396587018660900,8.530660888671875,0.29621410369873047,5.794090270996094,-0.5126749873161316
1761396587038024700,8.550024658203125,-4.146356582641602,7.5927815437316895,-0.5784685015678406
1761396587057415400,8.56941552734375,-1.1825485229492188,6.659868240356445,-0.9250879287719727
1761396587076792800,8.588792724609375,10.417678833007812,4.596348285675049,-2.7996912002563477
1761396587096156700,8.60815673828125,17.186979293823242,2.873501777648926,0.5639483332633972
1761396587115547400,8.62754736328125,12.374184608459473,-0.03095388412475586,7.475394248962402
1761396587134924800,8.6469248046875,1.1793904304504395,-1.3722848892211914,5.290460109710693
1761396587154288400,8.666288330078125,-7.758371353149414,-1.0279879570007324,1.0237566232681274
1761396587173679400,8.685679443359374,-7.360764503479004,-1.941298484802246,-1.3173359632492065
1761396587193056500,8.705056396484375,-1.1576080322265625,-3.1343846321105957,-1.1657112836837769
1761396587212420400,8.72442041015625,2.334428310394287,-5.011346340179443,2.092674970626831
1761396587231811300,8.743811279296875,2.334230899810791,-6.302974700927734,3.75296688079834
1761396587251188500,8.7631884765625,-1.0697684288024902,-6.507804870605469,2.973850727081299
1761396587270552300,8.78255224609375,-4.8288726806640625,-5.819361209869385,1.3309825658798218
1761396587289943300,8.801943359375,-4.867290496826172,-5.007077217102051,1.4814953804016113
1761396587309320400,8.821320556640625,-3.6318202018737793,-3.5368175506591797,1.0197176933288574
1761396587328684300,8.840684326171875,-0.913611888885498,-1.4476065635681152,0.8385007977485657
1761396587348075000,8.860074951171875,1.893045425415039,1.3899669647216797,1.6003873348236084
1761396587367452400,8.879452392578125,1.2898054122924805,4.705573081970215,-1.1664071083068848
1761396587386816300,8.898816162109375,-5.947964668273926,6.451399803161621,-1.956787109375
1761396587406207000,8.91820703125,-4.864898681640625,6.928309440612793,-0.4260813593864441
1761396587425584400,8.93758447265625,5.601655006408691,5.396498203277588,-1.2553789615631104
1761396587444948200,8.9569482421875,11.952446937561035,5.269806861877441,-1.3112173080444336
1761396587464339000,8.9763388671875,10.400252342224121,3.6706275939941406,5.231010437011719
1761396587483716400,8.99571630859375,4.148080825805664,1.3035345077514648,7.939362049102783
1761396587503080200,9.015080078125,-2.951146364212036,-0.3963632583618164,2.056520938873291
1761396587522471000,9.034470947265625,-6.290970802307129,-0.7953329086303711,-3.9969334602355957
1761396587541848300,9.053848388671875,-7.267078399658203,-1.9746861457824707,-4.679903984069824
1761396587561212200,9.073212158203125,-2.021350383758545,-3.7868850231170654,-2.668754816055298
1761396587580603000,9.092602783203125,3.5921239852905273,-5.490647315979004,-0.7697393298149109
1761396587599980000,9.11197998046875,3.62957763671875,-6.5395636558532715,0.4658239483833313
1761396587619344000,9.13134375,-0.31833314895629883,-6.366963863372803,0.027259528636932373
1761396587638734800,9.15073486328125,-3.510158061981201,-5.580718040466309,0.3113831579685211
1761396587658112000,9.170112060546876,-4.586826324462891,-4.604258060455322,0.10982576012611389
1761396587677475800,9.189475830078125,-3.5849609375,-3.148634910583496,0.6979424953460693
1761396587696866800,9.20886669921875,-1.4576282501220703,-1.6337389945983887,1.1149277687072754
1761396587716244000,9.228243896484376,-0.5897789001464844,1.5490093231201172,-0.46422329545021057
1761396587735607800,9.24760791015625,-3.957439661026001,3.8354902267456055,-0.4722611606121063
1761396587754998500,9.26699853515625,-5.622495651245117,4.249508857727051,0.32928165793418884
1761396587774376000,9.2863759765625,1.2855148315429688,5.591492652893066,-1.973594069480896
1761396587793739800,9.30573974609375,7.482776165008545,5.814432144165039,-2.6831836700439453
1761396587813130500,9.325130615234375,8.731451988220215,5.282087326049805,-0.7276328802108765
1761396587832508000,9.3445078125,8.685447692871094,5.4891533851623535,2.943152666091919
1761396587851871700,9.363871826171875,6.013123989105225,4.9301252365112305,7.454505920410156
1761396587871262500,9.383262451171875,2.4253878593444824,3.8770627975463867,7.050209999084473
1761396587890640000,9.402639892578126,-0.9850311279296875,2.0512638092041016,3.4016802310943604
1761396587910003700,9.422003662109375,-1.1122207641601562,0.1444230079650879,0.24639904499053955
1761396587929394400,9.44139453125,0.850405216217041,-2.140535354614258,0.11312711238861084
1761396587948771800,9.460771728515626,2.045260429382324,-4.512813568115234,0.08621585369110107
1761396587968135700,9.4801357421875,0.7173280715942383,-6.164303779602051,-0.3365265130996704
1761396587987526400,9.4995263671875,-2.1500236988067627,-6.974044322967529,1.5529063940048218
1761396588006903800,9.51890380859375,-3.554255485534668,-6.826882362365723,1.0513720512390137
1761396588026281000,9.538281005859375,-2.8407065868377686,-5.597603797912598,-0.07143628597259521
1761396588045658400,9.557658447265625,-2.1875901222229004,-4.8334856033325195,2.221395254135132
1761396588065035500,9.577035400390624,-1.6255602836608887,-3.328857421875,3.2791035175323486
1761396588084399400,9.5963994140625,-0.8443725109100342,-1.4287805557250977,-0.9460744857788086
1761396588103790300,9.615790283203125,-0.7433478832244873,0.8622112274169922,-1.1743624210357666
1761396588123167500,9.63516748046875,-3.335270643234253,2.500263214111328,-0.6159546375274658
1761396588142531300,9.65453125,-4.201284408569336,3.7236595153808594,0.04887509346008301
1761396588161922300,9.67392236328125,1.4205427169799805,5.584388732910156,-1.8645546436309814
1761396588181299500,9.693299560546874,0.9192652702331543,7.194640159606934,-4.5695648193359375
