time,seconds_elapsed,z,y,x
1761396578622320000,0.134320068359375,-0.08322793990373611,-0.020463382825255394,0.020005248486995697
1761396578641697500,0.153697509765625,-0.07773031294345856,-0.054365407675504684,0.014202198944985867
1761396578661074700,0.17307470703125,-0.07055285573005676,-0.0784938707947731,0.004581354558467865
1761396578680452000,0.1924521484375,-0.042606595903635025,-0.0331384651362896,-0.03420744836330414
1761396578699829500,0.21182958984375,-0.019088976085186005,-0.03405473381280899,-0.047951508313417435
1761396578719206700,0.23120654296875,-0.021532366052269936,-0.05894676223397255,-0.06719319522380829
1761396578738584000,0.250583984375,-0.03558185324072838,-0.017561858519911766,-0.1053711548447609
1761396578757961200,0.269961181640625,-0.019241688773036003,0.012064233422279358,-0.10781454294919968
1761396578777338600,0.289338623046875,0.0456608310341835,0.016340164467692375,-0.07666133344173431
1761396578796715800,0.3087158203125,0.07513421028852463,-0.04886778071522713,0.042453885078430176
1761396578816093200,0.32809326171875,0.02626643143594265,0.06704048812389374,0.1954711228609085
1761396578835470300,0.34747021484375,-0.009468132629990578,0.197609081864357,0.31000497937202454
1761396578854847700,0.36684765625,0.09941539168357849,0.3436015844345093,0.37536564469337463
1761396578874225000,0.386224853515625,0.3173351585865021,0.23945212364196777,0.3662029206752777
1761396578893602300,0.405602294921875,0.4324798583984375,0.28816720843315125,0.22005772590637207
1761396578912979500,0.4249794921875,0.24662958085536957,0.5967977643013,0.30282753705978394
1761396578932356900,0.44435693359375,-0.23746687173843384,0.9765920639038086,0.4133908748626709
1761396578951734000,0.463734130859375,-0.45920443534851074,0.6946860551834106,0.4793623983860016
1761396578971111400,0.483111328125,-0.5632011890411377,0.362995982170105,0.4202629029750824
1761396578990488600,0.502488525390625,-0.5984776020050049,-0.10995250940322876,0.3552076816558838
1761396579009866000,0.521865966796875,-0.8203678727149963,-0.7566870450973511,0.04871506989002228
1761396579029229800,0.541229736328125,-0.9069554805755615,-0.8214368224143982,-0.4512633979320526
1761396579048620500,0.56062060546875,-0.7052231431007385,-0.8076927661895752,-0.8333483934402466
1761396579067998000,0.579998046875,-0.17225892841815948,-1.5590349435806274,-1.2435322999954224
1761396579087375000,0.599375,0.46164780855178833,-2.111240863800049,-1.2998830080032349
1761396579106752300,0.618752197265625,0.7270609736442566,-2.065427303314209,-1.1845855712890625
1761396579126129700,0.638129638671875,0.007024743594229221,-1.7464122772216797,-0.6577298045158386
1761396579145493500,0.657493408203125,-1.246586561203003,0.06795676052570343,0.3348970115184784
1761396579164884200,0.67688427734375,-1.2978976964950562,0.6901046633720398,0.6387935280799866
1761396579184261600,0.69626171875,-0.6781931519508362,0.21471281349658966,0.22845686972141266
1761396579203625200,0.715625244140625,-0.43889376521110535,-0.04489727318286896,0.130721315741539
1761396579223016200,0.73501611328125,-0.511431872844696,-0.06337540596723557,0.525175929069519
1761396579242393300,0.754393310546875,-0.6594096422195435,-0.031000498682260513,0.611152708530426
1761396579261757200,0.773757080078125,-0.6772769093513489,-0.3336753249168396,0.34604495763778687
1761396579281148000,0.79314794921875,-0.5448757410049438,-0.8197570443153381,0.32374903559684753
1761396579300525300,0.812525390625,-0.25380703806877136,-1.0016367435455322,0.35658207535743713
1761396579319902500,0.83190234375,-0.4859289824962616,-0.7353073954582214,0.2113531529903412
1761396579339280000,0.85127978515625,-0.7525638341903687,-0.47111594676971436,0.29259583353996277
1761396579358657000,0.870656982421875,-0.6229115128517151,-0.3518480062484741,0.4966188073158264
1761396579378020900,0.890020751953125,-0.5012001991271973,-0.44271156191825867,0.6116108298301697
1761396579397411600,0.90941162109375,-0.5858024954795837,-0.4359922409057617,0.8551861643791199
1761396579416789000,0.9287890625,-0.616802990436554,-0.91566002368927,0.8470924496650696
1761396579436166400,0.94816650390625,-0.5073086619377136,-1.5900354385375977,0.8484668135643005
1761396579455543600,0.96754345703125,-0.41110020875930786,-2.0547375679016113,0.9587247967720032
1761396579474921000,0.9869208984375,-0.5810684561729431,-2.574263095855713,1.0155335664749146
1761396579494284500,1.006284423828125,-1.0448542833328247,-2.9021353721618652,0.837471604347229
1761396579513675500,1.025675537109375,-1.5414730310440063,-2.7126200199127197,0.5978667736053467
1761396579533052700,1.045052734375,-1.9980813264846802,-1.732820987701416,0.3390202224254608
1761396579552416500,1.06441650390625,-2.18133544921875,-0.49203747510910034,-0.16034740209579468
1761396579571807200,1.08380712890625,-2.143004894256592,0.3104631304740906,-0.5729747414588928
1761396579591184600,1.1031845703125,-1.916685938835144,0.4143071472644806,-0.5587725043296814
1761396579610548500,1.122548583984375,-1.6615045070648193,0.004428642801940441,-0.07345438003540039
1761396579629939200,1.141939208984375,-1.584079623222351,-0.7466080784797668,0.30740886926651
1761396579649316400,1.16131640625,-1.5028369426727295,-1.3974658250808716,0.2376195788383484
1761396579668680200,1.18068017578125,-1.2297883033752441,-1.1974133253097534,0.07666133344173431
1761396579688071000,1.20007080078125,-0.8044858574867249,-0.9593356251716614,-0.008246437646448612
1761396579707448300,1.2194482421875,-0.8214368224143982,-1.1445749998092651,-0.027946261689066887
1761396579726812200,1.238812255859375,-1.5329211950302124,-0.9494093656539917,0.36192700266838074
1761396579746203000,1.258202880859375,-1.177255392074585,-0.08689302206039429,1.2288719415664673
1761396579765580300,1.277580322265625,-0.841747522354126,0.1916533261537552,1.6404303312301636
1761396579784943900,1.29694384765625,-1.268424391746521,-0.2915268540382385,0.5877877473831177
1761396579804334800,1.3163349609375,-1.5011571645736694,-1.4635900259017944,-1.1619842052459717
1761396579823712000,1.3357119140625,-1.3467655181884766,-1.057223916053772,-1.9125627279281616
1761396579843075800,1.355075927734375,-1.0463813543319702,0.5954233407974243,-1.127929449081421
1761396579862466600,1.374466552734375,-0.9045121073722839,1.4425158500671387,0.2020377367734909
1761396579881844000,1.393843994140625,-0.8687775135040283,0.9089407324790955,0.8095253109931946
1761396579901207600,1.41320751953125,-0.6655181050300598,0.003359660040587187,0.5725166201591492
1761396579920598500,1.4325986328125,-0.740652322769165,-0.1566823273897171,0.020616095513105392
1761396579939975700,1.4519755859375,-1.0063709020614624,0.04550812020897865,-0.530062735080719
1761396579959339500,1.471339599609375,-1.0511153936386108,0.14522893726825714,-0.7434011101722717
1761396579978730500,1.49073046875,-0.8066238164901733,0.3136700689792633,-0.3432961702346802
1761396579998107600,1.510107666015625,-0.3686463236808777,0.11712995916604996,0.28664007782936096
1761396580017471500,1.529471435546875,0.07238540053367615,-0.06368082761764526,0.46332764625549316
1761396580036862200,1.5488623046875,0.49646610021591187,0.2020377367734909,0.20600824058055878
1761396580056239600,1.568239501953125,0.7246175408363342,0.3939964771270752,0.33856210112571716
1761396580075603200,1.587603271484375,0.9802571535110474,0.11804623156785965,1.035996913909912
1761396580094994200,1.606994140625,0.8634325861930847,0.02107422985136509,1.1983295679092407
1761396580114371300,1.626371337890625,0.8270871639251709,-1.0599727630615234,-0.9666658043861389
1761396580133735200,1.645735107421875,0.5059342384338379,-3.974477767944336,-4.272112846374512
1761396580153126000,1.6651259765625,0.046729814261198044,-2.56876540184021,-3.8801016807556152
1761396580172503300,1.68450341796875,0.9943066239356995,2.8225724697113037,-0.32603973150253296
1761396580191867100,1.7038671875,1.7235054969787598,3.509622812271118,2.3627572059631348
1761396580211257900,1.7232578125,1.307365894317627,1.5249801874160767,2.9555845260620117
1761396580230635000,1.742635009765625,0.7742488980293274,0.30404922366142273,2.172020196914673
1761396580249998800,1.761998779296875,0.1957765519618988,1.2175712585449219,1.133732557296753
1761396580269389800,1.781389892578125,-0.28129515051841736,2.0377864837646484,0.10277505218982697
1761396580288767000,1.80076708984375,-0.6694886088371277,1.8844637870788574,-0.3826957941055298
1761396580308130800,1.820130859375,-0.6908682584762573,1.4617575407028198,-0.4462239146232605
1761396580327521500,1.839521484375,-0.5219689607620239,1.0208784341812134,-0.2707580327987671
1761396580346899000,1.85889892578125,0.13408097624778748,0.3706315755844116,-0.06368082761764526
1761396580366262800,1.8782626953125,0.38193225860595703,-0.39949411153793335,0.030389651656150818
1761396580385653500,1.897653564453125,0.17378604412078857,-1.3785295486450195,-0.603058934211731
1761396580405030700,1.91703076171875,0.1313321590423584,-1.754811406135559,-1.5158175230026245
1761396580424394500,1.93639453125,0.031153209507465363,-1.8850746154785156,-2.274031639099121
1761396580443785200,1.95578515625,0.062306419014930725,-1.562394618988037,-2.380471706390381
1761396580463162600,1.97516259765625,0.3089359998703003,-1.6776920557022095,-1.9469228982925415
1761396580482526500,1.9945263671875,0.02367033064365387,-2.5699870586395264,-2.7057478427886963
1761396580501917200,2.013917236328125,-0.2985515892505646,0.06994201242923737,-2.2175283432006836
1761396580521294600,2.033294677734375,0.435075968503952,3.168006658554077,0.9727742671966553
1761396580540658200,2.052658203125,0.9246700406074524,1.937912940979004,3.228022336959839
1761396580560049200,2.072049072265625,0.3379512429237366,0.12033691257238388,3.7336511611938477
1761396580579426300,2.09142626953125,-0.6129852533340454,-0.03436015918850899,2.575026512145996
1761396580598790100,2.1107900390625,-1.1885560750961304,1.3046170473098755,0.7879929542541504
1761396580618180900,2.130180908203125,-1.4907727241516113,1.8766754865646362,-0.2855710983276367
1761396580637558300,2.149558349609375,-1.55170476436615,1.0318737030029297,-0.3312319219112396
1761396580656922000,2.168922119140625,-1.1609152555465698,0.0004581354442052543,0.27442312240600586
1761396580676312800,2.188312744140625,-0.5315898060798645,-0.3011476993560791,1.1048699617385864
1761396580695690200,2.207690185546875,-0.14721418917179108,-0.6276455521583557,1.1392301321029663
1761396580715053800,2.2270537109375,-0.049173206090927124,-1.0810469388961792,0.3489464819431305
1761396580734444800,2.24644482421875,-0.2089097648859024,-1.7957382202148438,-0.4566083252429962
1761396580753822000,2.265822021484375,-0.36284327507019043,-2.093831777572632,-0.846328854560852
1761396580773185800,2.285185791015625,-0.22219568490982056,-1.5510939359664917,-0.7136223316192627
1761396580792576500,2.304576416015625,-0.06154286116361618,-1.2809467315673828,-0.6540647149085999
1761396580811954000,2.323953857421875,-0.6739172339439392,-1.1555702686309814,-1.0114103555679321
1761396580831317800,2.34331787109375,-0.8183826208114624,-0.8211314082145691,-1.1754227876663208
1761396580850708500,2.36270849609375,-0.0050394898280501366,0.8283088803291321,0.4008685052394867
1761396580870086000,2.3820859375,0.5812211632728577,1.0802834033966064,2.299534559249878
1761396580889449500,2.401449462890625,0.6812474131584167,0.19180603325366974,2.667569875717163
1761396580908840400,2.42084033203125,0.2029540091753006,-0.18814095854759216,1.6100406646728516
1761396580928217600,2.440217529296875,-0.587940514087677,0.284654825925827,-0.09727742522954941
1761396580947581400,2.45958154296875,-0.8194515705108643,0.932305634021759,-1.2088667154312134
1761396580966972200,2.47897216796875,-0.5813738703727722,0.8026533126831055,-1.131136417388916
1761396580986349600,2.498349609375,-0.2651077210903168,0.27411770820617676,-0.3408527672290802
1761396581005713400,2.51771337890625,-0.091321662068367,-0.14660334587097168,0.3261924386024475
1761396581025104100,2.537104248046875,0.0006108472589403391,-0.26938363909721375,0.4143071472644806
1761396581044481500,2.5564814453125,-0.0713164210319519,-0.353985995054245,-0.11147962510585785
1761396581063845000,2.57584521484375,0.027793550863862038,-0.6815528273582458,-0.6882721781730652
1761396581083236000,2.595236083984375,0.28938889503479004,-1.350888729095459,-1.1018157005310059
1761396581102613200,2.61461328125,0.20127417147159576,-1.7117466926574707,-0.9683456420898438
1761396581121977000,2.63397705078125,-0.19287502765655518,-1.338060975074768,0.037414394319057465
1761396581141373400,2.65337353515625,-0.11377029865980148,-0.337798535823822,0.9483403563499451
1761396581160750600,2.67275048828125,-0.2777827978134155,0.21318569779396057,0.4083513915538788
1761396581180114400,2.692114501953125,-0.640626072883606,-0.16080553829669952,-0.8423583507537842
1761396581199505200,2.711505126953125,-0.4984513521194458,0.7511894106864929,-1.168398141860962
1761396581218882600,2.730882568359375,-0.038636088371276855,1.6007252931594849,-0.34971004724502563
1761396581238246400,2.750246337890625,0.3014531135559082,1.0476030111312866,0.8008207678794861
1761396581257637000,2.76963720703125,0.5395308136940002,0.3665083646774292,1.2103937864303589
1761396581277014500,2.7890146484375,0.5169295072555542,0.32817769050598145,0.7233958840370178
1761396581296378000,2.808378173828125,0.036039989441633224,0.6783458590507507,-0.004734066314995289
1761396581315769000,2.82776904296875,-0.3640649616718292,0.9889616966247559,-0.4199574887752533
1761396581335146200,2.847146240234375,-0.35627666115760803,0.92711341381073,-0.3345915973186493
1761396581354510000,2.866510009765625,-0.14095300436019897,0.42850935459136963,0.21914145350456238
1761396581373900800,2.88590087890625,-0.009315420873463154,0.13942588865756989,0.8110524415969849
1761396581393278200,2.9052783203125,-0.07803573459386826,0.014202198944985867,0.8370134830474854
1761396581412655400,2.9246552734375,-0.12690351903438568,-0.35413870215415955,0.3855973184108734
1761396581432032800,2.94403271484375,-0.0328330397605896,-0.534338653087616,0.07803573459386826
1761396581451410200,2.96341015625,-0.033291175961494446,-0.3158080279827118,0.07528692483901978
1761396581470773800,2.982773681640625,-0.09666658192873001,-0.19959434866905212,0.2864873707294464
1761396581490164700,3.002164794921875,-0.10903623700141907,-0.40453359484672546,0.5587725043296814
1761396581509542000,3.0215419921875,-0.1107160672545433,0.21883602440357208,0.7252284288406372
1761396581528905700,3.04090576171875,-0.16126367449760437,0.20127417147159576,-0.12873606383800507
1761396581548296400,3.06029638671875,-0.18966807425022125,-0.9368869662284851,-1.7117466926574707
1761396581567673900,3.079673828125,0.09773556143045425,-0.07681404054164886,-1.3670761585235596
1761396581587037700,3.09903759765625,0.7065975666046143,0.5668662786483765,0.7574505805969238
1761396581606428400,3.118428466796875,0.9772028923034668,-0.3649812340736389,2.2343266010284424
1761396581625805800,3.137805908203125,0.39384377002716064,-0.7316423058509827,1.9547111988067627
1761396581645169400,3.15716943359375,-0.05482354015111923,-0.08658760040998459,0.4680617153644562
1761396581664560400,3.176560302734375,-0.1044548824429512,0.3993414044380188,-0.7907418012619019
1761396581683937500,3.1959375,-0.0719272643327713,0.03451287001371384,-0.7559235095977783
1761396581703301400,3.21530126953125,-0.18600298464298248,-0.6626165509223938,0.08658760040998459
1761396581722692400,3.2346923828125,-0.17378604412078857,-0.7547017931938171,0.5447230339050293
1761396581742069500,3.254069580078125,0.04978405311703682,-0.1692046970129013,0.5932853817939758
1761396581761447000,3.273447021484375,0.35444411635398865,0.4462239146232605,0.45385950803756714
1761396581780824000,3.292823974609375,0.46851983666419983,0.5766398310661316,0.3527642786502838
1761396581800201500,3.312201416015625,0.3990359604358673,0.29778802394866943,0.3640649616718292
1761396581819565300,3.3315654296875,0.2283041626214981,0.07085828483104706,0.3558185398578644
1761396581838956000,3.3509560546875,0.06978929787874222,0.32344362139701843,0.43477052450180054
1761396581858333400,3.37033349609375,0.14217470586299896,0.7411104440689087,0.8029587268829346
1761396581877697000,3.389697021484375,0.2286095917224884,0.4543176591396332,0.8322793841362
1761396581897088000,3.409087890625,-0.31687700748443604,-0.5682406425476074,-0.25472331047058105
1761396581916465200,3.428465087890625,-0.7058340311050415,-0.4943281412124634,-1.3734900951385498
1761396581935829000,3.4478291015625,-0.05635065957903862,0.6090146899223328,-1.0743275880813599
1761396581955219700,3.4672197265625,0.474475622177124,-0.10262233763933182,-0.17180079221725464
1761396581974597000,3.48659716796875,0.3536805510520935,-1.1099094152450562,0.8507575392723083
1761396581993961000,3.5059609375,-0.19226416945457458,-1.171452283859253,1.1706887483596802
1761396582013351700,3.5253515625,-0.3593308925628662,-0.42927291989326477,0.31855684518814087
1761396582032729000,3.54472900390625,-0.23838314414024353,-0.038636088371276855,-0.6061131954193115
1761396582052092700,3.5640927734375,-0.3984251320362091,-0.45172154903411865,-1.1245697736740112
1761396582071483600,3.583483642578125,-0.7742488980293274,-0.668114185333252,-0.2748812735080719
1761396582090860800,3.60286083984375,-0.7828007340431213,-0.6917845010757446,0.8768712282180786
1761396582110224600,3.622224609375,-0.5880932211875916,-0.9374978542327881,0.8544226288795471
1761396582129615400,3.641615478515625,-0.5996993184089661,-0.6536065936088562,0.2098260372877121
1761396582148992800,3.66099267578125,-0.5277720093727112,0.08842013776302338,-0.1585148572921753
1761396582168356600,3.680356689453125,-0.32970482110977173,0.3799470067024231,-0.12400199472904205
1761396582187747300,3.699747314453125,-0.2948864996433258,0.13438639044761658,0.047798797488212585
1761396582207124700,3.719124755859375,-0.39201122522354126,0.1557660549879074,0.4805840849876404
1761396582226488600,3.738488525390625,-0.2811424434185028,0.32222193479537964,0.8102889060974121
1761396582245879300,3.75787939453125,0.06337540596723557,0.28664007782936096,0.9500201940536499
1761396582265256400,3.77725634765625,0.10048437118530273,0.12965233623981476,0.6754443645477295
1761396582284620300,3.796620361328125,-0.2313583940267563,-0.44637662172317505,-0.42133188247680664
1761396582304011300,3.81601123046875,-0.042453885078430176,-0.7562289237976074,-1.9063016176223755
1761396582323388400,3.835388427734375,0.4480564594268799,0.09498675167560577,-1.8435369729995728
1761396582342752300,3.854752197265625,0.6328377723693848,0.19913621246814728,-0.3503209054470062
1761396582362143000,3.87414306640625,0.49799323081970215,-0.5154023766517639,0.9378032684326172
1761396582381520400,3.893520263671875,0.16599774360656738,-0.5644228458404541,1.1352596282958984
1761396582400884200,3.91288427734375,0.06169557198882103,-0.16615045070648193,0.6346703171730042
1761396582420275000,3.93227490234375,0.2829749882221222,0.44362783432006836,0.04062134400010109
1761396582439652400,3.95165234375,0.24479703605175018,1.0593618154525757,-0.5270084738731384
1761396582459016200,3.97101611328125,-0.08689302206039429,1.1534323692321777,-0.9333745837211609
1761396582478407000,3.990406982421875,-0.1704263836145401,0.8619054555892944,-0.4694361090660095
1761396582497784000,4.0097841796875,0.009773556143045425,0.5914528369903564,0.5541911721229553
1761396582517148000,4.02914794921875,0.11514470726251602,0.0647498071193695,1.1726740598678589
1761396582536539000,4.048538818359375,0.057114217430353165,-0.5586197972297668,0.9701781868934631
1761396582555916000,4.067916015625,-0.08460234850645065,-1.0056072473526,0.06841489672660828
1761396582575279900,4.08727978515625,-0.10750912129878998,-0.9429954290390015,-0.7366818189620972
1761396582594670600,4.106670654296875,0.16034740209579468,-0.5407525300979614,-1.31790292263031
1761396582614048000,4.126048095703125,0.7989882230758667,0.610236406326294,-1.5617836713790894
1761396582633411800,4.145411865234375,1.5326157808303833,1.3499724864959717,-1.4776395559310913
1761396582652802600,4.164802490234375,1.6804407835006714,0.2351761907339096,-1.5911043882369995
1761396582672180000,4.184179931640625,2.1075756549835205,-1.493826985359192,-2.872203826904297
1761396582691543800,4.203543701171875,2.6396236419677734,0.4262186884880066,-3.445789337158203
1761396582710934500,4.2229345703125,2.89251446723938,4.9799323081970215,-2.2500557899475098
1761396582730311700,4.242311767578125,3.318580389022827,6.129852294921875,-1.7164808511734009
1761396582749675500,4.261675537109375,2.9196972846984863,3.5281009674072266,-1.637681484222412
1761396582769066500,4.28106640625,2.1372017860412598,-0.058335911482572556,-1.217876672744751
1761396582788443600,4.300443603515625,1.6889926195144653,-0.4671454429626465,-1.8213938474655151
1761396582807807500,4.319807373046875,1.2163496017456055,0.7340856790542603,-2.910228967666626
1761396582827198200,4.3391982421875,0.5819846987724304,1.3067549467086792,-3.6000282764434814
1761396582846575600,4.35857568359375,0.3927747905254364,1.2526949644088745,-3.3593544960021973
1761396582865939500,4.377939453125,0.5777087807655334,0.7797465324401855,-2.1802666187286377
1761396582885330200,4.397330078125,1.0346225500106812,0.13530266284942627,-0.577861487865448
1761396582904707600,4.41670751953125,1.5142903327941895,-0.4969242513179779,0.6904101371765137
1761396582924071400,4.436071533203125,1.5309358835220337,-1.038593053817749,1.1381611824035645
1761396582943462100,4.455462158203125,1.323706030845642,-1.1971079111099243,0.7568397521972656
1761396582962839600,4.474839599609375,1.5162756443023682,-1.4504568576812744,0.43049460649490356
1761396582982203100,4.494203125,1.9756327867507935,-1.0743275880813599,1.3337849378585815
1761396583001594000,4.513593994140625,2.1940107345581055,-0.6420004963874817,2.5394446849823
1761396583020971300,4.53297119140625,2.2239420413970947,-2.617480516433716,1.3653963804244995
1761396583040335000,4.552335205078125,0.749204158782959,-4.747352123260498,-1.3910518884658813
1761396583059725800,4.571725830078125,-0.16859383881092072,-1.9901403188705444,-1.9234052896499634
1761396583079103200,4.591103271484375,0.7754706144332886,2.525700807571411,-0.610541820526123
1761396583098467000,4.610467041015625,1.5465126037597656,3.2623825073242188,-0.12354385852813721
1761396583117857800,4.62985791015625,1.4982556104660034,0.24525517225265503,0.018936265259981155
1761396583137235200,4.649235107421875,1.123653531074524,-2.3936049938201904,0.042453885078430176
1761396583156598800,4.668598876953125,0.7470661997795105,-2.3152637481689453,-0.31687700748443604
1761396583175989800,4.68798974609375,0.38544461131095886,-0.8107470273971558,-0.9739959836006165
1761396583195367000,4.707366943359375,-0.06872031837701797,0.2211267054080963,-1.3376027345657349
1761396583214730800,4.726730712890625,-0.13316470384597778,-0.34665581583976746,-0.7986828088760376
1761396583234121700,4.746121826171875,-0.22784602642059326,-0.6800256967544556,-0.055892523378133774
1761396583253499000,4.765498779296875,0.16996824741363525,-0.9095515608787537,0.6401679515838623
1761396583272862700,4.78486279296875,0.6687250137329102,-1.4553436040878296,1.1387720108032227
1761396583292253400,4.80425341796875,0.654370129108429,-1.6627262830734253,1.074633002281189
1761396583311630800,4.823630859375,0.8516737818717957,-0.932305634021759,1.041494607925415
1761396583330994700,4.84299462890625,1.4064757823944092,0.031916771084070206,1.3046170473098755
1761396583350385400,4.862385498046875,1.631725788116455,0.010689826682209969,1.242310643196106
1761396583369762800,4.8817626953125,1.1038010120391846,-1.9429523944854736,0.4234698712825775
1761396583389126700,4.901126708984375,-0.30130040645599365,-2.4516353607177734,-0.8295305967330933
1761396583408517400,4.920517333984375,-1.2398672103881836,1.6457751989364624,-1.0216420888900757
1761396583427894800,4.939894775390625,-0.8110524415969849,4.423450469970703,-0.24937839806079865
1761396583447258400,4.95925830078125,-0.2652604281902313,3.8136720657348633,0.2235700935125351
1761396583466649300,4.9786494140625,-0.22937314212322235,1.7972652912139893,0.4515688419342041
1761396583486026500,4.998026611328125,-0.5734328627586365,0.8457180261611938,0.20509196817874908
1761396583505390300,5.017390380859375,-0.8936695456504822,1.4964231252670288,-0.6378772258758545
1761396583524781300,5.03678125,-1.161220669746399,2.1123099327087402,-1.1548067331314087
1761396583544158500,5.056158447265625,-1.3021736145019531,2.2370753288269043,-1.1642749309539795
1761396583563522300,5.075522216796875,-1.3429477214813232,1.6841058731079102,-0.7435538172721863
1761396583582913000,5.0949130859375,-1.1502254009246826,0.7777612805366516,0.02351761981844902
1761396583602290400,5.11429052734375,-0.6198572516441345,0.012675080448389053,0.49707695841789246
1761396583621667600,5.13366748046875,-0.3833066523075104,-0.8379297256469727,0.35169529914855957
1761396583641045000,5.153044921875,-0.016187451779842377,-1.8855327367782593,-0.265718549489975
1761396583660422400,5.17242236328125,0.6450546979904175,-2.7735519409179688,-0.5938962697982788
1761396583679786000,5.191785888671875,0.32252734899520874,-2.427812337875366,0.2591519355773926
1761396583699177000,5.211177001953125,0.3518480062484741,-1.3547065258026123,1.248571753501892
1761396583718554000,5.23055419921875,0.8211314082145691,-1.9157696962356567,0.4340069890022278
1761396583737918000,5.24991796875,-0.31321191787719727,-1.9818938970565796,-0.5486935377120972
1761396583757309000,5.269308837890625,-1.2702568769454956,1.054322361946106,-0.2605263590812683
1761396583776686000,5.28868603515625,-0.9029849767684937,3.1719770431518555,0.39170581102371216
1761396583796050000,5.3080498046875,-0.3521534502506256,2.389023542404175,1.0269869565963745
1761396583815440600,5.327440673828125,-0.2817533016204834,0.5845808386802673,1.2219998836517334
1761396583834818000,5.346818115234375,-0.444085955619812,-0.3620797097682953,0.42072105407714844
1761396583854182000,5.366181884765625,-0.892447829246521,-0.27625566720962524,-0.9666658043861389
1761396583873572600,5.385572509765625,-1.2276502847671509,0.49448084831237793,-1.5810253620147705
1761396583892950000,5.404949951171875,-1.0416473150253296,1.2435322999954224,-1.1505308151245117
1761396583912313900,5.42431396484375,-0.6902574300765991,0.9804098606109619,-0.37002071738243103
1761396583931704600,5.44370458984375,-0.22815145552158356,0.23853585124015808,0.19363857805728912
1761396583951082000,5.46308203125,-0.1244601309299469,-0.41048935055732727,-0.023975754156708717
1761396583970445600,5.482445556640625,-0.4953971207141876,-0.8964183330535889,-0.6833853721618652
1761396583989836500,5.50183642578125,-0.6004628539085388,-0.9550597071647644,-1.0246962308883667
1761396584009213700,5.521213623046875,-0.37735089659690857,0.25121092796325684,-0.6193991303443909
1761396584028577500,5.54057763671875,-0.31825143098831177,1.2349804639816284,0.09972081333398819
1761396584047968500,5.559968505859375,-0.22494450211524963,1.1430479288101196,1.0578347444534302
1761396584067345700,5.579345703125,0.21242213249206543,0.4485146105289459,1.8696507215499878
1761396584086709500,5.59870947265625,0.3596363365650177,-1.4744325876235962,1.580872654914856
1761396584106100200,5.618100341796875,-0.22692975401878357,-2.7821037769317627,0.5262449383735657
1761396584125477600,5.6374775390625,-0.6919372081756592,-0.4608842432498932,0.19302773475646973
1761396584144841500,5.656841552734375,-0.20722992718219757,2.1365909576416016,0.43141087889671326
1761396584164232200,5.676232177734375,0.3226800560951233,1.9043163061141968,0.6090146899223328
1761396584183609600,5.695609619140625,0.188599094748497,-0.11560284346342087,0.46989426016807556
1761396584202973400,5.714973388671875,0.1056765764951706,-1.186418056488037,-0.2655658423900604
1761396584222364200,5.7343642578125,-0.025655584409832954,-0.9274188280105591,-1.2184876203536987
1761396584241741600,5.753741455078125,-0.10903623700141907,-0.16813570261001587,-1.2705622911453247
1761396584261118700,5.77311865234375,-0.04688252881169319,-0.2483094036579132,-0.7047650218009949
1761396584280496000,5.79249609375,-0.13484452664852142,-1.2589561939239502,0.021226942539215088
1761396584299873300,5.811873291015625,-0.07330167293548584,-2.60953950881958,0.5986303091049194
1761396584319237000,5.831237060546875,0.4853181540966034,-3.679438352584839,1.2826265096664429
1761396584338628000,5.850628173828125,1.3435585498809814,-4.012197494506836,2.073826551437378
1761396584358005200,5.870005126953125,2.2728099822998047,-3.6957786083221436,2.4281177520751953
1761396584377382700,5.889382568359375,3.184957504272461,-3.2533724308013916,1.8386502265930176
1761396584396759800,5.908759765625,4.07633638381958,-2.2376861572265625,1.204743504524231
1761396584416137200,5.92813720703125,4.348774433135986,-1.653410792350769,0.42072105407714844
1761396584435501000,5.9475009765625,4.126120567321777,-2.2225677967071533,-0.5541911721229553
1761396584454891800,5.966891845703125,4.872270584106445,-3.5905601978302,-0.8785510659217834
1761396584474269200,5.986269287109375,5.050179481506348,-3.7846570014953613,-0.8710681796073914
1761396584493633000,6.005633056640625,3.780991792678833,-1.8249062299728394,-0.9573503732681274
1761396584513023700,6.025023681640625,1.2754490375518799,0.5311316847801208,-0.1820324808359146
1761396584532401200,6.044401123046875,-0.6868977546691895,1.9722731113433838,1.326607584953308
1761396584551764700,6.0637646484375,-1.473821759223938,1.8137582540512085,1.9125627279281616
1761396584571155700,6.08315576171875,-1.8174233436584473,0.1979145109653473,1.7601563930511475
1761396584590532900,6.102532958984375,-2.0286238193511963,-0.8819107413291931,1.2056597471237183
1761396584609896700,6.121896728515625,-2.122694253921509,-0.522885262966156,0.18661384284496307
1761396584629287700,6.14128759765625,-2.2667014598846436,0.2527380585670471,-0.859767496585846
1761396584648664800,6.160664794921875,-2.3739051818847656,0.33978378772735596,-1.3664653301239014
1761396584668028700,6.180028564453125,-1.6879236698150635,-0.34787750244140625,-0.6800256967544556
1761396584687419400,6.19941943359375,-0.5094466209411621,-1.1613733768463135,0.6675033569335938
1761396584706796800,6.218796875,0.8089144825935364,-1.4648116827011108,1.4527474641799927
1761396584726160600,6.23816064453125,1.9762436151504517,-1.086391806602478,1.266897201538086
1761396584745551400,6.25755126953125,2.510429620742798,-1.1147962808609009,0.645818293094635
1761396584764928800,6.2769287109375,2.8509769439697266,-1.083337664604187,-0.22692975401878357
1761396584784292600,6.296292724609375,2.8124935626983643,-0.09452861547470093,-0.9772028923034668
1761396584803683300,6.315683349609375,1.832236409187317,0.44759833812713623,-0.9652913808822632
1761396584823060700,6.335060791015625,-0.9920159578323364,0.4566083252429962,-0.8893936276435852
1761396584842424300,6.35442431640625,-2.409639835357666,1.4583978652954102,-1.4880238771438599
1761396584861815300,6.373815185546875,-3.317511558532715,1.3962441682815552,-1.6983081102371216
1761396584881192400,6.3931923828125,-3.6641671657562256,2.4343791007995605,-1.9797559976577759
1761396584900556300,6.412556396484375,-3.1050894260406494,2.8683860301971436,-0.9556705355644226
1761396584919947300,6.431947265625,-2.351456642150879,2.2056167125701904,0.6206207871437073
1761396584939324400,6.451324462890625,-1.7180079221725464,1.2195565700531006,1.3209571838378906
1761396584958688300,6.470688232421875,-1.145796775817871,0.4781406819820404,1.2213890552520752
1761396584978079200,6.490079345703125,-0.8086090683937073,0.3593308925628662,0.6737645268440247
1761396584997456400,6.509456298828125,-0.7001836895942688,0.5031854510307312,-0.08948912471532822
1761396585016820200,6.5288203125,-0.6894938349723816,0.6554391384124756,-0.5381564497947693
1761396585036211000,6.5482109375,-0.6100836992263794,0.4960079789161682,-0.3943018913269043
1761396585055588400,6.56758837890625,-0.38071054220199585,-0.28251686692237854,0.16462333500385284
1761396585074952200,6.5869521484375,0.07971556484699249,-0.8518264889717102,0.3781144618988037
1761396585094343000,6.606343017578125,0.5399889945983887,-1.2299410104751587,0.12186402827501297
1761396585113720300,6.62572021484375,0.7175928354263306,-1.2853753566741943,-0.5296045541763306
1761396585133084200,6.645084228515625,0.8025006055831909,-1.0051491260528564,-1.45198392868042
1761396585152475000,6.664474853515625,0.9142856597900391,-0.38193225860595703,-2.193247079849243
1761396585171852300,6.683852294921875,0.8241856694221497,0.14889401197433472,-2.1339948177337646
1761396585191215900,6.7032158203125,0.5566345453262329,-0.9274188280105591,-1.429382562637329
1761396585210606800,6.72260693359375,-0.07956285774707794,-1.194664478302002,-0.4886777997016907
1761396585229984000,6.74198388671875,-1.20504891872406,0.818840742111206,0.20142687857151031
1761396585249347800,6.761347900390625,-1.5843850374221802,3.3230090141296387,0.8518264889717102
1761396585268738800,6.78073876953125,-1.32767653465271,3.5827717781066895,1.9012620449066162
1761396585288116000,6.800115966796875,-1.112505555152893,2.091082811355591,2.6545894145965576
1761396585307479800,6.819479736328125,-1.064401388168335,0.6271874308586121,2.294189691543579
1761396585326870500,6.83887060546875,-1.2681188583374023,0.13545538485050201,0.8292251825332642
1761396585346248000,6.858248046875,-1.505585789680481,0.5207473039627075,-0.9336800575256348
1761396585365611800,6.87761181640625,-1.7111358642578125,0.9132166504859924,-1.9492136240005493
1761396585385002500,6.89700244140625,-1.5423892736434937,1.0149227380752563,-1.7870336771011353
1761396585404380000,6.9163798828125,-0.9458969831466675,0.7069029808044434,-0.6093201637268066
1761396585423743700,6.93574365234375,-0.277630090713501,-0.30908870697021484,0.5905365943908691
1761396585443134500,6.955134521484375,0.2313583940267563,-1.3971604108810425,1.071884274482727
1761396585462511900,6.974511962890625,0.5967977643013,-1.9079813957214355,0.6884248852729797
1761396585481875500,6.99387548828125,0.885881245136261,-2.073979139328003,-0.30343836545944214
1761396585501266400,7.013266357421875,1.126860499382019,-2.3853585720062256,-1.1531269550323486
1761396585520643600,7.0326435546875,0.9972081780433655,-1.7477867603302002,-1.552315592765808
1761396585540007400,7.05200732421875,0.499673068523407,-0.1966928243637085,-0.9753703474998474
1761396585559398400,7.0713984375,-0.34070006012916565,-0.17439688742160797,0.14690876007080078
1761396585578775600,7.090775634765625,-1.3284400701522827,-0.20005246996879578,0.4793623983860016
1761396585598139400,7.110139404296875,-2.2285234928131104,0.6548282504081726,-0.1841704547405243
1761396585617530400,7.1295302734375,-2.855405569076538,2.221956968307495,-0.25625041127204895
1761396585636907500,7.148907470703125,-2.8225724697113037,3.0502657890319824,0.5216635465621948
1761396585656271400,7.168271240234375,-2.386580228805542,2.5290603637695312,1.5054330825805664
1761396585675662000,7.187662109375,-2.0055642127990723,1.3533320426940918,2.143004894256592
1761396585695039500,7.20703955078125,-1.893168330192566,0.2638860046863556,1.8681236505508423
1761396585714403300,7.2264033203125,-1.7742059230804443,0.12873606383800507,0.6132906675338745
1761396585733794000,7.2457939453125,-1.8316254615783691,0.4883723855018616,-0.7084301114082336
1761396585753171500,7.26517138671875,-1.787491798400879,0.6340594291687012,-1.273005723953247
1761396585772535300,7.284535400390625,-1.1917630434036255,0.42514967918395996,-1.0106468200683594
1761396585791926000,7.303926025390625,-0.5596888065338135,-0.6490252017974854,-0.2658712565898895
1761396585811303400,7.323303466796875,-0.1429382562637329,-2.053821086883545,0.24464432895183563
1761396585830667300,7.342667236328125,0.08307522535324097,-2.5699870586395264,-0.10644013434648514
1761396585850058000,7.36205810546875,0.37536564469337463,-2.3671858310699463,-1.0633323192596436
1761396585869435100,7.38143505859375,0.7261446714401245,-2.2141685485839844,-2.4221620559692383
1761396585888799000,7.400799072265625,0.6273401379585266,-1.6741796731948853,-3.002925157546997
1761396585908190000,7.42018994140625,-0.25090551376342773,0.14018943905830383,-1.54025137424469
1761396585927567000,7.439567138671875,-0.7010999321937561,0.6212316751480103,-0.44607120752334595
1761396585946931000,7.458930908203125,-0.6233696341514587,0.7823426127433777,0.06001574173569679
1761396585966322000,7.478322021484375,-0.7835643291473389,1.8284186124801636,1.004996418952942
1761396585985699000,7.497698974609375,-0.6876612901687622,2.880755662918091,2.189734697341919
1761396586005063000,7.51706298828125,-0.39643988013267517,2.869455099105835,2.606637954711914
1761396586024453600,7.53645361328125,-0.24159009754657745,2.276169538497925,2.317096471786499
1761396586043831000,7.5558310546875,-0.36360684037208557,1.542236566543579,1.3631056547164917
1761396586063195000,7.57519482421875,-0.7090409398078918,1.1709941625595093,0.145687073469162
1761396586082585600,7.594585693359375,-1.110825777053833,1.272700309753418,-0.6649072170257568
1761396586101963000,7.613962890625,-1.434880256652832,1.3182083368301392,-1.0905150175094604
1761396586121326800,7.633326904296875,-1.3095037937164307,1.0054545402526855,-0.9961391687393188
1761396586140717600,7.652717529296875,-0.7414158582687378,0.4731011986732483,-0.46393850445747375
1761396586160095000,7.672094970703125,-0.18661384284496307,-0.462564080953598,0.01511846948415041
1761396586179458800,7.691458740234375,0.13377554714679718,-1.6598247289657593,0.021226942539215088
1761396586198849500,7.710849609375,0.16431790590286255,-2.6173276901245117,-0.7751652002334595
1761396586218227000,7.73022705078125,0.1647760421037674,-2.5394446849823,-1.9893767833709717
1761396586237590500,7.749590576171875,-0.08200624585151672,-1.5688084363937378,-2.369018316268921
1761396586256981500,7.7689814453125,-0.6326850652694702,0.13392825424671173,-1.704111099243164
1761396586276358700,7.788358642578125,-1.0172133445739746,1.3513468503952026,-0.7785248160362244
1761396586295722500,7.807722412109375,-1.0106468200683594,1.5138322114944458,0.5065450668334961
1761396586315113500,7.827113525390625,-0.612527072429657,1.673416018486023,1.36371648311615
1761396586334490600,7.84649072265625,-0.15026842057704926,1.7630579471588135,2.0871124267578125
1761396586353854500,7.8658544921875,0.11315945535898209,1.3672288656234741,2.9374117851257324
1761396586373245400,7.885245361328125,0.0853659063577652,0.6261184215545654,3.540470600128174
1761396586392622600,7.90462255859375,-0.10995250940322876,0.40636613965034485,3.6036934852600098
1761396586411986400,7.923986328125,-0.324054479598999,0.5128062963485718,2.987806558609009
1761396586431377200,7.943377197265625,-0.8034168481826782,0.6945333480834961,1.7987924814224243
1761396586450754600,7.962754638671875,-1.3573026657104492,0.8777875304222107,0.5354076027870178
1761396586470118400,7.982118408203125,-1.3153069019317627,0.5262449383735657,-0.07345438003540039
1761396586489509000,8.001509033203124,-0.7699729800224304,-0.567018985748291,0.10582929104566574
1761396586508886500,8.020886474609375,-0.1453816443681717,-1.433353066444397,0.5398362874984741
1761396586528250400,8.04025048828125,0.13957859575748444,-1.8966807126998901,0.6771242022514343
1761396586547641000,8.05964111328125,-0.17943638563156128,-2.21569561958313,0.36727190017700195
1761396586567018500,8.0790185546875,-0.751494824886322,-2.224094867706299,-0.6012263894081116
1761396586586382000,8.098382080078125,-1.311947226524353,-1.5203988552093506,-1.4554963111877441
1761396586605773000,8.11777294921875,-1.715259075164795,0.11529742181301117,-0.6172611713409424
1761396586625150200,8.137150146484375,-1.3452383279800415,1.2533059120178223,1.2000094652175903
1761396586644514000,8.15651416015625,-1.0721896886825562,0.5838172435760498,1.751451849937439
1761396586663905000,8.175905029296874,-1.1459494829177856,-0.8993198871612549,1.0866972208023071
1761396586683282200,8.1952822265625,-0.8478559851646423,-1.4767231941223145,-0.08017370104789734
1761396586702646000,8.21464599609375,-0.2793098986148834,-0.7330167293548584,-0.9761339426040649
1761396586722037000,8.234037109375,0.05329642444849014,0.2918322682380676,-0.8086090683937073
1761396586741414100,8.2534140625,-0.031153209507465363,0.6768187880516052,-0.024281177669763565
1761396586760778000,8.272778076171875,-0.3637595474720001,0.4540122151374817,0.4362976551055908
1761396586780168700,8.292168701171875,-0.4966188073158264,0.05803048983216286,0.36284327507019043
1761396586799546000,8.311546142578125,-0.1175880953669548,-0.2742704153060913,0.33001023530960083
1761396586818910000,8.330909912109375,0.1960819661617279,-0.19898349046707153,0.16996824741363525
1761396586838300700,8.35030078125,0.09315420687198639,0.06245913356542587,-0.12491826713085175
1761396586857678000,8.369677978515625,-0.12659808993339539,0.13774605095386505,-0.13362284004688263
1761396586877042000,8.3890419921875,-0.22555534541606903,0.11972606182098389,0.17714570462703705
1761396586896432600,8.4084326171875,-0.08887827396392822,0.08063183724880219,0.6061131954193115
1761396586915810000,8.42781005859375,-0.0035123717971146107,-0.2089097648859024,0.728282630443573
1761396586935173600,8.447173583984375,-0.1823379099369049,-0.5906893014907837,0.6022953987121582
1761396586954564600,8.466564697265625,-0.15271180868148804,-0.5977140665054321,0.41949936747550964
1761396586973941800,8.485941650390625,0.15240639448165894,0.3370349705219269,0.4161396920681
1761396586993305900,8.505305908203125,0.23502348363399506,0.6250494718551636,0.7327113151550293
1761396587012696600,8.524696533203125,0.11178504675626755,0.07681404054164886,0.9214630722999573
1761396587032073700,8.54407373046875,-0.1820324808359146,-0.8257128000259399,-0.24159009754657745
1761396587051437600,8.5634375,-0.1910424828529358,-0.5236487984657288,-2.4195659160614014
1761396587070828500,8.58282861328125,0.11392301321029663,0.10185877978801727,-3.7501440048217773
1761396587090205700,8.602205810546875,0.8385405540466309,-0.21349111199378967,-2.560671806335449
1761396587109569500,8.621569580078125,0.826018214225769,-0.6444438695907593,0.03634541109204292
1761396587128960300,8.640960205078125,-0.21868331730365753,-0.8548807501792908,1.8103985786437988
1761396587148337700,8.660337646484376,-0.7459971904754639,-0.668419599533081,1.5842323303222656
1761396587167701500,8.679701416015625,-0.49173203110694885,0.0022906772792339325,-0.028251685202121735
1761396587187092200,8.69909228515625,0.06917845457792282,0.4659237563610077,-0.99736088514328
1761396587206469600,8.7184697265625,0.3671191930770874,0.37414395809173584,-0.5686988234519958
1761396587225833500,8.73783349609375,0.09697200357913971,-0.037567105144262314,0.5192201733589172
1761396587245224200,8.75722412109375,-0.3211529552936554,-0.1910424828529358,1.5370444059371948
1761396587264601600,8.7766015625,-0.5184566378593445,0.1973036676645279,1.8436896800994873
1761396587283965400,8.79596533203125,-0.4369085133075714,0.38788801431655884,1.4657280445098877
1761396587303356200,8.815356201171875,-0.4546230733394623,0.0456608310341835,0.9064973592758179
1761396587322733600,8.834733642578126,-0.35856732726097107,0.11377029865980148,0.5971031785011292
1761396587342097400,8.854097412109375,-0.29794076085090637,0.2808370292186737,0.7244648337364197
1761396587361488100,8.873488037109375,-0.5212054252624512,-0.1185043677687645,1.2855280637741089
1761396587380865500,8.892865478515626,-0.5554128885269165,-1.225359559059143,1.058598279953003
1761396587400229000,8.91222900390625,-0.3038965165615082,-1.0205730199813843,-1.006523609161377
1761396587419620000,8.9316201171875,-0.11483928561210632,-0.30603447556495667,-2.641150951385498
1761396587438997200,8.950997314453126,0.32970482110977173,-0.430341899394989,-2.3268699645996094
1761396587458361000,8.970361083984375,0.7128587365150452,-0.668419599533081,-0.9177979826927185
1761396587477752000,8.989751953125,-0.04031591862440109,-0.6823163628578186,0.40285375714302063
1761396587497129200,9.009129150390624,-1.1826002597808838,-0.7470661997795105,0.8774821162223816
1761396587516493000,9.0284931640625,-1.4038797616958618,-0.8197570443153381,0.4158342778682709
1761396587535884000,9.047884033203125,-0.7863131165504456,-0.9239065051078796,-0.5099047422409058
1761396587555261200,9.06726123046875,-0.09437590092420578,-0.5454866290092468,-1.3664653301239014
1761396587574625000,9.086625,0.2985515892505646,0.002748812548816204,-1.074938416481018
1761396587594015700,9.106015625,0.4068242609500885,0.21990501880645752,0.2229592502117157
1761396587613393200,9.12539306640625,0.32726141810417175,-0.0859767496585846,1.3041589260101318
1761396587632757000,9.144757080078126,0.33566057682037354,-0.18798823654651642,1.6951011419296265
1761396587652147700,9.164147705078125,0.2599155008792877,-0.0647498071193695,1.51566481590271
1761396587671525000,9.183525146484374,0.2910687327384949,0.1644706279039383,1.1838220357894897
1761396587690889000,9.202888916015626,0.16874656081199646,0.2089097648859024,0.9857547879219055
1761396587710279700,9.22227978515625,-0.06688777357339859,-0.05421269312500954,1.0080506801605225
1761396587729657000,9.241656982421874,-0.10353861004114151,-0.11667182296514511,0.9846857786178589
1761396587749021000,9.26102099609375,-0.15591876208782196,0.08643488585948944,-0.04337015375494957
1761396587768411600,9.28041162109375,-0.22402822971343994,0.6317687630653381,-1.3718101978302002
1761396587787789000,9.2997890625,-0.10659284889698029,0.5848862528800964,-1.554606318473816
1761396587807152600,9.319152587890626,0.14049486815929413,-0.08383878320455551,-1.0466867685317993
1761396587826543600,9.338543701171876,0.4421007037162781,-0.2507528066635132,-0.6021426916122437
1761396587845920800,9.357920654296874,0.36849361658096313,0.05238015204668045,-0.027029991149902344
1761396587865284600,9.37728466796875,-0.21440738439559937,0.23303823173046112,0.3196258246898651
1761396587884675600,9.396675537109376,-0.7970029711723328,0.14965757727622986,0.30740886926651
1761396587904052700,9.416052734375,-0.9290986657142639,0.38849884271621704,-0.029473381116986275
1761396587923416600,9.43541650390625,-0.7776085734367371,0.474017471075058,-0.13179029524326324
1761396587942807300,9.454807373046876,-0.7595885396003723,0.31382277607917786,0.26663482189178467
1761396587962184700,9.474184814453125,-0.6778877377510071,0.21654535830020905,0.9739959836006165
1761396587981548500,9.493548583984374,-0.5489989519119263,0.12965233623981476,1.480999231338501
1761396588000939300,9.512939208984376,-0.6603258848190308,0.12201674282550812,1.542236566543579
1761396588020316700,9.532316650390625,-0.5696150660514832,0.3045073449611664,1.4868022203445435
1761396588039680500,9.551680419921874,-0.38422292470932007,0.47019967436790466,1.5513993501663208
1761396588059071200,9.5710712890625,-0.6038225293159485,0.44423866271972656,1.572320818901062
1761396588078448600,9.59044873046875,-0.856407880783081,0.46897798776626587,1.6321839094161987
1761396588097812500,9.6098125,-0.5467082858085632,0.129499614238739,1.5828579664230347
1761396588117203200,9.629203125,-0.45355409383773804,-0.12262758612632751,1.3608149290084839
1761396588136580600,9.64858056640625,-0.3742966651916504,0.042453885078430176,0.3524588644504547
1761396588155944400,9.6679443359375,-0.4271349310874939,0.6760551929473877,-0.5267030596733093
1761396588175335200,9.687335205078124,-0.42423340678215027,-0.09605573117733002,-0.5041016936302185
