time,seconds_elapsed,z,y,x
1761395832462187000,0.22518701171875,-0.010587692260742188,0.013436555862426758,0.04013451933860779
1761395832481565000,0.24456494140625,0.07245922088623047,-0.0027621984481811523,-0.02698245644569397
1761395832500942800,0.26394287109375,0.041477203369140625,0.0033812522888183594,0.01342153549194336
1761395832520320800,0.28332080078125,0.012789726257324219,-0.006051063537597656,0.024697721004486084
1761395832539698700,0.30269873046875,-0.021669387817382812,-0.0010764598846435547,0.031341552734375
1761395832559076400,0.322076416015625,0.05414772033691406,0.031757473945617676,0.015054374933242798
1761395832578454300,0.341454345703125,-0.015183448791503906,0.003245115280151367,0.03308078646659851
1761395832597832200,0.360832275390625,0.0074787139892578125,0.018354177474975586,0.027817964553833008
1761395832617210000,0.380210205078125,0.01821613311767578,0.019844651222229004,0.012593597173690796
1761395832636588000,0.399588134765625,-0.01658153533935547,0.010757803916931152,0.022111952304840088
1761395832655966000,0.418966064453125,-0.031479835510253906,-0.019194841384887695,0.013521283864974976
1761395832675344000,0.43834375,0.021963119506835938,-0.00012564659118652344,0.020677566528320312
1761395832694721500,0.457721435546875,0.0024700164794921875,0.03528594970703125,0.0407404899597168
1761395832714099500,0.477099365234375,0.04978466033935547,0.03776717185974121,0.01687014102935791
1761395832733477400,0.496477294921875,0.03153705596923828,0.016286253929138184,0.015305876731872559
1761395832752855300,0.515855224609375,0.015716552734375,0.01186370849609375,-0.0025978386402130127
1761395832772233200,0.535233154296875,0.0070819854736328125,0.0011245012283325195,0.005030035972595215
1761395832791611100,0.554611083984375,0.053841590881347656,0.013881802558898926,-0.002861320972442627
1761395832810989000,0.573989013671875,0.010928153991699219,-0.011932611465454102,0.014972984790802002
1761395832830367000,0.593366943359375,-0.010804176330566406,-0.0033565759658813477,0.030128657817840576
1761395832849744600,0.61274462890625,0.011969566345214844,-0.00043404102325439453,0.033697545528411865
1761395832869122600,0.63212255859375,0.04671764373779297,0.011532425880432129,0.016705840826034546
1761395832888500500,0.65150048828125,-0.0010519027709960938,-0.03556251525878906,0.030637383460998535
1761395832907878400,0.67087841796875,0.014821052551269531,-0.0760953426361084,0.008037418127059937
1761395832927256300,0.69025634765625,0.06413650512695312,0.1287400722503662,-0.033835574984550476
1761395832946634200,0.70963427734375,-0.020066261291503906,0.019721269607543945,0.0019047856330871582
1761395832966012200,0.72901220703125,-0.011829376220703125,0.013773798942565918,0.02230280637741089
1761395832985389800,0.748389892578125,0.0037927627563476562,-0.00022554397583007812,0.014827519655227661
1761395833004767700,0.767767822265625,0.031868934631347656,-0.02330005168914795,-0.011361539363861084
1761395833024145700,0.787145751953125,0.009912490844726562,0.006273150444030762,0.013123631477355957
1761395833043523600,0.806523681640625,-0.0009489059448242188,0.01577770709991455,0.015559643507003784
1761395833062901500,0.825901611328125,0.02187347412109375,0.01026463508605957,0.002152949571609497
1761395833082279400,0.845279541015625,0.032810211181640625,0.008057832717895508,0.003882467746734619
1761395833101657300,0.8646572265625,0.01591205596923828,0.01033329963684082,0.0016993284225463867
1761395833121035300,0.88403515625,0.03842639923095703,0.028965115547180176,0.01800912618637085
1761395833140413000,0.903412841796875,0.018060684204101562,0.013242959976196289,0.006661206483840942
1761395833159790800,0.922790771484375,-0.008253097534179688,0.026983976364135742,0.043517231941223145
1761395833179168800,0.942168701171875,0.026327133178710938,0.04525721073150635,0.041134804487228394
1761395833198546700,0.961546630859375,-0.009412765502929688,0.014130115509033203,0.036027729511260986
1761395833217924600,0.980924560546875,0.017475128173828125,-0.030680418014526367,0.015798240900039673
1761395833237302500,1.000302490234375,0.018270492553710938,-0.032747507095336914,0.025946080684661865
1761395833256680400,1.019680419921875,-0.028916358947753906,-0.21303856372833252,0.11692383885383606
1761395833276058400,1.039058349609375,0.08148479461669922,0.20378196239471436,-0.0990145206451416
1761395833295436000,1.05843603515625,-0.002216339111328125,-0.016605615615844727,0.0596788227558136
1761395833314814000,1.07781396484375,0.010714530944824219,0.020453572273254395,0.011025786399841309
1761395833334191900,1.09719189453125,-0.0048999786376953125,0.01378929615020752,0.04092857241630554
1761395833353569800,1.11656982421875,-0.027008056640625,0.01851832866668701,0.06822535395622253
1761395833372947700,1.13594775390625,0.03027057647705078,0.025890111923217773,0.025910913944244385
1761395833392325600,1.15532568359375,0.07248878479003906,0.008455038070678711,-0.022914767265319824
1761395833411703300,1.174703369140625,0.04038810729980469,-0.028899788856506348,-0.02471734583377838
1761395833431081200,1.194081298828125,0.041632652282714844,-0.002941131591796875,-0.03742201626300812
1761395833450459100,1.213459228515625,-0.008884429931640625,0.022713780403137207,-0.007572442293167114
1761395833469837000,1.232837158203125,-0.030404090881347656,0.027538299560546875,0.004016309976577759
1761395833489215000,1.252215087890625,0.003139495849609375,0.008179783821105957,-0.00769534707069397
1761395833508593000,1.271593017578125,0.013865470886230469,0.005605101585388184,-0.0002499520778656006
1761395833527970800,1.290970703125,0.03422069549560547,0.01598942279815674,0.009071052074432373
1761395833547348700,1.3103486328125,0.009387016296386719,0.006269931793212891,0.024071305990219116
1761395833566726700,1.3297265625,0.013373374938964844,-0.013209223747253418,0.024051249027252197
1761395833586104300,1.349104248046875,0.038422584533691406,-0.004663944244384766,0.009777635335922241
1761395833605482200,1.368482177734375,0.02656269073486328,-0.004687666893005371,0.01959758996963501
1761395833624860200,1.387860107421875,-0.018929481506347656,0.008097410202026367,0.037814587354660034
1761395833644238000,1.407238037109375,0.02522754669189453,0.025144338607788086,0.020776808261871338
1761395833663616000,1.426615966796875,-0.026259422302246094,0.02651989459991455,0.04032665491104126
1761395833682994000,1.445993896484375,0.0026645660400390625,-0.005546092987060547,0.02841317653656006
1761395833702371600,1.46537158203125,0.02288341522216797,-0.007047414779663086,0.015124887228012085
1761395833721749500,1.48474951171875,0.02564716339111328,-0.00023746490478515625,0.014954566955566406
1761395833741127400,1.50412744140625,0.048134803771972656,-0.006797313690185547,0.004617124795913696
1761395833760505300,1.52350537109375,0.00858306884765625,-0.0113145112991333,0.014316529035568237
1761395833779883300,1.54288330078125,0.039249420166015625,0.02294313907623291,0.015520364046096802
1761395833799261200,1.56226123046875,-0.0280303955078125,0.023453354835510254,0.04611504077911377
1761395833818639000,1.58163916015625,0.017418861389160156,0.029389619827270508,-0.004393547773361206
1761395833838017000,1.60101708984375,0.004763603210449219,-0.01906728744506836,-0.004606336355209351
1761395833857395000,1.62039501953125,0.05226898193359375,0.023481369018554688,-0.011346563696861267
1761395833876772600,1.639772705078125,-0.011612892150878906,0.02577054500579834,0.02378237247467041
1761395833896150500,1.659150634765625,0.014008522033691406,-0.009027361869812012,0.004933148622512817
1761395833915528400,1.678528564453125,0.05376434326171875,-0.017638564109802246,-0.01844857633113861
1761395833934906400,1.69790625,0.03783702850341797,0.03866398334503174,0.019706249237060547
1761395833954284300,1.7172841796875,-0.0063648223876953125,0.008097529411315918,0.021339505910873413
1761395833973662200,1.736662109375,-0.013199806213378906,-0.00012743473052978516,0.031389713287353516
1761395833993040000,1.756039794921875,0.0032596588134765625,0.006081104278564453,0.03054836392402649
1761395834012417800,1.775417724609375,0.01897430419921875,-0.002652287483215332,0.02504602074623108
1761395834031795700,1.794795654296875,0.037383079528808594,-0.015892744064331055,0.02198934555053711
1761395834051173600,1.814173583984375,0.010855674743652344,-0.0117720365524292,0.03493043780326843
1761395834070551600,1.833551513671875,0.038410186767578125,-0.006936192512512207,0.013980686664581299
1761395834089929500,1.852929443359375,0.006117820739746094,-0.011203408241271973,0.018808096647262573
1761395834109307400,1.872307373046875,-0.045670509338378906,0.0004143714904785156,0.034199535846710205
1761395834128685300,1.891685302734375,0.03792095184326172,0.03695023059844971,-0.002247363328933716
1761395834148063000,1.91106298828125,0.049948692321777344,0.03593158721923828,-0.029564857482910156
1761395834167441000,1.93044091796875,-0.005154609680175781,0.017273306846618652,0.00009924173355102539
1761395834186818800,1.94981884765625,0.004454612731933594,0.03525066375732422,0.0024444758892059326
1761395834206196700,1.96919677734375,0.01911163330078125,0.009369850158691406,-0.00762292742729187
1761395834225574700,1.98857470703125,0.013555526733398438,-0.00750732421875,-0.004163205623626709
1761395834244952600,2.00795263671875,0.0325927734375,0.0011020898818969727,-0.001082390546798706
1761395834264330500,2.02733056640625,-0.014496803283691406,0.005563139915466309,0.04052707552909851
1761395834283708200,2.046708251953125,0.0059604644775390625,0.03574252128601074,0.036513835191726685
1761395834303086000,2.066086181640625,0.023118972778320312,0.004744529724121094,0.005006372928619385
1761395834322464000,2.085464111328125,0.0065631866455078125,-0.03569328784942627,-0.011863499879837036
1761395834341842000,2.104842041015625,0.03752899169921875,-0.009934067726135254,0.004753410816192627
1761395834361219800,2.1242197265625,0.03339576721191406,0.026717782020568848,0.02270248532295227
1761395834380597800,2.14359765625,0.0011234283447265625,0.002776503562927246,0.034261554479599
1761395834399975700,2.1629755859375,0.02760028839111328,0.0059773921966552734,0.017511337995529175
1761395834419353600,2.182353515625,-0.001514434814453125,0.02937018871307373,0.043228358030319214
1761395834438731300,2.201731201171875,0.017424583435058594,0.047586798667907715,0.034671008586883545
1761395834458109200,2.221109130859375,-0.002948760986328125,0.026076674461364746,0.011379778385162354
1761395834477487000,2.240487060546875,-0.007748603820800781,0.011196136474609375,0.00826457142829895
1761395834496865000,2.259864990234375,0.046539306640625,0.0018875598907470703,0.001050114631652832
1761395834516243000,2.279242919921875,0.02869129180908203,-0.018019795417785645,0.0055640339851379395
1761395834535620900,2.298620849609375,0.050414085388183594,-0.019043684005737305,0.010648339986801147
1761395834554998500,2.31799853515625,-0.01206207275390625,-0.015790224075317383,0.040239155292510986
1761395834574376400,2.33737646484375,-0.007321357727050781,-0.021605849266052246,0.03127589821815491
1761395834593754400,2.35675439453125,0.023955345153808594,-0.009854912757873535,0.026657044887542725
1761395834613132300,2.37613232421875,-0.00722503662109375,-0.023273468017578125,0.037862300872802734
1761395834632510200,2.39551025390625,0.04052925109863281,-0.007367134094238281,0.021534591913223267
1761395834651888000,2.41488818359375,0.026775360107421875,0.021600842475891113,0.015631288290023804
1761395834671266000,2.43426611328125,-0.00043582916259765625,0.0012323856353759766,0.019208937883377075
1761395834690643700,2.453643798828125,0.03557777404785156,0.0050733089447021484,-0.018183618783950806
1761395834710021600,2.473021728515625,0.02704334259033203,0.029328346252441406,-0.0039930641651153564
1761395834729399600,2.492399658203125,-0.01972484588623047,0.02901017665863037,0.005097299814224243
1761395834748777500,2.511777587890625,-0.005939483642578125,-0.0060236454010009766,0.0032290220260620117
1761395834768155400,2.5311552734375,0.023406028747558594,0.019567251205444336,-0.005709856748580933
1761395834787533300,2.550533203125,0.02115917205810547,0.02393794059753418,-0.022759556770324707
1761395834806911200,2.5699111328125,0.028746604919433594,-0.005530953407287598,-0.014264732599258423
1761395834826289000,2.589288818359375,0.00205230712890625,0.005464911460876465,-0.0026348531246185303
1761395834845666800,2.608666748046875,0.021396636962890625,-0.009143352508544922,-0.017394408583641052
1761395834865044700,2.628044677734375,0.012948989868164062,-0.001589059829711914,0.013976424932479858
1761395834884422700,2.647422607421875,0.033382415771484375,-0.003331303596496582,0.008826732635498047
1761395834903800600,2.666800537109375,-0.013699531555175781,0.0043648481369018555,0.035969823598861694
1761395834923178500,2.686178466796875,0.015137672424316406,0.01104748249053955,0.016011565923690796
1761395834942556400,2.705556396484375,0.015291213989257812,-0.003573298454284668,0.0015611350536346436
1761395834961934000,2.72493408203125,0.03574848175048828,-0.01255810260772705,-0.00021201372146606445
1761395834981312000,2.74431201171875,-0.011394500732421875,0.0232086181640625,0.05321100354194641
1761395835000690000,2.76368994140625,0.028369903564453125,0.01089930534362793,0.01868167519569397
1761395835020067800,2.78306787109375,-0.017171859741210938,0.008460521697998047,0.042525261640548706
1761395835039445800,2.80244580078125,0.058238983154296875,0.020391464233398438,0.012433558702468872
1761395835058823700,2.82182373046875,-0.012248992919921875,0.006243228912353516,0.02046489715576172
1761395835078201600,2.84120166015625,0.05413532257080078,-0.0036067962646484375,0.00583222508430481
1761395835097579500,2.86057958984375,-0.0119781494140625,0.013049960136413574,0.02251836657524109
1761395835116957200,2.879957275390625,-0.017629623413085938,-0.006833314895629883,0.020880311727523804
1761395835136335000,2.899335205078125,0.029331207275390625,-0.0023038387298583984,-0.00698697566986084
1761395835155713000,2.918713134765625,0.037192344665527344,0.00871896743774414,0.005082279443740845
1761395835175091000,2.938091064453125,-0.00606536865234375,0.01660609245300293,0.024212270975112915
1761395835194468900,2.95746875,0.011191368103027344,0.0021489858627319336,-0.00047710537910461426
1761395835213846800,2.9768466796875,0.0277099609375,0.011978387832641602,-0.0054857730865478516
1761395835233224400,2.996224365234375,0.015743255615234375,0.009387850761413574,0.007795959711074829
1761395835252602400,3.015602294921875,0.01605224609375,-0.003508925437927246,0.009955048561096191
1761395835271980300,3.034980224609375,0.011029243469238281,0.010422945022583008,0.00775146484375
1761395835291358200,3.054358154296875,0.025533676147460938,-0.002792835235595703,0.017903536558151245
1761395835310736100,3.073736083984375,0.017513275146484375,-0.016072392463684082,0.026599466800689697
1761395835330114000,3.093114013671875,0.008885383605957031,0.0050029754638671875,0.031932294368743896
1761395835349492000,3.112491943359375,-0.015157699584960938,0.023312926292419434,0.009675145149230957
1761395835368870000,3.131869873046875,0.031826019287109375,0.01821601390838623,-0.006413370370864868
1761395835388247600,3.15124755859375,0.02700042724609375,0.007897615432739258,-0.010608524084091187
1761395835407625500,3.17062548828125,0.008819580078125,0.008142232894897461,-0.004493683576583862
1761395835427003400,3.19000341796875,0.022948265075683594,0.022933483123779297,-0.008927702903747559
1761395835446381300,3.20938134765625,0.030025482177734375,0.02267134189605713,-0.00005838274955749512
1761395835465759200,3.22875927734375,0.014306068420410156,0.02659142017364502,0.010149836540222168
1761395835485137200,3.24813720703125,0.0037260055541992188,0.005313277244567871,0.023799777030944824
1761395835504514800,3.267514892578125,-0.035675048828125,0.038379549980163574,0.06869292259216309
1761395835523892700,3.286892822265625,0.061377525329589844,0.04341316223144531,0.024101197719573975
1761395835543270700,3.306270751953125,0.045322418212890625,-0.04997730255126953,-0.015453636646270752
1761395835562648600,3.325648681640625,0.026139259338378906,-0.05369555950164795,0.007895350456237793
1761395835582026500,3.345026611328125,-0.0007801055908203125,0.0014809370040893555,0.027974307537078857
1761395835601404400,3.364404296875,0.006827354431152344,-0.005669951438903809,0.006409972906112671
1761395835620782300,3.3837822265625,-0.0035572052001953125,-0.022811174392700195,0.013242900371551514
1761395835640160300,3.40316015625,-0.0050258636474609375,-0.015323519706726074,0.030700474977493286
1761395835659538000,3.422537841796875,0.001071929931640625,-0.017061591148376465,0.033049970865249634
1761395835678915800,3.441915771484375,0.0009822845458984375,-0.013139605522155762,0.056132107973098755
1761395835698293800,3.461293701171875,0.057552337646484375,-0.02229011058807373,0.0002662092447280884
1761395835717671700,3.480671630859375,0.0454254150390625,-0.010415792465209961,-0.0025875866413116455
1761395835737049600,3.500049560546875,0.00921630859375,0.028782963752746582,0.01660779118537903
1761395835756427500,3.519427490234375,-0.007411956787109375,0.008977174758911133,0.007621496915817261
1761395835775805200,3.53880517578125,0.01771068572998047,0.04000556468963623,0.008850336074829102
1761395835795183000,3.55818310546875,0.023662567138671875,0.03445935249328613,-0.02205425500869751
1761395835814561000,3.57756103515625,-0.0026226043701171875,0.023529887199401855,-0.010420382022857666
1761395835833939000,3.59693896484375,0.015341758728027344,0.02100837230682373,-0.012472182512283325
1761395835853316900,3.61631689453125,-0.0014495849609375,0.019979000091552734,-0.009714081883430481
1761395835872694800,3.63569482421875,0.009754180908203125,-0.009575605392456055,-0.015756845474243164
1761395835892072700,3.65507275390625,0.016698837280273438,-0.0020183324813842773,0.00007292628288269043
1761395835911450400,3.674450439453125,0.018850326538085938,0.007797598838806152,0.02129185199737549
1761395835930828300,3.693828369140625,-0.0028619766235351562,-0.0009021759033203125,0.02837112545967102
1761395835950206200,3.713206298828125,-0.0004482269287109375,0.002929091453552246,0.04319274425506592
1761395835969584000,3.732584228515625,0.08009815216064453,0.0063512325286865234,-0.011764705181121826
1761395835988962000,3.751962158203125,0.0020465850830078125,0.001615285873413086,0.004493296146392822
1761395836008340000,3.771340087890625,0.007959365844726562,0.0014995336532592773,0.006028458476066589
1761395836027718000,3.7907177734375,-0.013666152954101562,0.008966207504272461,0.02146296203136444
1761395836047095600,3.810095458984375,0.017925262451171875,-0.008687138557434082,0.016448691487312317
1761395836066473500,3.829473388671875,0.011769294738769531,-0.00996410846710205,0.022522762417793274
1761395836085851400,3.848851318359375,0.025121688842773438,-0.00697481632232666,0.012327820062637329
1761395836105229300,3.868229248046875,0.010422706604003906,0.0036810636520385742,0.023966655135154724
1761395836124607200,3.887607177734375,0.02988433837890625,-0.006180405616760254,0.026270732283592224
1761395836143985200,3.906985107421875,0.04291057586669922,0.013278722763061523,0.0024708807468414307
1761395836163363000,3.926363037109375,-0.006214141845703125,0.004151463508605957,0.017372876405715942
1761395836182740700,3.94574072265625,0.00827789306640625,-0.005614280700683594,0.013370886445045471
1761395836202118700,3.96511865234375,0.026445388793945312,-0.006278276443481445,0.004912376403808594
1761395836221496600,3.98449658203125,0.02639293670654297,-0.006095290184020996,-0.0023114681243896484
1761395836240874500,4.00387451171875,0.01652812957763672,0.0034220218658447266,-0.014391213655471802
1761395836260252400,4.02325244140625,0.031144142150878906,0.01729142665863037,-0.014298617839813232
1761395836279630300,4.04263037109375,-0.0013132095336914062,0.014849185943603516,0.00775320827960968
1761395836299008000,4.062008056640625,0.01058197021484375,0.004967093467712402,0.007241159677505493
1761395836318386000,4.081385986328125,0.017841339111328125,0.012585639953613281,0.009845554828643799
1761395836337763800,4.100763916015625,0.009699821472167969,-0.0034269094467163086,-0.002418801188468933
1761395836357141800,4.120141845703125,0.022736549377441406,0.0009685754776000977,0.008077874779701233
1761395836376519700,4.139519775390625,0.014438629150390625,0.001452803611755371,0.016554921865463257
1761395836395897600,4.158897705078125,-0.001983642578125,-0.015717267990112305,0.028046920895576477
1761395836415275500,4.178275634765625,0.005137443542480469,-0.01289224624633789,0.016335055232048035
1761395836434653400,4.1976533203125,0.009511947631835938,0.02168095111846924,0.013331279158592224
1761395836454031000,4.217031005859375,0.016574859619140625,0.009134411811828613,0.006941571831703186
1761395836473409000,4.236408935546875,0.046596527099609375,0.0035943984985351562,-0.004669174551963806
1761395836492787000,4.255786865234375,0.032505035400390625,-0.005495548248291016,-0.01468464732170105
1761395836512164900,4.275164794921875,0.027297019958496094,0.028358817100524902,-0.007443219423294067
1761395836531542800,4.294542724609375,0.005682945251464844,0.035427093505859375,0.010395601391792297
1761395836550920700,4.313920654296875,-0.005116462707519531,0.017113327980041504,0.021245986223220825
1761395836570298400,4.33329833984375,-0.014728546142578125,0.016051292419433594,0.03396099805831909
1761395836589676300,4.35267626953125,0.023604393005371094,0.015435338020324707,0.020585760474205017
1761395836609054200,4.37205419921875,0.03497314453125,-0.006669044494628906,-0.011690810322761536
1761395836628432100,4.39143212890625,0.010921478271484375,-0.03672385215759277,-0.009517520666122437
1761395836647810000,4.41081005859375,0.012054443359375,-0.018244028091430664,0.024968475103378296
1761395836667188000,4.43018798828125,0.009927749633789062,-0.017837047576904297,0.022873997688293457
1761395836686566000,4.44956591796875,0.0038928985595703125,-0.02247607707977295,0.02004547417163849
1761395836705943800,4.46894384765625,0.034590721130371094,-0.0040367841720581055,0.018991753458976746
1761395836725321500,4.488321533203125,0.004702568054199219,-0.0073632001876831055,0.03359094262123108
1761395836744699400,4.507699462890625,0.0046539306640625,-0.014390230178833008,0.037161827087402344
1761395836764077300,4.527077392578125,0.02994251251220703,0.003003835678100586,0.0051530152559280396
1761395836783455200,4.546455322265625,0.04648017883300781,0.03494763374328613,-0.007809266448020935
1761395836802833200,4.565833251953125,-0.009809494018554688,0.019600391387939453,0.020288437604904175
1761395836822211000,4.585211181640625,0.011704444885253906,0.019788622856140137,0.002279803156852722
1761395836841588700,4.604588623046875,0.023688316345214844,0.031722187995910645,-0.010057732462882996
1761395836860966700,4.623966552734375,0.0020771026611328125,0.009806513786315918,0.005255565047264099
1761395836880344600,4.643344482421875,0.004469871520996094,0.008086800575256348,0.012087330222129822
1761395836899722500,4.662722412109375,0.021245956420898438,0.0042572021484375,0.001275867223739624
1761395836919100400,4.682100341796875,0.037303924560546875,-0.013027429580688477,-0.004935130476951599
1761395836938478300,4.701478271484375,0.031271934509277344,-0.012497544288635254,-0.0007132142782211304
1761395836957856300,4.720856201171875,0.0021228790283203125,0.007608294486999512,0.02759966254234314
1761395836977234000,4.74023388671875,0.017980575561523438,-0.004970431327819824,0.003009513020515442
1761395836996611800,4.75961181640625,0.0039005279541015625,-0.026444673538208008,0.021121516823768616
1761395837015989800,4.77898974609375,0.027496337890625,0.01654994487762451,0.014413908123970032
1761395837035367700,4.79836767578125,0.009344100952148438,0.009796380996704102,0.023577868938446045
1761395837054745600,4.81774560546875,0.0117034912109375,0.015866756439208984,0.018907293677330017
1761395837074123500,4.83712353515625,0.0020723342895507812,0.001645803451538086,0.014865010976791382
1761395837093501200,4.856501220703125,0.02256011962890625,0.01213991641998291,-0.005729049444198608
1761395837112879000,4.875879150390625,0.03494834899902344,-0.011520028114318848,-0.027706041932106018
1761395837132257000,4.895257080078125,0.014112472534179688,0.01499783992767334,-0.014300167560577393
1761395837151635000,4.914635009765625,0.014063835144042969,0.013987421989440918,-0.00939244031906128
1761395837171012900,4.934012939453125,0.0036945343017578125,-0.012967944145202637,-0.0006264001131057739
1761395837190390800,4.953390869140625,0.012020111083984375,-0.009052038192749023,0.00984250009059906
1761395837209768700,4.972768798828125,0.011662483215332031,-0.0004564523696899414,0.001484885811805725
1761395837229146400,4.992146484375,0.027258872985839844,-0.004515290260314941,0.003400653600692749
1761395837248524300,5.011524169921875,0.005425453186035156,0.009378314018249512,0.015778273344039917
1761395837267902200,5.030902099609375,0.03330802917480469,-0.0025458335876464844,0.010339513421058655
1761395837287280000,5.050280029296875,0.027080535888671875,0.0032062530517578125,-0.0020273178815841675
1761395837306658000,5.069657958984375,-0.004111289978027344,-0.0022994279861450195,0.0029005110263824463
1761395837326036000,5.089035888671875,0.016074180603027344,0.007057785987854004,0.004791527986526489
1761395837345414000,5.108413818359375,-0.003926277160644531,-0.014046430587768555,0.016131460666656494
1761395837364791600,5.12779150390625,0.023598670959472656,0.000044226646423339844,-0.0020121335983276367
1761395837384169500,5.14716943359375,0.03271293640136719,0.028363704681396484,-0.00046887993812561035
1761395837403547400,5.16654736328125,0.010334014892578125,-0.0017595291137695312,-0.0027799606323242188
1761395837422925300,5.18592529296875,0.016427040100097656,-0.020609259605407715,0.009433194994926453
1761395837442303200,5.20530322265625,0.0026922225952148438,0.00368499755859375,0.024891585111618042
1761395837461681200,5.22468115234375,0.019992828369140625,-0.0026454925537109375,0.017135754227638245
1761395837481058800,5.244058837890625,0.029117584228515625,0.025818228721618652,0.019747495651245117
1761395837500436700,5.263436767578125,0.011516571044921875,-0.0005859136581420898,0.023128539323806763
1761395837519814700,5.282814697265625,0.013750076293945312,0.005699038505554199,0.028284311294555664
1761395837539192600,5.302192626953125,0.021437644958496094,-0.013617277145385742,0.011811763048171997
1761395837558570500,5.321570556640625,0.009497642517089844,-0.02232956886291504,0.014299333095550537
1761395837577948400,5.340948486328125,0.006711006164550781,0.006683707237243652,0.022946268320083618
1761395837597326300,5.360326416015625,0.011415481567382812,0.021596908569335938,-0.0010620057582855225
1761395837616704000,5.3797041015625,0.02229595184326172,0.006139039993286133,0.0021249204874038696
1761395837636082000,5.39908203125,0.03798675537109375,-0.00823509693145752,-0.017796367406845093
1761395837655459800,5.4184599609375,0.0126495361328125,-0.003135085105895996,0.003182515501976013
1761395837674837800,5.437837646484375,0.02445220947265625,0.001964569091796875,-0.007310301065444946
1761395837694215700,5.457215576171875,0.019357681274414062,0.02133965492248535,0.0015530586242675781
1761395837713593600,5.476593505859375,0.01924610137939453,0.02008652687072754,0.010848134756088257
1761395837732971300,5.49597119140625,0.0024614334106445312,0.018018245697021484,0.029569461941719055
1761395837752349200,5.51534912109375,0.014390945434570312,0.012615680694580078,0.01498819887638092
1761395837771727000,5.53472705078125,0.02204418182373047,-0.010377287864685059,0.0027123987674713135
1761395837791105000,5.55410498046875,0.014740943908691406,-0.02984464168548584,-0.013925731182098389
1761395837810483000,5.57348291015625,0.02077198028564453,-0.021744370460510254,0.00845673680305481
1761395837829860900,5.59286083984375,0.022083282470703125,-0.03429412841796875,0.004491552710533142
1761395837849238800,5.61223876953125,0.005351066589355469,-0.022405028343200684,0.03135824203491211
1761395837868616700,5.63161669921875,-0.0043621063232421875,-0.02420663833618164,0.029093384742736816
1761395837887994400,5.650994384765625,0.020300865173339844,0.006579875946044922,0.03336039185523987
1761395837907372300,5.670372314453125,0.028738021850585938,0.010410308837890625,0.035602256655693054
1761395837926750200,5.689750244140625,0.01700592041015625,-0.008627057075500488,0.009824663400650024
1761395837946128100,5.709128173828125,0.012242317199707031,-0.008031606674194336,-0.0035241693258285522
1761395837965506000,5.728506103515625,0.0031890869140625,0.018359661102294922,-0.0002781003713607788
1761395837984884000,5.747884033203125,0.017818450927734375,0.012231707572937012,-0.006764993071556091
1761395838004261600,5.76726171875,0.040017127990722656,0.023597240447998047,-0.020047560334205627
1761395838023639600,5.7866396484375,0.018541336059570312,0.03858613967895508,-0.01484692096710205
1761395838043017500,5.806017578125,0.020956993103027344,0.010135650634765625,-0.00647464394569397
1761395838062395400,5.8253955078125,-0.006299018859863281,-0.017146825790405273,0.010300889611244202
1761395838081773300,5.844773193359375,-0.009276390075683594,0.015999674797058105,0.022931933403015137
1761395838101151200,5.864151123046875,0.025954246520996094,-0.019603729248046875,0.0069417208433151245
1761395838120529200,5.883529052734375,0.030706405639648438,-0.025370121002197266,0.014303028583526611
1761395838139906800,5.90290673828125,0.03427600860595703,-0.003540515899658203,0.02171650528907776
1761395838159284700,5.92228466796875,-0.000408172607421875,-0.009545445442199707,0.030489608645439148
1761395838178662700,5.94166259765625,0.006694793701171875,0.004044055938720703,0.024879053235054016
1761395838198040600,5.96104052734375,0.01773548126220703,-0.015211343765258789,0.004313409328460693
1761395838217418500,5.98041845703125,0.01629352569580078,0.0031827688217163086,0.01684628427028656
1761395838236796400,5.99979638671875,0.01975536346435547,0.0040013790130615234,0.01841135323047638
1761395838256174000,6.019174072265625,0.006590843200683594,0.0063860416412353516,0.012811720371246338
1761395838275552000,6.038552001953125,0.02239227294921875,0.010544419288635254,0.0007896870374679565
1761395838294930000,6.057929931640625,0.008897781372070312,0.010727167129516602,0.013772010803222656
1761395838314307800,6.077307861328125,0.00890350341796875,0.022391915321350098,0.013121083378791809
1761395838333685800,6.096685791015625,0.028588294982910156,0.005983710289001465,-0.02311021089553833
1761395838353063700,6.116063720703125,0.007166862487792969,0.005080461502075195,-0.007190600037574768
1761395838372441600,6.135441650390625,0.025055885314941406,0.0032345056533813477,-0.00003650784492492676
1761395838391819500,6.154819580078125,0.0045299530029296875,-0.00732111930847168,0.02345450222492218
1761395838411197200,6.174197265625,0.030029296875,-0.02230656147003174,-0.006022199988365173
1761395838430575000,6.1935751953125,0.020462989807128906,-0.02480626106262207,0.0055427104234695435
1761395838449953000,6.212953125,0.005976676940917969,-0.007045865058898926,0.019825592637062073
1761395838469331000,6.2323310546875,0.014019012451171875,0.013589143753051758,0.022789210081100464
1761395838488708900,6.251708984375,0.013182640075683594,0.005692601203918457,0.00302337110042572
1761395838508086800,6.271086669921875,0.022994041442871094,-0.0061141252517700195,-0.005629405379295349
1761395838527464400,6.29046435546875,0.05164337158203125,-0.006694793701171875,-0.025606200098991394
1761395838546842400,6.30984228515625,0.008259773254394531,0.011693596839904785,-0.019435927271842957
1761395838566220300,6.32922021484375,-0.00004673004150390625,0.005628347396850586,-0.01677936315536499
1761395838585598200,6.34859814453125,0.0055065155029296875,0.033243417739868164,0.017763540148735046
1761395838604976000,6.36797607421875,0.0030374526977539062,0.023145318031311035,0.016814634203910828
1761395838624354000,6.38735400390625,0.013758659362792969,0.02465355396270752,0.03180114924907684
1761395838643732000,6.40673193359375,0.023767471313476562,-0.001515030860900879,0.010999426245689392
1761395838663109600,6.426109619140625,0.028676986694335938,-0.021418094635009766,0.012822762131690979
1761395838682487600,6.445487548828125,0.022691726684570312,-0.047589778900146484,-0.0036985278129577637
1761395838701865500,6.464865478515625,0.005951881408691406,-0.028374910354614258,0.025772377848625183
1761395838721243400,6.484243408203125,0.02394390106201172,-0.025067806243896484,0.009230241179466248
1761395838740621300,6.503621337890625,0.00347900390625,0.0010483264923095703,0.023157477378845215
1761395838759999200,6.522999267578125,0.014418601989746094,-0.0016558170318603516,0.02432110905647278
1761395838779377000,6.542376953125,0.0013284683227539062,-0.012333989143371582,0.013362303376197815
1761395838798754800,6.5617548828125,0.03128528594970703,-0.017918825149536133,0.0031505972146987915
1761395838818132700,6.5811328125,0.03728294372558594,0.001138925552368164,-0.005014374852180481
1761395838837510700,6.6005107421875,-0.005034446716308594,0.0059812068939208984,-0.009504228830337524
1761395838856888600,6.619888671875,0.011649131774902344,0.028227806091308594,-0.010959088802337646
1761395838876266500,6.6392666015625,0.014079093933105469,0.020920395851135254,-0.002415373921394348
1761395838895644400,6.65864453125,0.011750221252441406,0.023851871490478516,0.007412999868392944
1761395838915022300,6.678022216796875,-0.007244110107421875,0.02232229709625244,0.01055455207824707
1761395838934400000,6.69739990234375,0.033827781677246094,0.006375432014465332,-0.027128130197525024
1761395838953778000,6.71677783203125,0.01812744140625,-0.0020949840545654297,-0.011511832475662231
1761395838973155800,6.73615576171875,0.025427818298339844,-0.013671636581420898,-0.01386307179927826
1761395838992533800,6.75553369140625,0.015915870666503906,-0.030753731727600098,-0.003224968910217285
1761395839011911700,6.77491162109375,0.01831340789794922,-0.016275763511657715,-0.0016192644834518433
1761395839031289600,6.79428955078125,0.025417327880859375,-0.0036330223083496094,0.01194104552268982
1761395839050667300,6.813667236328125,0.0026264190673828125,-0.00808727741241455,0.021555036306381226
1761395839070045200,6.833045166015625,0.015473365783691406,0.007601022720336914,0.013918071985244751
1761395839089423000,6.852423095703125,0.012032508850097656,-0.0009626150131225586,0.015100300312042236
1761395839108801000,6.871801025390625,0.026700973510742188,-0.002336859703063965,0.008876338601112366
1761395839128179000,6.891178955078125,0.01461029052734375,-0.00014221668243408203,-0.005168110132217407
1761395839147556900,6.910556884765625,0.016706466674804688,0.010685324668884277,0.011900082230567932
1761395839166934800,6.929934814453125,0.012299537658691406,0.0005528926849365234,0.00791981816291809
1761395839186312400,6.9493125,0.01945781707763672,0.009155988693237305,0.006050854921340942
1761395839205690400,6.9686904296875,0.018419265747070312,-0.0017595291137695312,-0.007553398609161377
1761395839225068300,6.988068359375,0.014764785766601562,-0.0072438716888427734,0.0029055029153823853
1761395839244446200,7.0074462890625,0.006130218505859375,0.010230779647827148,0.0019077211618423462
1761395839263824100,7.02682421875,0.015952110290527344,-0.0059670209884643555,0.0015441477298736572
1761395839283202000,7.0462021484375,0.026842117309570312,-0.03920316696166992,-0.0045049190521240234
1761395839302579700,7.065579833984375,0.01012420654296875,-0.020447134971618652,0.019586727023124695
1761395839321957600,7.08495751953125,0.02530956268310547,0.01828467845916748,0.00641690194606781
1761395839341335600,7.10433544921875,0.005122184753417969,0.011176109313964844,0.00325147807598114
1761395839360713500,7.12371337890625,0.0030155181884765625,-0.018959999084472656,0.00877922773361206
1761395839380091400,7.14309130859375,0.03893280029296875,-0.014385700225830078,-0.01958325505256653
1761395839399469300,7.16246923828125,0.034778594970703125,0.025203943252563477,-0.02891024947166443
1761395839418847200,7.18184716796875,0.0012235641479492188,0.041195034980773926,0.0024875104427337646
1761395839438225000,7.201224853515625,0.013350486755371094,0.014455914497375488,-0.0036368072032928467
1761395839457602800,7.220602783203125,0.013452529907226562,-0.003999590873718262,0.012236520648002625
1761395839476980700,7.239980712890625,0.0072269439697265625,0.003864288330078125,0.025327757000923157
1761395839496358700,7.259358642578125,0.013447761535644531,-0.0051496028900146484,0.012139365077018738
1761395839515736600,7.278736572265625,0.04139518737792969,-0.02503061294555664,-0.004045248031616211
1761395839535114500,7.298114501953125,0.016289710998535156,-0.0203094482421875,0.00897379219532013
1761395839554492200,7.3174921875,-0.00885009765625,-0.04682791233062744,0.012553170323371887
1761395839573870000,7.3368701171875,0.03311443328857422,-0.0237351655960083,-0.007564365863800049
1761395839593248000,7.356248046875,0.021185874938964844,-0.02154827117919922,-0.008361399173736572
1761395839612626000,7.3756259765625,0.015238761901855469,-0.022832393646240234,0.01762695610523224
1761395839632003800,7.39500390625,-0.015092849731445312,-0.003385186195373535,0.03974942862987518
1761395839651381800,7.4143818359375,0.02425670623779297,0.012714743614196777,0.005871385335922241
1761395839670759700,7.433759765625,0.04163932800292969,0.0005068778991699219,-0.01768411695957184
1761395839690137600,7.4531376953125,0.017475128173828125,0.006146430969238281,-0.02746497094631195
1761395839709515300,7.472515380859375,-0.01868915557861328,0.022412657737731934,0.003271952271461487
1761395839728893200,7.49189306640625,0.002960205078125,0.016960620880126953,0.004635259509086609
1761395839748271000,7.51127099609375,0.0261077880859375,0.0027360916137695312,-0.028873875737190247
1761395839767649000,7.53064892578125,0.03301525115966797,0.025341272354125977,-0.024362698197364807
1761395839787027000,7.55002685546875,0.004446983337402344,0.000050067901611328125,-0.004127100110054016
1761395839806404900,7.56940478515625,0.001895904541015625,-0.0013974905014038086,0.013440489768981934
1761395839825782500,7.588782470703125,0.029900550842285156,-0.016254663467407227,-0.012699499726295471
1761395839845160400,7.608160400390625,0.021671295166015625,-0.01997852325439453,0.009249076247215271
1761395839864538400,7.627538330078125,0.03598213195800781,-0.033930063247680664,0.005876630544662476
1761395839883916300,7.646916259765625,0.026117324829101562,-0.008741259574890137,0.01789902150630951
1761395839903294200,7.666294189453125,0.014185905456542969,-0.006536245346069336,0.023148909211158752
1761395839922672000,7.685672119140625,0.0069599151611328125,0.001008749008178711,0.01747313141822815
1761395839942050000,7.705050048828125,0.009349822998046875,0.004306793212890625,0.012895733118057251
1761395839961427700,7.724427734375,0.015727996826171875,-0.013435721397399902,0.008340984582901001
1761395839980805600,7.7438056640625,0.02250385284423828,0.010049223899841309,0.0035338997840881348
1761395840000183600,7.76318359375,0.032563209533691406,-0.002235889434814453,-0.009243592619895935
1761395840019561500,7.7825615234375,0.011765480041503906,0.004957675933837891,0.00018230080604553223
1761395840038939400,7.801939453125,0.010807991027832031,-0.0138627290725708,-0.011168181896209717
1761395840058317300,7.8213173828125,0.018804550170898438,0.023630499839782715,0.009196147322654724
1761395840077695000,7.840695068359375,0.028815269470214844,-0.009681344032287598,-0.011803582310676575
1761395840097073000,7.860072998046875,-0.0036334991455078125,-0.009977459907531738,0.004371553659439087
1761395840116450800,7.879450927734375,0.021638870239257812,-0.006569385528564453,-0.012371718883514404
1761395840135828700,7.898828857421875,0.013089179992675781,-0.004133701324462891,0.007281005382537842
1761395840155206700,7.91820654296875,0.0192718505859375,-0.00813305377960205,-0.0005345195531845093
1761395840174584600,7.93758447265625,0.010733604431152344,-0.0034270286560058594,-0.002834305167198181
1761395840193962500,7.95696240234375,0.015454292297363281,0.00047385692596435547,-0.011111810803413391
1761395840213340200,7.976340087890625,0.014250755310058594,-0.004274606704711914,0.004472672939300537
1761395840232718000,7.995718017578125,0.011944770812988281,-0.004858493804931641,0.003889307379722595
1761395840252096000,8.015095947265625,0.009272575378417969,0.011800885200500488,0.009247913956642151
1761395840271474000,8.034473876953125,0.0083160400390625,0.00015592575073242188,0.00070992112159729
1761395840290851800,8.053851806640624,0.009593963623046875,-0.011531829833984375,0.0011477470397949219
1761395840329607400,8.092607421875,0.016378402709960938,0.005217313766479492,-0.009816199541091919
1761395840348985300,8.1119853515625,0.00005817413330078125,-0.007845878601074219,0.005277872085571289
1761395840368363300,8.13136328125,0.0056133270263671875,0.004945874214172363,0.015461668372154236
1761395840387741200,8.1507412109375,0.011875152587890625,-0.005944371223449707,0.01606738567352295
1761395840407119000,8.170119140625,0.03487968444824219,-0.019028186798095703,-0.004683554172515869
1761395840426497000,8.1894970703125,0.02166748046875,-0.025729656219482422,-0.005959436297416687
1761395840445875000,8.208875,0.010311126708984375,0.0018721818923950195,0.002398759126663208
1761395840465252900,8.2282529296875,0.01993846893310547,0.011278748512268066,0.0009149461984634399
1761395840484630500,8.247630615234375,0.0034017562866210938,-0.0011795759201049805,-0.0006004422903060913
1761395840504008400,8.267008544921875,0.012943267822265625,0.006134152412414551,-0.0008634775876998901
1761395840523386400,8.286386474609374,0.013029098510742188,0.002856731414794922,-0.0033582597970962524
1761395840542764300,8.305764404296875,0.021758079528808594,-0.03232991695404053,-0.014635518193244934
1761395840562142200,8.32514208984375,0.021495819091796875,-0.00237882137298584,0.0029139965772628784
1761395840581520100,8.34452001953125,-0.00331878662109375,-0.011043906211853027,0.0011280030012130737
1761395840600897800,8.363897705078125,0.010522842407226562,-0.00010848045349121094,-0.0005398988723754883
1761395840620275700,8.383275634765624,0.0276336669921875,-0.006943941116333008,-0.016893401741981506
1761395840639653600,8.402653564453125,0.041934967041015625,-0.00643157958984375,-0.007660463452339172
1761395840659031600,8.422031494140626,0.028464317321777344,0.013190388679504395,-0.01335674524307251
1761395840678409500,8.441409423828125,0.0030469894409179688,0.009921669960021973,-0.00803731381893158
1761395840697787400,8.460787353515625,0.006465911865234375,0.023354411125183105,0.01435801386833191
1761395840717165300,8.480165283203124,0.014763832092285156,0.020661234855651855,0.013224408030509949
1761395840736543000,8.49954296875,0.013592720031738281,0.015757203102111816,0.01746360957622528
1761395840755921000,8.5189208984375,0.012589454650878906,0.0009622573852539062,0.008618056774139404
1761395840775298800,8.538298828125,0.0257568359375,-0.003999948501586914,-0.005276471376419067
1761395840794676700,8.5576767578125,0.017675399780273438,-0.05175650119781494,-0.017543360590934753
1761395840814054700,8.5770546875,0.02001190185546875,-0.05854010581970215,-0.0020867884159088135
1761395840833432600,8.5964326171875,0.01654815673828125,-0.031047701835632324,0.0168694406747818
1761395840852810200,8.615810302734374,0.021071434020996094,-0.003713250160217285,0.019835248589515686
1761395840872188200,8.635188232421875,0.00635528564453125,0.001378774642944336,0.02401888370513916
1761395840891566000,8.654566162109376,0.0029582977294921875,-0.0015603303909301758,0.03042323887348175
1761395840910944000,8.673944091796875,0.0162353515625,-0.0039244890213012695,0.025980040431022644
1761395840930322000,8.693322021484375,0.031678199768066406,0.015924811363220215,0.01061713695526123
1761395840949699800,8.712699951171874,0.011335372924804688,0.01829397678375244,-0.002841666340827942
1761395840969077800,8.732077880859375,0.01643085479736328,0.010111689567565918,-0.0262937992811203
1761395840988455700,8.75145556640625,0.01648998260498047,0.0074841976165771484,-0.024221554398536682
1761395841007833300,8.770833251953125,-0.010130882263183594,0.017994165420532227,-0.010861977934837341
1761395841027211300,8.790211181640625,0.005522727966308594,0.008896827697753906,-0.011492311954498291
1761395841046589200,8.809589111328124,0.021337509155273438,-0.0030912160873413086,-0.018367499113082886
1761395841065967000,8.828967041015625,0.03822898864746094,-0.029377102851867676,-0.03576037287712097
1761395841085345000,8.848344970703126,0.02374553680419922,-0.022115468978881836,-0.0021234452724456787
1761395841104722700,8.86772265625,0.004721641540527344,-0.026469707489013672,0.005351543426513672
1761395841124100600,8.8871005859375,0.0044765472412109375,-0.006420254707336426,0.022197142243385315
1761395841143478500,8.906478515625,0.03535175323486328,0.004039168357849121,0.007806256413459778
1761395841162856400,8.9258564453125,0.0033121109008789062,-0.00884866714477539,0.014839738607406616
1761395841182234400,8.945234375,0.005947113037109375,-0.01949334144592285,0.014623746275901794
1761395841201612300,8.9646123046875,0.031986236572265625,0.0006556510925292969,-0.00410035252571106
1761395841220990200,8.983990234375,0.02362346649169922,-0.000567317008972168,-0.002441883087158203
1761395841240368000,9.0033681640625,0.01779651641845703,-0.004115939140319824,-0.0008187741041183472
1761395841259745800,9.022745849609375,-0.0036268234252929688,-0.019712209701538086,0.007719710469245911
1761395841279123700,9.042123779296874,0.018637657165527344,0.0065850019454956055,0.014773920178413391
1761395841298501600,9.061501708984375,0.03300762176513672,0.0076770782470703125,0.015130475163459778
1761395841317879600,9.080879638671876,0.010454177856445312,-0.0020461082458496094,0.005723834037780762
1761395841337257500,9.100257568359375,0.01551055908203125,-0.024428248405456543,0.003566339612007141
1761395841356635400,9.119635498046875,0.015134811401367188,-0.004784584045410156,0.017100870609283447
1761395841376013000,9.139012939453124,0.015385627746582031,-0.014125227928161621,0.01103922724723816
1761395841395391000,9.158390869140625,0.019125938415527344,-0.010599374771118164,0.012049615383148193
1761395841414769000,9.177768798828126,0.016732215881347656,-0.022657036781311035,-0.004105657339096069
1761395841434146800,9.197146728515625,0.03339672088623047,-0.014956474304199219,-0.015764892101287842
1761395841453524700,9.216524658203125,0.020233154296875,-0.0064362287521362305,-0.0026573985815048218
1761395841472902700,9.235902587890624,0.0030117034912109375,0.018709182739257812,0.011844158172607422
1761395841492280600,9.255280517578125,-0.0014410018920898438,-0.0017658472061157227,-0.013123154640197754
1761395841511658200,9.274658203125,0.02878284454345703,-0.012759208679199219,-0.028157323598861694
1761395841531036200,9.2940361328125,0.030897140502929688,0.011077404022216797,-0.016459450125694275
1761395841550414000,9.3134140625,0.006926536560058594,-0.005297541618347168,0.004706189036369324
1761395841569792000,9.3327919921875,0.003265380859375,0.0013846158981323242,-0.004032939672470093
1761395841589170000,9.352169921875,0.00121307373046875,-0.0074748992919921875,-0.012371465563774109
1761395841608547800,9.3715478515625,0.0402374267578125,0.021419167518615723,-0.0011965930461883545
1761395841627925500,9.390925537109375,0.005870819091796875,-0.018458843231201172,0.0040782541036605835
1761395841647303400,9.410303466796876,0.0060749053955078125,-0.03204333782196045,0.02891172468662262
1761395841666681300,9.429681396484375,0.03125190734863281,-0.01557004451751709,0.01749579608440399
1761395841686059300,9.449059326171875,0.01569843292236328,-0.017963409423828125,0.020291581749916077
1761395841705437200,9.468437255859374,-0.007657051086425781,0.009308576583862305,0.032342955470085144
1761395841724815000,9.487815185546875,0.03839397430419922,-0.01951444149017334,-0.008676007390022278
1761395841744193000,9.507193115234376,0.02045154571533203,-0.01732933521270752,-0.006613105535507202
1761395841763571000,9.526571044921875,0.04639244079589844,0.008693814277648926,-0.01876695454120636
1761395841782948600,9.545948486328125,0.0009355545043945312,-0.0033996105194091797,-0.005902141332626343
1761395841802326500,9.565326416015624,0.018453598022460938,0.014577746391296387,-0.007395520806312561
1761395841821704400,9.584704345703125,0.016038894653320312,0.005310654640197754,-0.0002066493034362793
1761395841841082400,9.604082275390626,0.0028772354125976562,0.013481497764587402,0.008269250392913818
1761395841860460300,9.623460205078125,0.03203773498535156,-0.003030538558959961,-0.013015806674957275
1761395841879838200,9.642838134765626,0.010517120361328125,-0.0030597448348999023,-0.0010666102170944214
1761395841899216000,9.6622158203125,0.005745887756347656,-0.03430509567260742,0.0013078302145004272
1761395841918593800,9.68159375,0.017714500427246094,-0.027141094207763672,-0.002072572708129883
1761395841937971700,9.7009716796875,0.024809837341308594,-0.04549515247344971,-0.010494783520698547
1761395841957349600,9.720349609375,0.012831687927246094,-0.02874612808227539,0.002062380313873291
1761395841976727600,9.7397275390625,0.008876800537109375,-0.003012537956237793,0.02651393413543701
1761395841996105500,9.75910546875,0.009052276611328125,0.009649872779846191,0.014161765575408936
1761395842015483400,9.7784833984375,0.015393257141113281,-0.012481689453125,0.0013610869646072388
1761395842034861000,9.797861083984374,0.025043487548828125,-0.02413928508758545,-0.013499408960342407
1761395842054239000,9.817239013671875,0.016330718994140625,0.0024902820587158203,-0.007904067635536194
1761395842073617000,9.836616943359376,0.02352619171142578,0.014777302742004395,-0.024695247411727905
1761395842092994800,9.855994873046875,0.0055637359619140625,0.015323638916015625,-0.015803605318069458
1761395842112372700,9.875372802734375,-0.004065513610839844,0.006271481513977051,-0.00031623244285583496
1761395842131750700,9.894750732421874,-0.009455680847167969,-0.21340703964233398,0.02413073182106018
1761395842151128600,9.914128662109375,0.03857135772705078,0.24375557899475098,-0.0415334552526474
1761395842170506200,9.93350634765625,0.0035810470581054688,-0.02789485454559326,-0.00906267762184143
1761395842189884200,9.95288427734375,0.019064903259277344,-0.03071129322052002,-0.0046906620264053345
1761395842209262000,9.972261962890625,0.021619796752929688,-0.031967759132385254,-0.009675577282905579
1761395842228640000,9.991639892578124,0.019178390502929688,-0.012305617332458496,0.008275046944618225
1761395842248018000,10.011017822265625,0.02352428436279297,0.0010164976119995117,0.019886493682861328
1761395842267395800,10.030395751953124,-0.0194244384765625,-0.006405472755432129,0.037268802523612976
1761395842286773500,10.0497734375,0.026218414306640625,-0.0016924142837524414,0.005438253283500671
1761395842306151400,10.0691513671875,0.022500991821289062,0.005223751068115234,-0.0033634454011917114
1761395842325529300,10.088529296875,0.021280288696289062,0.0006988048553466797,0.0005507916212081909
1761395842344907300,10.1079072265625,0.009377479553222656,-0.00701451301574707,0.0006636381149291992
1761395842364285200,10.12728515625,0.01662158966064453,-0.0002677440643310547,0.006526172161102295
1761395842383663000,10.1466630859375,0.020479202270507812,-0.018043160438537598,-0.00006416440010070801
1761395842403041000,10.166041015625,0.013146400451660156,-0.013211846351623535,0.010290458798408508
1761395842422418700,10.185418701171875,0.022594451904296875,-0.0014529228210449219,0.007270410656929016
1761395842441796600,10.204796630859375,0.008320808410644531,-0.0032552480697631836,0.001983270049095154
1761395842461174500,10.224174560546874,0.013307571411132812,-0.015624046325683594,-0.008389070630073547
1761395842480552400,10.243552490234375,0.021869659423828125,-0.017157316207885742,-0.007663324475288391
1761395842499930400,10.262930419921876,0.015796661376953125,-0.010622501373291016,0.0030497610569000244
1761395842519308300,10.282308349609375,0.020440101623535156,-0.001019120216369629,-0.0054390281438827515
1761395842538686000,10.30168603515625,0.0061969757080078125,-0.018798112869262695,-0.019650205969810486
1761395842558063900,10.32106396484375,0.012943267822265625,0.013333678245544434,-0.00452876091003418
1761395842577441800,10.34044189453125,0.015625,0.0013824701309204102,-0.01842862367630005
1761395842596819700,10.35981982421875,0.01897144317626953,0.005787849426269531,-0.013761132955551147
1761395842616197600,10.37919775390625,0.009547233581542969,-0.0027747154235839844,0.005351722240447998
1761395842635575600,10.398575439453126,0.015669822692871094,-0.0028433799743652344,-0.006535917520523071
1761395842654953500,10.417953369140625,0.0232086181640625,-0.016560673713684082,-0.01509062945842743
1761395842674331400,10.437331298828125,0.013471603393554688,-0.009267210960388184,-0.00569799542427063
1761395842693709000,10.456708984375,0.021968841552734375,-0.008930444717407227,-0.002932712435722351
1761395842713087000,10.4760869140625,0.013286590576171875,-0.00046813488006591797,0.007441401481628418
1761395842732465000,10.49546484375,0.014334678649902344,0.0018367767333984375,0.018818974494934082
1761395842751842800,10.5148427734375,0.01587390899658203,-0.006952524185180664,0.0075730979442596436
1761395842771220700,10.534220703125,0.03031158447265625,-0.025457382202148438,-0.005078986287117004
1761395842790598700,10.5535986328125,0.012286186218261719,-0.009599089622497559,0.01458650827407837
1761395842809976300,10.572976318359375,0.014453887939453125,-0.004101753234863281,0.010720416903495789
1761395842829354200,10.592354248046876,0.016910552978515625,0.005084037780761719,0.004172384738922119
1761395842848732200,10.611732177734375,0.019544601440429688,-0.02560865879058838,-0.005408793687820435
1761395842868110000,10.631110107421875,0.0204315185546875,-0.0015271902084350586,0.013304531574249268
1761395842887488000,10.650488037109374,0.0038928985595703125,-0.00924837589263916,0.008671760559082031
1761395842906866000,10.669865966796875,0.023108482360839844,-0.006135344505310059,-0.015149354934692383
1761395842926243800,10.689243896484374,0.0038728713989257812,0.004137158393859863,-0.000693202018737793
1761395842945621800,10.708621826171875,0.004100799560546875,-0.01847529411315918,-0.013169825077056885
1761395842964999400,10.72799951171875,0.03854942321777344,0.003775477409362793,-0.032684653997421265
1761395842984377300,10.74737744140625,0.03336620330810547,0.02139151096343994,-0.03032553195953369
1761395843003755300,10.76675537109375,-0.023220062255859375,-0.09158682823181152,0.017981931567192078
1761395843023133200,10.78613330078125,0.04001045227050781,0.06513679027557373,-0.05187342315912247
1761395843042511000,10.805510986328125,0.00650787353515625,0.0388188362121582,0.027891814708709717
1761395843061889000,10.824888916015626,0.014075279235839844,0.010546684265136719,0.011659696698188782
1761395843081266700,10.8442666015625,0.039496421813964844,-0.002328157424926758,-0.005331709980964661
1761395843100644600,10.86364453125,0.016579627990722656,-0.009343743324279785,0.009116396307945251
1761395843120022500,10.8830224609375,0.025015830993652344,-0.04579651355743408,-0.013439461588859558
1761395843139400400,10.902400390625,0.009394645690917969,-0.03800559043884277,-0.005231514573097229
1761395843158778400,10.9217783203125,0.033298492431640625,-0.036366939544677734,-0.018493875861167908
1761395843178156300,10.94115625,-0.0001583099365234375,-0.021370291709899902,0.026276320219039917
1761395843197534200,10.9605341796875,0.016425132751464844,-0.02118074893951416,0.024628788232803345
1761395843216912100,10.979912109375,0.028334617614746094,-0.0005173683166503906,0.008745551109313965
1761395843236289800,10.999289794921875,0.0238494873046875,-0.011411786079406738,0.009509086608886719
1761395843255667700,11.018667724609376,0.02283477783203125,-0.015242457389831543,-0.0022802650928497314
1761395843275045600,11.038045654296875,0.01756763458251953,0.025900959968566895,-0.008183151483535767
1761395843294423600,11.057423583984376,-0.007233619689941406,0.013934850692749023,-0.04676109552383423
1761395843313801500,11.076801513671874,0.03949928283691406,0.021813035011291504,-0.0048347413539886475
1761395843333179400,11.096179443359375,-0.0033502578735351562,-0.015735745429992676,-0.006495445966720581
1761395843352557000,11.11555712890625,-0.051741600036621094,-0.16593432426452637,0.048658356070518494
1761395843371935000,11.13493505859375,0.056122779846191406,0.16157448291778564,-0.04173004627227783
1761395843391313000,11.15431298828125,0.056304931640625,0.0026422739028930664,-0.03265814483165741
1761395843410690800,11.17369091796875,0.02171802520751953,-0.016214966773986816,-0.0040609389543533325
1761395843430068700,11.19306884765625,0.014394760131835938,-0.011525869369506836,0.008585497736930847
1761395843449446700,11.21244677734375,0.02752399444580078,-0.027957677841186523,0.00353202223777771
1761395843468824600,11.231824462890625,0.008238792419433594,-0.008811473846435547,0.026260212063789368
1761395843488202200,11.2512021484375,-0.0014848709106445312,-0.008927702903747559,0.02100430428981781
1761395843507580200,11.270580078125,0.02391338348388672,-0.013645529747009277,-0.006940558552742004
1761395843526958000,11.2899580078125,0.020273208618164062,-0.02171146869659424,-0.005270615220069885
1761395843546336000,11.3093359375,0.02122211456298828,-0.0005401372909545898,-0.005356207489967346
1761395843565714000,11.3287138671875,0.0334014892578125,-0.0007905960083007812,-0.015193581581115723
1761395843585091800,11.348091796875,-0.001705169677734375,0.013183236122131348,0.0025196969509124756
1761395843604469800,11.3674697265625,0.011771202087402344,-0.014781713485717773,-0.0014614015817642212
1761395843623847400,11.386847412109375,0.020166397094726562,-0.0028557777404785156,-0.007855996489524841
1761395843643225300,11.406225341796874,0.015540122985839844,-0.009085774421691895,-0.014941304922103882
1761395843662603300,11.425603271484375,0.0201416015625,-0.006422281265258789,-0.0005290359258651733
1761395843681981200,11.444981201171874,0.0022249221801757812,-0.004277467727661133,0.00028905272483825684
1761395843701359000,11.464359130859375,0.011932373046875,-0.008048653602600098,0.0017450600862503052
1761395843720737000,11.483737060546876,0.0369720458984375,-0.017203807830810547,-0.013642832636833191
1761395843740115000,11.503114990234375,0.016643524169921875,-0.009002089500427246,0.0008758604526519775
1761395843759492900,11.522492919921875,0.018767356872558594,0.002758622169494629,-0.007541447877883911
1761395843778870500,11.54187060546875,0.02258014678955078,-0.01699697971343994,-0.005323499441146851
1761395843798248400,11.56124853515625,0.006659507751464844,-0.002140641212463379,0.00024881958961486816
1761395843817626400,11.58062646484375,0.021244049072265625,-0.01728534698486328,-0.02464902400970459
1761395843837004300,11.60000439453125,0.021062850952148438,-0.008676409721374512,0.007733583450317383
1761395843856382200,11.61938232421875,0.012569427490234375,0.0017272233963012695,0.0014889687299728394
1761395843875760000,11.638760009765624,0.027223587036132812,-0.01268017292022705,-0.009449318051338196
1761395843895137800,11.6581376953125,0.011503219604492188,-0.0006216764450073242,0.013071075081825256
1761395843914515700,11.677515625,0.02837371826171875,-0.021852970123291016,-0.005129173398017883
1761395843933893600,11.6968935546875,0.016389846801757812,-0.010913491249084473,0.0014114975929260254
1761395843953271600,11.716271484375,0.004172325134277344,-0.005351662635803223,0.005325675010681152
1761395843972649500,11.7356494140625,-0.0016698837280273438,-0.02357494831085205,0.008024230599403381
1761395843992027400,11.75502734375,0.029003143310546875,0.011994004249572754,0.01597079634666443
1761395844011405300,11.7744052734375,0.03306388854980469,-0.009994029998779297,-0.017045453190803528
1761395844030783200,11.793783203125,0.007649421691894531,-0.01635003089904785,0.009169965982437134
1761395844050161000,11.813160888671876,0.030325889587402344,0.011807680130004883,-0.004289761185646057
1761395844069538800,11.832538818359374,0.0003509521484375,-0.0010970830917358398,0.016923055052757263
1761395844088916700,11.851916748046875,0.014826774597167969,-0.03231525421142578,0.009999632835388184
1761395844108294700,11.871294677734374,-0.18185043334960938,-0.0935664176940918,0.05485175549983978
1761395844127672600,11.890672607421875,0.16348838806152344,0.03951287269592285,-0.022927910089492798
1761395844147050500,11.910050537109376,0.07123088836669922,0.03611457347869873,-0.03653164207935333
1761395844166428200,11.92942822265625,0.014636993408203125,0.0070912837982177734,-0.004797644913196564
1761395844185806000,11.94880615234375,0.06452369689941406,0.021816253662109375,-0.014172710478305817
1761395844205184000,11.96818408203125,0.05323028564453125,-0.010835528373718262,-0.023527145385742188
1761395844224562000,11.98756201171875,-0.044452667236328125,-0.05529212951660156,0.014048516750335693
