time,seconds_elapsed,z,y,x
1761299728809013500,0.063013427734375,-0.8402557373046875,-0.5269775390625,-0.0626678466796875
1761299728829135600,0.083135498046875,-0.89501953125,-0.5193634033203125,-0.0378570556640625
1761299728849257700,0.1032578125,-0.8563995361328125,-0.4882354736328125,-0.067291259765625
1761299728869378800,0.12337890625,-0.78265380859375,-0.4863739013671875,-0.094818115234375
1761299728889500700,0.143500732421875,-0.74371337890625,-0.509033203125,-0.113372802734375
1761299728909621800,0.163621826171875,-0.716033935546875,-0.4949188232421875,-0.14215087890625
1761299728929744000,0.183743896484375,-0.7203826904296875,-0.4544525146484375,-0.15594482421875
1761299728949864700,0.20386474609375,-0.8251953125,-0.3967437744140625,-0.1674957275390625
1761299728969986600,0.223986572265625,-0.9010009765625,-0.339996337890625,-0.1434173583984375
1761299728990108700,0.244108642578125,-0.8430328369140625,-0.328948974609375,-0.1274261474609375
1761299729010229500,0.2642294921875,-0.707977294921875,-0.34259033203125,-0.15533447265625
1761299729030351600,0.2843515625,-0.586456298828125,-0.404083251953125,-0.1629180908203125
1761299729050472700,0.30447265625,-0.5367889404296875,-0.494110107421875,-0.186920166015625
1761299729070594800,0.3245947265625,-0.5617523193359375,-0.5430450439453125,-0.2529449462890625
1761299729090715600,0.344715576171875,-0.7111663818359375,-0.55108642578125,-0.271392822265625
1761299729110837800,0.364837646484375,-0.905548095703125,-0.52880859375,-0.2201080322265625
1761299729130960000,0.3849599609375,-0.99298095703125,-0.5410308837890625,-0.1211700439453125
1761299729151080700,0.405080810546875,-0.9640350341796875,-0.5803375244140625,-0.0875701904296875
1761299729171202600,0.42520263671875,-0.811248779296875,-0.6070098876953125,-0.0980377197265625
1761299729191323600,0.44532373046875,-0.6727294921875,-0.6597900390625,-0.11181640625
1761299729211445800,0.46544580078125,-0.6139678955078125,-0.7012939453125,-0.1207427978515625
1761299729231566600,0.485566650390625,-0.6573333740234375,-0.720367431640625,-0.1086578369140625
1761299729251688700,0.505688720703125,-0.7754364013671875,-0.71502685546875,-0.109710693359375
1761299729271810800,0.525810791015625,-0.837493896484375,-0.7123260498046875,-0.0634918212890625
1761299729291931600,0.545931640625,-0.8812103271484375,-0.7089996337890625,-0.0142974853515625
1761299729312053800,0.5660537109375,-0.9007720947265625,-0.70965576171875,-0.034393310546875
1761299729332174800,0.5861748046875,-0.963409423828125,-0.700469970703125,-0.07672119140625
1761299729352296700,0.606296630859375,-1.01611328125,-0.6925048828125,-0.052154541015625
1761299729372417800,0.626417724609375,-1.0613861083984375,-0.669647216796875,-0.0294647216796875
1761299729392539600,0.64653955078125,-1.03948974609375,-0.6460723876953125,-0.0006103515625
1761299729412661800,0.666661865234375,-0.9661865234375,-0.64703369140625,0.0399169921875
1761299729432782600,0.686782470703125,-0.8688201904296875,-0.66143798828125,0.066619873046875
1761299729452904700,0.70690478515625,-0.82012939453125,-0.705657958984375,0.0990753173828125
1761299729473025800,0.72702587890625,-0.80279541015625,-0.7673492431640625,0.1397247314453125
1761299729493147600,0.747147705078125,-0.818359375,-0.8087158203125,0.1422576904296875
1761299729513268700,0.767268798828125,-0.8956298828125,-0.827789306640625,0.0848541259765625
1761299729533390800,0.787390869140625,-1.09405517578125,-0.7711181640625,0.033905029296875
1761299729553512400,0.807512451171875,-1.3141632080078125,-0.6617279052734375,0.0749969482421875
1761299729573633800,0.8276337890625,-1.4401092529296875,-0.506866455078125,0.07177734375
1761299729593755600,0.847755615234375,-1.3401336669921875,-0.45843505859375,0.0651092529296875
1761299729613877000,0.867876953125,-1.0880279541015625,-0.50689697265625,0.034423828125
1761299729633999000,0.8879990234375,-0.8911285400390625,-0.5384521484375,-0.0006561279296875
1761299729654120000,0.908119873046875,-0.8071441650390625,-0.544708251953125,-0.0625152587890625
1761299729674242000,0.928241943359375,-0.8404998779296875,-0.54534912109375,-0.1584930419921875
1761299729694364200,0.9483642578125,-0.931304931640625,-0.525848388671875,-0.260406494140625
1761299729714485200,0.9684853515625,-0.9333343505859375,-0.4979095458984375,-0.3188323974609375
1761299729734607000,0.988607177734375,-0.8984832763671875,-0.463134765625,-0.2598724365234375
1761299729754728200,1.008728271484375,-0.8722076416015625,-0.3612823486328125,-0.1292877197265625
1761299729774850000,1.02885009765625,-0.790557861328125,-0.310882568359375,-0.021759033203125
1761299729794972200,1.04897216796875,-0.7190093994140625,-0.30169677734375,0.0267333984375
1761299729815093000,1.069093017578125,-0.6191253662109375,-0.310302734375,0.01593017578125
1761299729835215000,1.089215087890625,-0.53973388671875,-0.3353271484375,0.0120849609375
1761299729855336000,1.1093359375,-0.48919677734375,-0.3475189208984375,0.037841796875
1761299729875458000,1.1294580078125,-0.485107421875,-0.383880615234375,0.0069427490234375
1761299729895579100,1.1495791015625,-0.53228759765625,-0.4001312255859375,-0.0381622314453125
1761299729915701200,1.169701171875,-0.60284423828125,-0.42901611328125,-0.058319091796875
1761299729935822000,1.189822021484375,-0.6978759765625,-0.4381103515625,-0.0820159912109375
1761299729955944000,1.20994384765625,-0.755035400390625,-0.41741943359375,-0.11114501953125
1761299729976066000,1.230066162109375,-0.7545013427734375,-0.4467620849609375,-0.110321044921875
1761299729996187000,1.250186767578125,-0.7472076416015625,-0.4677886962890625,-0.1491241455078125
1761299730016309000,1.27030908203125,-0.8279876708984375,-0.4720001220703125,-0.20367431640625
1761299730036430000,1.29043017578125,-0.919921875,-0.4394989013671875,-0.2028961181640625
1761299730056552200,1.31055224609375,-1.0038299560546875,-0.4328155517578125,-0.1920166015625
1761299730076673000,1.330673095703125,-1.0642852783203125,-0.44000244140625,-0.2405548095703125
1761299730096795100,1.350795166015625,-1.206298828125,-0.3765106201171875,-0.1775054931640625
1761299730116917200,1.370917236328125,-1.356903076171875,-0.25726318359375,-0.060760498046875
1761299730137038000,1.3910380859375,-1.40386962890625,-0.1743621826171875,0.03631591796875
1761299730157160000,1.411159912109375,-1.2133941650390625,-0.1503753662109375,-0.0366363525390625
1761299730177281000,1.431281005859375,-0.922821044921875,-0.2827301025390625,-0.14874267578125
1761299730197403000,1.45140283203125,-0.708465576171875,-0.38482666015625,-0.227691650390625
1761299730217524000,1.47152392578125,-0.585205078125,-0.4762725830078125,-0.2358551025390625
1761299730237646000,1.49164599609375,-0.5991973876953125,-0.549560546875,-0.221038818359375
1761299730257768200,1.511768310546875,-0.7364044189453125,-0.5775604248046875,-0.2574310302734375
1761299730277889000,1.531888916015625,-0.8946990966796875,-0.568634033203125,-0.2316131591796875
1761299730298011100,1.55201123046875,-1.0140838623046875,-0.5238494873046875,-0.1137847900390625
1761299730318132200,1.57213232421875,-1.04425048828125,-0.4412078857421875,-0.003753662109375
1761299730338254000,1.592254150390625,-0.9836578369140625,-0.439300537109375,0.027923583984375
1761299730358376000,1.6123759765625,-0.8719940185546875,-0.469085693359375,-0.0302276611328125
1761299730378497000,1.6324970703125,-0.7710113525390625,-0.4913330078125,-0.045013427734375
1761299730398619100,1.652619140625,-0.712158203125,-0.48651123046875,-0.049652099609375
1761299730418740000,1.672739990234375,-0.6398468017578125,-0.4992523193359375,-0.0704345703125
1761299730438862000,1.692862060546875,-0.584564208984375,-0.5459442138671875,-0.0634918212890625
1761299730458983200,1.712983154296875,-0.6202392578125,-0.5482635498046875,-0.0002593994140625
1761299730479105000,1.73310498046875,-0.7222900390625,-0.5744781494140625,0.015411376953125
1761299730499227100,1.75322705078125,-0.8226776123046875,-0.586669921875,0.046356201171875
1761299730519348200,1.77334814453125,-0.8877716064453125,-0.613922119140625,0.0838775634765625
1761299730539470000,1.793469970703125,-0.9582977294921875,-0.6670379638671875,0.0735321044921875
1761299730559591200,1.813591064453125,-1.05780029296875,-0.665802001953125,0.054656982421875
1761299730579713000,1.833713134765625,-1.2002716064453125,-0.632598876953125,0.0280609130859375
1761299730599833900,1.853833740234375,-1.2897796630859375,-0.5878448486328125,0.05096435546875
1761299730619956200,1.873956298828125,-1.260101318359375,-0.621826171875,0.0966796875
1761299730640078300,1.894078369140625,-1.1211090087890625,-0.690399169921875,0.0724029541015625
1761299730660199400,1.914199462890625,-1.063507080078125,-0.70098876953125,0.0144500732421875
1761299730680321300,1.9343212890625,-1.1891021728515625,-0.57904052734375,-0.0156402587890625
1761299730700442400,1.9544423828125,-1.3185577392578125,-0.4303741455078125,0.056884765625
1761299730720564500,1.974564453125,-1.2059326171875,-0.3086395263671875,0.1521759033203125
1761299730740685300,1.994685302734375,-0.896575927734375,-0.367034912109375,0.17315673828125
1761299730760807200,2.01480712890625,-0.6498260498046875,-0.4752197265625,0.1421966552734375
1761299730780929300,2.03492919921875,-0.5167999267578125,-0.5426177978515625,0.085418701171875
1761299730801050400,2.05505029296875,-0.472076416015625,-0.5294342041015625,0.024932861328125
1761299730821172200,2.075172119140625,-0.601593017578125,-0.501373291015625,-0.056976318359375
1761299730841293300,2.095293212890625,-0.8374481201171875,-0.4400634765625,-0.1841278076171875
1761299730861415400,2.11541552734375,-1.0221099853515625,-0.3616180419921875,-0.3030853271484375
1761299730881536300,2.135536376953125,-1.02178955078125,-0.3107147216796875,-0.222991943359375
1761299730901658400,2.155658447265625,-0.934356689453125,-0.2286376953125,-0.071807861328125
1761299730921780200,2.1757802734375,-0.79443359375,-0.194366455078125,-0.0029754638671875
1761299730941901300,2.1959013671875,-0.6273040771484375,-0.2350311279296875,-0.0172271728515625
1761299730962023200,2.216023193359375,-0.536956787109375,-0.27764892578125,-0.020965576171875
1761299730982144300,2.236144287109375,-0.528656005859375,-0.2859649658203125,-0.0268402099609375
1761299731002266400,2.256266357421875,-0.5408477783203125,-0.319305419921875,0.00836181640625
1761299731022387200,2.27638720703125,-0.5693359375,-0.3737640380859375,0.0032958984375
1761299731042509300,2.29650927734375,-0.63067626953125,-0.4521026611328125,-0.0404205322265625
1761299731062631400,2.31663134765625,-0.7194976806640625,-0.519287109375,-0.0626220703125
1761299731082752300,2.336752197265625,-0.83111572265625,-0.537994384765625,-0.078887939453125
1761299731102874400,2.356874267578125,-0.929229736328125,-0.49713134765625,-0.117279052734375
1761299731122995500,2.376995361328125,-0.9984893798828125,-0.45623779296875,-0.14447021484375
1761299731143117300,2.397117431640625,-1.0294036865234375,-0.4613189697265625,-0.21240234375
1761299731163238400,2.41723828125,-1.0995330810546875,-0.4723358154296875,-0.324066162109375
1761299731183360300,2.4373603515625,-1.1703338623046875,-0.440032958984375,-0.3040313720703125
1761299731203482400,2.457482421875,-1.2516632080078125,-0.4197235107421875,-0.2392730712890625
1761299731223603200,2.477603271484375,-1.28875732421875,-0.4008026123046875,-0.163360595703125
1761299731243725300,2.497725341796875,-1.2778167724609375,-0.3444061279296875,-0.1270599365234375
1761299731263846400,2.517846435546875,-1.263641357421875,-0.2858734130859375,-0.11444091796875
1761299731283968300,2.53796826171875,-1.1784820556640625,-0.2616119384765625,-0.1685333251953125
1761299731304090400,2.55809033203125,-0.9108428955078125,-0.2945098876953125,-0.1788482666015625
1761299731324211500,2.57821142578125,-0.6806182861328125,-0.371978759765625,-0.159576416015625
1761299731344333300,2.598333251953125,-0.62652587890625,-0.470733642578125,-0.23492431640625
1761299731364454100,2.6184541015625,-0.681976318359375,-0.499237060546875,-0.3060302734375
1761299731384576300,2.638576171875,-0.78509521484375,-0.44158935546875,-0.3056793212890625
1761299731404697300,2.658697265625,-0.84832763671875,-0.402435302734375,-0.24176025390625
1761299731424819200,2.678819091796875,-0.83551025390625,-0.3424835205078125,-0.1366119384765625
1761299731444941300,2.69894140625,-0.8150177001953125,-0.267242431640625,0.0203399658203125
1761299731465062400,2.7190625,-0.8252716064453125,-0.269683837890625,0.128143310546875
1761299731485184500,2.7391845703125,-0.7718048095703125,-0.3000640869140625,0.1175079345703125
1761299731505305300,2.759305419921875,-0.69384765625,-0.3591156005859375,0.04925537109375
1761299731525427500,2.779427490234375,-0.6595611572265625,-0.4100494384765625,-0.030548095703125
1761299731545548300,2.79954833984375,-0.6807403564453125,-0.4503936767578125,-0.0858154296875
1761299731565670100,2.819670166015625,-0.7270965576171875,-0.475830078125,-0.1171417236328125
1761299731585792300,2.839792236328125,-0.8063812255859375,-0.4904022216796875,-0.1290283203125
1761299731605913300,2.859913330078125,-0.9128265380859375,-0.5130767822265625,-0.12689208984375
1761299731626034400,2.880034423828125,-0.9732818603515625,-0.5181121826171875,-0.07952880859375
1761299731646155500,2.900155517578125,-1.0116119384765625,-0.5166015625,0.0472564697265625
1761299731666277600,2.920277587890625,-1.007904052734375,-0.5382843017578125,0.12408447265625
1761299731686398500,2.9403984375,-1.007965087890625,-0.588287353515625,0.17608642578125
1761299731706520600,2.9605205078125,-1.079437255859375,-0.563629150390625,0.17718505859375
1761299731726642700,2.980642578125,-1.1374664306640625,-0.57257080078125,0.1429595947265625
1761299731746763800,3.000763671875,-1.1146392822265625,-0.65325927734375,0.1071014404296875
1761299731766885600,3.0208857421875,-1.08575439453125,-0.71026611328125,0.069244384765625
1761299731787006700,3.0410068359375,-1.1524810791015625,-0.6802215576171875,0.035491943359375
1761299731807128600,3.061128662109375,-1.264404296875,-0.54437255859375,-0.026153564453125
1761299731827249400,3.08124951171875,-1.268310546875,-0.4345550537109375,-0.00421142578125
1761299731847371500,3.10137158203125,-1.0830230712890625,-0.4393768310546875,0.08856201171875
1761299731867493600,3.12149365234375,-0.8573150634765625,-0.4882354736328125,0.112030029296875
1761299731887614700,3.14161474609375,-0.7757110595703125,-0.525146484375,0.06365966796875
1761299731907736600,3.161736572265625,-0.810760498046875,-0.526031494140625,-0.004852294921875
1761299731927857700,3.181857666015625,-0.937469482421875,-0.4977874755859375,-0.08782958984375
1761299731947979800,3.201979736328125,-1.07470703125,-0.4820709228515625,-0.1562347412109375
1761299731968101400,3.222101318359375,-1.0746002197265625,-0.4718017578125,-0.2324371337890625
1761299731988222700,3.24222265625,-0.995208740234375,-0.424163818359375,-0.226165771484375
1761299732008344600,3.262344482421875,-0.9017791748046875,-0.3649444580078125,-0.1398162841796875
1761299732028465400,3.28246533203125,-0.821258544921875,-0.3271026611328125,-0.07147216796875
1761299732048587500,3.30258740234375,-0.7313995361328125,-0.295867919921875,-0.0481414794921875
1761299732068708600,3.32270849609375,-0.643707275390625,-0.284393310546875,-0.044525146484375
1761299732088830700,3.342830810546875,-0.57476806640625,-0.297637939453125,-0.0532684326171875
1761299732108952600,3.36295263671875,-0.51959228515625,-0.32135009765625,-0.065277099609375
1761299732129073700,3.38307373046875,-0.5204620361328125,-0.3426361083984375,-0.0998687744140625
1761299732149195800,3.40319580078125,-0.57220458984375,-0.36566162109375,-0.0977783203125
1761299732169316600,3.423316650390625,-0.6531982421875,-0.350433349609375,-0.049774169921875
1761299732189438500,3.4434384765625,-0.786163330078125,-0.32989501953125,-0.0108184814453125
1761299732209559600,3.4635595703125,-0.848846435546875,-0.3274078369140625,-0.0544586181640625
1761299732229681400,3.483681396484375,-0.9012298583984375,-0.3550567626953125,-0.118743896484375
1761299732249803500,3.503803466796875,-0.9205169677734375,-0.362548828125,-0.1268157958984375
1761299732269924600,3.523924560546875,-0.9352569580078125,-0.3649749755859375,-0.1297149658203125
1761299732290046700,3.544046630859375,-1.0219268798828125,-0.4019927978515625,-0.174346923828125
1761299732310167600,3.56416748046875,-1.16326904296875,-0.3761444091796875,-0.18927001953125
1761299732330289700,3.58428955078125,-1.247802734375,-0.3390655517578125,-0.15032958984375
1761299732350411800,3.604411865234375,-1.1894683837890625,-0.3470611572265625,-0.1234893798828125
1761299732370532600,3.62453271484375,-1.1359710693359375,-0.346038818359375,-0.1427764892578125
1761299732390654500,3.644654541015625,-1.1854095458984375,-0.2953338623046875,-0.03814697265625
1761299732410775600,3.664775634765625,-1.094635009765625,-0.2953948974609375,-0.0323638916015625
1761299732430897700,3.684897705078125,-0.9110870361328125,-0.3598785400390625,-0.08099365234375
1761299732451018500,3.7050185546875,-0.7928924560546875,-0.4615936279296875,-0.226318359375
1761299732471140600,3.725140625,-0.7751312255859375,-0.53369140625,-0.339996337890625
1761299732491262700,3.7452626953125,-0.781585693359375,-0.5340423583984375,-0.3253936767578125
1761299732511383600,3.765383544921875,-0.8553009033203125,-0.474578857421875,-0.2003631591796875
1761299732531505700,3.785505615234375,-0.9234771728515625,-0.390533447265625,-0.0714263916015625
1761299732551626800,3.805626708984375,-0.926422119140625,-0.3417205810546875,0.0060882568359375
1761299732571748600,3.82574853515625,-0.8280792236328125,-0.3492889404296875,-0.0022430419921875
1761299732591869700,3.84586962890625,-0.68719482421875,-0.3742523193359375,-0.025238037109375
1761299732611991600,3.865991455078125,-0.5940399169921875,-0.376708984375,-0.046173095703125
1761299732632113400,3.886113525390625,-0.5307159423828125,-0.4122161865234375,-0.04364013671875
1761299732652234500,3.906234375,-0.56439208984375,-0.432464599609375,-0.0178070068359375
1761299732672356600,3.926356689453125,-0.6769256591796875,-0.431640625,-0.010101318359375
1761299732692477400,3.9464775390625,-0.7889251708984375,-0.4774322509765625,-0.03436279296875
1761299732712599600,3.966599609375,-0.838043212890625,-0.50311279296875,-0.039520263671875
1761299732732720600,3.986720703125,-0.8591156005859375,-0.524444580078125,0.021209716796875
1761299732752840400,4.00684033203125,-0.9516448974609375,-0.5547332763671875,0.132293701171875
1761299732772962600,4.026962646484375,-1.03118896484375,-0.5497283935546875,0.13946533203125
1761299732793083600,4.047083740234375,-1.0879974365234375,-0.5953826904296875,0.0621795654296875
1761299732813205500,4.06720556640625,-1.0780181884765625,-0.61981201171875,0.024749755859375
1761299732833327600,4.08732763671875,-1.0396728515625,-0.651824951171875,0.04443359375
1761299732853448700,4.10744873046875,-0.990875244140625,-0.7137298583984375,0.092987060546875
1761299732873570600,4.127570556640625,-0.9887847900390625,-0.777130126953125,0.148468017578125
1761299732893691600,4.147691650390625,-1.052215576171875,-0.7828521728515625,0.05755615234375
1761299732913813500,4.1678134765625,-1.1784820556640625,-0.67510986328125,-0.07012939453125
1761299732933935600,4.187935546875,-1.2760467529296875,-0.517822265625,-0.133087158203125
1761299732954056400,4.208056396484375,-1.1467742919921875,-0.428009033203125,-0.105255126953125
1761299732974178600,4.228178466796875,-1.0019378662109375,-0.366180419921875,0.027862548828125
1761299732994299600,4.248299560546875,-0.8054351806640625,-0.350433349609375,0.085235595703125
1761299733014421500,4.26842138671875,-0.6931304931640625,-0.4398193359375,0.06317138671875
1761299733034542600,4.28854248046875,-0.64501953125,-0.467010498046875,-0.0059661865234375
1761299733054664700,4.308664794921875,-0.70391845703125,-0.489227294921875,-0.06011962890625
1761299733074786600,4.32878662109375,-0.9716339111328125,-0.4612884521484375,-0.07763671875
1761299733094907600,4.34890771484375,-1.257843017578125,-0.3260498046875,-0.138946533203125
1761299733115029500,4.369029541015625,-1.3197021484375,-0.219757080078125,-0.154449462890625
1761299733135150600,4.389150634765625,-1.1275787353515625,-0.2020721435546875,-0.1794586181640625
1761299733155272400,4.4092724609375,-0.7975006103515625,-0.23980712890625,-0.173065185546875
1761299733175393500,4.4293935546875,-0.5608978271484375,-0.2600860595703125,-0.1699981689453125
1761299733195515600,4.449515625,-0.4466552734375,-0.2548675537109375,-0.1800537109375
1761299733215637800,4.4696376953125,-0.429473876953125,-0.2736358642578125,-0.209197998046875
1761299733235758600,4.489758544921875,-0.4624786376953125,-0.3001861572265625,-0.213653564453125
1761299733255880700,4.509880615234375,-0.5404510498046875,-0.3040313720703125,-0.201141357421875
1761299733276001500,4.53000146484375,-0.6065216064453125,-0.2973785400390625,-0.22119140625
1761299733296123400,4.550123291015625,-0.6794586181640625,-0.3105926513671875,-0.2508087158203125
1761299733316245500,4.57024560546875,-0.718353271484375,-0.3409881591796875,-0.3050689697265625
1761299733336366600,4.59036669921875,-0.8001708984375,-0.39154052734375,-0.342376708984375
1761299733356488400,4.610488525390625,-0.9944000244140625,-0.390655517578125,-0.3396148681640625
1761299733376609500,4.630609619140625,-1.1604766845703125,-0.338623046875,-0.341278076171875
1761299733396731600,4.650731689453125,-1.295562744140625,-0.32379150390625,-0.298797607421875
1761299733416852500,4.6708525390625,-1.3711395263671875,-0.32861328125,-0.2589569091796875
1761299733436974600,4.690974609375,-1.3750762939453125,-0.315704345703125,-0.249603271484375
1761299733457096700,4.7110966796875,-1.3347625732421875,-0.33770751953125,-0.2643890380859375
1761299733477217800,4.7312177734375,-1.29547119140625,-0.2976226806640625,-0.32672119140625
1761299733497339400,4.75133935546875,-1.2304229736328125,-0.217437744140625,-0.3252105712890625
1761299733517460500,4.77146044921875,-1.1263427734375,-0.1807861328125,-0.363616943359375
1761299733537582600,4.79158251953125,-1.0081634521484375,-0.208282470703125,-0.401519775390625
1761299733557704400,4.811704345703125,-0.864959716796875,-0.259857177734375,-0.3788299560546875
1761299733577825500,4.831825439453125,-0.704071044921875,-0.285888671875,-0.380767822265625
1761299733597947600,4.85194775390625,-0.62249755859375,-0.393798828125,-0.381561279296875
1761299733618068500,4.872068359375,-0.736968994140625,-0.4144439697265625,-0.3542938232421875
1761299733638190800,4.89219091796875,-0.927001953125,-0.2680511474609375,-0.3643341064453125
1761299733658311700,4.912311767578125,-0.9733428955078125,-0.1887054443359375,-0.3269500732421875
1761299733678433500,4.93243359375,-0.8764801025390625,-0.144744873046875,-0.1352691650390625
1761299733698555600,4.9525556640625,-0.9519805908203125,-0.0449371337890625,0.2073822021484375
1761299733718676700,4.9726767578125,-1.15411376953125,-0.0159454345703125,0.3229217529296875
1761299733738798600,4.992798583984375,-1.1670684814453125,-0.1029815673828125,0.1383056640625
1761299733758919700,5.012919677734375,-0.8194580078125,-0.258087158203125,-0.0101165771484375
1761299733779041800,5.033041748046875,-0.50885009765625,-0.380950927734375,-0.00537109375
1761299733799163600,5.05316357421875,-0.4210357666015625,-0.4415130615234375,0.0782470703125
1761299733819284700,5.07328466796875,-0.611968994140625,-0.4452056884765625,0.1606597900390625
1761299733839406800,5.09340673828125,-0.809051513671875,-0.4708404541015625,0.1026611328125
1761299733859527700,5.113527587890625,-0.914520263671875,-0.553314208984375,0.051788330078125
1761299733879649500,5.1336494140625,-0.8636932373046875,-0.6345672607421875,0.124053955078125
1761299733899770600,5.1537705078125,-0.7740631103515625,-0.700225830078125,0.2244873046875
1761299733919892700,5.173892822265625,-0.7774810791015625,-0.774169921875,0.3089599609375
1761299733940014600,5.1940146484375,-0.88751220703125,-0.826202392578125,0.2593536376953125
1761299733960135700,5.2141357421875,-1.0292816162109375,-0.886474609375,0.1684112548828125
1761299733980257800,5.2342578125,-1.2640380859375,-0.8903961181640625,0.12646484375
1761299734000378600,5.254378662109375,-1.4982452392578125,-0.76019287109375,0.0884857177734375
1761299734020500700,5.274500732421875,-1.5395050048828125,-0.638824462890625,0.130401611328125
1761299734040622600,5.29462255859375,-1.5185089111328125,-0.5108642578125,0.1553497314453125
1761299734060744000,5.314743896484375,-1.328369140625,-0.4332122802734375,0.24700927734375
1761299734080865500,5.334865478515625,-1.089447021484375,-0.4102325439453125,0.27117919921875
1761299734100986600,5.354986572265625,-0.8415374755859375,-0.4285736083984375,0.2167205810546875
1761299734121108700,5.375108642578125,-0.6483917236328125,-0.45379638671875,0.1241912841796875
1761299734141229600,5.3952294921875,-0.529205322265625,-0.4900360107421875,-0.03753662109375
1761299734161351700,5.4153515625,-0.5250396728515625,-0.492889404296875,-0.13507080078125
1761299734181473800,5.435473876953125,-0.652862548828125,-0.467010498046875,-0.1374664306640625
1761299734201594600,5.4555947265625,-0.8291473388671875,-0.3903350830078125,-0.1476593017578125
1761299734221716700,5.475716796875,-0.959564208984375,-0.30328369140625,-0.157196044921875
1761299734241837800,5.495837890625,-0.9710693359375,-0.2321624755859375,-0.13458251953125
1761299734261959700,5.515959716796875,-0.8229522705078125,-0.2250823974609375,-0.0526123046875
1761299734282081500,5.53608154296875,-0.712982177734375,-0.242828369140625,0.0081634521484375
1761299734302202600,5.55620263671875,-0.6679840087890625,-0.2443084716796875,-0.0121002197265625
1761299734322324700,5.57632470703125,-0.64117431640625,-0.2516326904296875,-0.0256805419921875
1761299734342445600,5.596445556640625,-0.6602783203125,-0.279327392578125,-0.0565948486328125
1761299734362567700,5.616567626953125,-0.6891326904296875,-0.299713134765625,-0.04620361328125
1761299734382688800,5.636688720703125,-0.704437255859375,-0.3031158447265625,-0.0643310546875
1761299734402810600,5.656810546875,-0.7592010498046875,-0.312530517578125,-0.1203460693359375
1761299734422932700,5.6769326171875,-0.8437042236328125,-0.313812255859375,-0.1378021240234375
1761299734443053800,5.6970537109375,-0.92559814453125,-0.324493408203125,-0.135955810546875
1761299734463175700,5.71717578125,-0.9320831298828125,-0.3378143310546875,-0.14007568359375
1761299734483296500,5.737296630859375,-0.8572540283203125,-0.3362274169921875,-0.1136627197265625
1761299734503418600,5.757418701171875,-0.7369384765625,-0.3516998291015625,-0.1329193115234375
1761299734523540700,5.777540771484375,-0.730377197265625,-0.284423828125,-0.0634765625
1761299734543661600,5.79766162109375,-0.8692626953125,-0.1726226806640625,-0.04351806640625
1761299734563783700,5.81778369140625,-1.0464630126953125,-0.1636199951171875,-0.1417083740234375
1761299734583904800,5.83790478515625,-1.1024169921875,-0.24908447265625,-0.2984771728515625
1761299734604027000,5.85802685546875,-1.357574462890625,-0.2758636474609375,-0.393524169921875
1761299734624148200,5.878148193359375,-1.7369842529296875,-0.1884765625,-0.363922119140625
1761299734644270000,5.89827001953125,-1.7266082763671875,-0.3029937744140625,-0.3654327392578125
1761299734664392000,5.918391845703125,-1.2764129638671875,-0.4628448486328125,-0.4138031005859375
1761299734684513000,5.938512939453125,-0.89141845703125,-0.6445770263671875,-0.5234832763671875
1761299734704635100,5.95863525390625,-0.750732421875,-0.7542266845703125,-0.6454620361328125
1761299734724756000,5.978755859375,-0.8184967041015625,-0.662445068359375,-0.6233062744140625
1761299734744878000,5.998878173828125,-0.96435546875,-0.5348968505859375,-0.40875244140625
1761299734765000200,6.019000244140625,-1.034088134765625,-0.3789215087890625,-0.1730804443359375
1761299734785121300,6.039121337890625,-0.97039794921875,-0.3292999267578125,-0.0162200927734375
1761299734805243100,6.0592431640625,-0.8160858154296875,-0.3091888427734375,0.0424041748046875
1761299734825364200,6.0793642578125,-0.62603759765625,-0.310516357421875,0.051422119140625
1761299734845486000,6.099486083984375,-0.5196990966796875,-0.3295135498046875,0.016571044921875
1761299734865608200,6.119608154296875,-0.479461669921875,-0.337493896484375,-0.01239013671875
1761299734885729000,6.13972900390625,-0.5009307861328125,-0.3354949951171875,0.011627197265625
1761299734905851100,6.15985107421875,-0.552001953125,-0.3632049560546875,0.0262603759765625
1761299734925972200,6.17997216796875,-0.631988525390625,-0.416534423828125,0.040863037109375
1761299734946094000,6.200093994140625,-0.712005615234375,-0.4752044677734375,0.005157470703125
1761299734966215200,6.220215087890625,-0.7698516845703125,-0.5434417724609375,-0.0319366455078125
1761299734986337300,6.240337158203125,-0.86297607421875,-0.5858306884765625,0.0039215087890625
1761299735006459000,6.260458984375,-0.999053955078125,-0.6070404052734375,0.0548248291015625
1761299735026580000,6.280580078125,-1.1280517578125,-0.63848876953125,0.045684814453125
1761299735046702000,6.3007021484375,-1.1964263916015625,-0.65704345703125,0.0283355712890625
1761299735066823000,6.320822998046875,-1.2103118896484375,-0.6746826171875,-0.00433349609375
1761299735086945000,6.340945068359375,-1.2340240478515625,-0.72900390625,-0.0275115966796875
1761299735107067100,6.361067138671875,-1.243621826171875,-0.7379608154296875,-0.0391693115234375
1761299735127188200,6.381188232421875,-1.3715362548828125,-0.634613037109375,-0.067230224609375
1761299735147310000,6.40131005859375,-1.480255126953125,-0.4945068359375,-0.091888427734375
1761299735167431200,6.42143115234375,-1.3348388671875,-0.389495849609375,-0.05517578125
1761299735187553300,6.44155322265625,-1.000762939453125,-0.378570556640625,-0.0348663330078125
1761299735207675100,6.461675048828125,-0.7154388427734375,-0.382415771484375,-0.0179290771484375
1761299735227796000,6.4817958984375,-0.58843994140625,-0.395263671875,-0.0031585693359375
1761299735247918000,6.50191796875,-0.583892822265625,-0.3755035400390625,0.0132904052734375
1761299735268039200,6.5220390625,-0.5507965087890625,-0.3769683837890625,0.019439697265625
1761299735288161000,6.5421611328125,-0.51177978515625,-0.3919830322265625,-0.0120086669921875
1761299735308283100,6.562283203125,-0.5894927978515625,-0.4001312255859375,-0.085693359375
1761299735328404200,6.582404296875,-0.7129058837890625,-0.3875274658203125,-0.12725830078125
1761299735348526000,6.602526123046875,-0.8800201416015625,-0.3565826416015625,-0.0816192626953125
1761299735368647200,6.622647216796875,-0.8782501220703125,-0.31787109375,-0.0135345458984375
1761299735388769000,6.64276904296875,-0.7609710693359375,-0.3616180419921875,-0.0123443603515625
1761299735408890000,6.66289013671875,-0.65423583984375,-0.4073028564453125,-0.078887939453125
1761299735429012000,6.683011962890625,-0.6166839599609375,-0.4248809814453125,-0.1229400634765625
1761299735449134000,6.703134033203125,-0.64874267578125,-0.404052734375,-0.0833587646484375
1761299735469255200,6.723255126953125,-0.740081787109375,-0.3580169677734375,-0.0455474853515625
1761299735489377000,6.743376953125,-0.7916107177734375,-0.37115478515625,-0.0922088623046875
1761299735509498000,6.763498046875,-0.7805633544921875,-0.409912109375,-0.1484832763671875
1761299735529620200,6.7836201171875,-0.7341766357421875,-0.4399566650390625,-0.152191162109375
1761299735549742300,6.803742431640625,-0.7375946044921875,-0.42059326171875,-0.09808349609375
1761299735569863200,6.82386328125,-0.7848052978515625,-0.3758697509765625,-0.0735626220703125
1761299735589985000,6.843985107421875,-0.831817626953125,-0.3535308837890625,-0.1412811279296875
1761299735610106000,6.864106201171875,-0.9463958740234375,-0.3247833251953125,-0.275482177734375
1761299735630227700,6.884227783203125,-1.0798797607421875,-0.3338165283203125,-0.4264678955078125
1761299735650349800,6.904349853515625,-1.154022216796875,-0.360687255859375,-0.4910430908203125
1761299735670470700,6.924470703125,-1.2478485107421875,-0.3706817626953125,-0.5936126708984375
1761299735690592800,6.9445927734375,-1.28656005859375,-0.3430023193359375,-0.781707763671875
1761299735710713900,6.9647138671875,-1.317626953125,-0.3285369873046875,-0.737518310546875
1761299735730836000,6.9848359375,-1.277984619140625,-0.264862060546875,-0.5351104736328125
1761299735750957800,7.004957763671875,-1.21185302734375,-0.18756103515625,-0.3687896728515625
1761299735771079000,7.025078857421875,-1.03924560546875,-0.2125701904296875,-0.32452392578125
1761299735791200800,7.04520068359375,-0.7953338623046875,-0.2855987548828125,-0.32073974609375
1761299735811321900,7.06532177734375,-0.5953216552734375,-0.3548583984375,-0.2977142333984375
1761299735831443700,7.085443603515625,-0.5448150634765625,-0.3882904052734375,-0.2807464599609375
1761299735851565800,7.10556591796875,-0.70263671875,-0.4008941650390625,-0.349609375
1761299735871687000,7.12568701171875,-0.966827392578125,-0.3836212158203125,-0.437225341796875
1761299735891808800,7.145808837890625,-1.1302490234375,-0.32452392578125,-0.426544189453125
1761299735911929900,7.165929931640625,-0.9784698486328125,-0.30682373046875,-0.2756500244140625
1761299735932052000,7.186052001953125,-0.740142822265625,-0.324493408203125,-0.138031005859375
1761299735952172800,7.2061728515625,-0.565704345703125,-0.3662567138671875,-0.069580078125
1761299735972295000,7.226294921875,-0.509490966796875,-0.3937530517578125,-0.0772705078125
1761299735992416800,7.246416748046875,-0.5330810546875,-0.4442138671875,-0.082122802734375
1761299736012537600,7.26653759765625,-0.66900634765625,-0.4872894287109375,-0.128570556640625
1761299736032659700,7.28665966796875,-0.802947998046875,-0.466156005859375,-0.1680908203125
1761299736052780800,7.30678076171875,-0.8321990966796875,-0.4536895751953125,-0.1261749267578125
1761299736072903000,7.32690283203125,-0.7872772216796875,-0.46295166015625,0.0015716552734375
1761299736093024800,7.347024658203125,-0.81005859375,-0.5412445068359375,0.0682220458984375
1761299736113145900,7.367145751953125,-0.9105987548828125,-0.51422119140625,0.0733642578125
1761299736133268000,7.38726806640625,-0.8922882080078125,-0.508056640625,0.0812530517578125
1761299736153388800,7.407388916015625,-0.840728759765625,-0.585693359375,0.09466552734375
1761299736173511000,7.427510986328125,-1.06671142578125,-0.52935791015625,0.01922607421875
1761299736193632800,7.4476328125,-1.242279052734375,-0.4848785400390625,-0.072052001953125
