time,seconds_elapsed,z,y,x
1761299728809013500,0.063013427734375,0.2146577090024948,-0.007127151824533939,-0.07969722896814346
1761299728829135600,0.083135498046875,0.19872374832630157,-0.10063100606203079,0.04808443784713745
1761299728849257700,0.1032578125,0.2343752235174179,-0.18530301749706268,0.16319425404071808
1761299728869378800,0.12337890625,0.2542911469936371,-0.2159741073846817,0.12199302017688751
1761299728889500700,0.143500732421875,0.21699009835720062,-0.16850805282592773,0.0328357107937336
1761299728909621800,0.163621826171875,0.1505596786737442,-0.09139809012413025,-0.142243430018425
1761299728929744000,0.183743896484375,0.12621758878231049,-0.12260687351226807,-0.3160809874534607
1761299728949864700,0.20386474609375,0.15146754682064056,-0.07901918143033981,-0.22853463888168335
1761299728969986600,0.223986572265625,0.253961980342865,-0.034683410078287125,0.14944647252559662
1761299728990108700,0.244108642578125,0.41118648648262024,-0.11435800045728683,0.48691824078559875
1761299729010229500,0.2642294921875,0.46363770961761475,-0.3755999803543091,0.5346077680587769
1761299729030351600,0.2843515625,0.37485963106155396,-0.7743364572525024,0.2524373233318329
1761299729050472700,0.30447265625,0.22016805410385132,-0.8442206978797913,-0.35063526034355164
1761299729070594800,0.3245947265625,-0.017100689932703972,-0.412139356136322,-1.1573232412338257
1761299729090715600,0.344715576171875,-0.26334109902381897,0.09462317824363708,-1.617041826248169
1761299729110837800,0.364837646484375,-0.39286553859710693,0.26154160499572754,-1.4409302473068237
1761299729130960000,0.3849599609375,-0.30756500363349915,0.03663790598511696,-0.8329513072967529
1761299729151080700,0.405080810546875,-0.15893399715423584,-0.15123958885669708,-0.204875648021698
1761299729171202600,0.42520263671875,-0.07986234128475189,-0.1177721694111824,0.06429456919431686
1761299729191323600,0.44532373046875,-0.1035439670085907,0.016264989972114563,-0.03147270530462265
1761299729211445800,0.46544580078125,-0.21793232858181,0.18879733979701996,-0.29634830355644226
1761299729231566600,0.485566650390625,-0.34826797246932983,0.1504366397857666,-0.4327402412891388
1761299729251688700,0.505688720703125,-0.4980470836162567,-0.06903526186943054,-0.3093421459197998
1761299729271810800,0.525810791015625,-0.5707036852836609,-0.2932417392730713,-0.15618480741977692
1761299729291931600,0.545931640625,-0.5216333866119385,-0.36105966567993164,-0.10513627529144287
1761299729312053800,0.5660537109375,-0.4843429923057556,-0.33189085125923157,-0.1918988674879074
1761299729332174800,0.5861748046875,-0.5234041213989258,-0.24120409786701202,-0.21454718708992004
1761299729352296700,0.606296630859375,-0.5764963626861572,-0.19856210052967072,-0.11200696229934692
1761299729372417800,0.626417724609375,-0.5805912017822266,-0.12457069009542465,0.09737182408571243
1761299729392539600,0.64653955078125,-0.5482529997825623,0.05583903193473816,0.2798425555229187
1761299729412661800,0.666661865234375,-0.47195127606391907,0.3812176585197449,0.33385732769966125
1761299729432782600,0.686782470703125,-0.3963867723941803,0.6441185474395752,0.27261021733283997
1761299729452904700,0.70690478515625,-0.31405192613601685,0.62650465965271,0.20504529774188995
1761299729473025800,0.72702587890625,-0.248044952750206,0.37194639444351196,0.13709819316864014
1761299729493147600,0.747147705078125,-0.19244028627872467,0.20870395004749298,-0.10138867050409317
1761299729513268700,0.767268798828125,-0.17780354619026184,0.14682352542877197,-0.5056000351905823
1761299729533390800,0.787390869140625,-0.16683532297611237,0.06106548383831978,-0.6700736880302429
1761299729553512400,0.807512451171875,0.047623444348573685,0.043831102550029755,-0.35142195224761963
1761299729573633800,0.8276337890625,0.385577529668808,0.3015928566455841,0.3928378224372864
1761299729593755600,0.847755615234375,0.723787248134613,0.5889657735824585,1.0704456567764282
1761299729613877000,0.867876953125,0.9255379438400269,0.5420374274253845,1.2854084968566895
1761299729633999000,0.8879990234375,1.0283085107803345,0.24685639142990112,1.0798883438110352
1761299729654120000,0.908119873046875,1.0400872230529785,-0.1041218712925911,0.6541320085525513
1761299729674242000,0.928241943359375,0.9281595945358276,-0.33240431547164917,0.2252216637134552
1761299729694364200,0.9483642578125,0.6441049575805664,-0.3038938343524933,-0.03550899028778076
1761299729714485200,0.9684853515625,0.21282091736793518,-0.006677876226603985,-0.21824312210083008
1761299729734607000,0.988607177734375,-0.1368153691291809,0.4416479766368866,-0.3546510338783264
1761299729754728200,1.008728271484375,-0.15368810296058655,0.9172118306159973,-0.3030956983566284
1761299729774850000,1.02885009765625,0.055335961282253265,1.1273767948150635,-0.08827953040599823
1761299729794972200,1.04897216796875,0.301296204328537,0.9720588326454163,0.2827395498752594
1761299729815093000,1.069093017578125,0.4427787661552429,0.6311622262001038,0.6008458733558655
1761299729835215000,1.089215087890625,0.5284009575843811,0.3363599181175232,0.7384426593780518
1761299729855336000,1.1093359375,0.6578263640403748,0.07351922243833542,0.7292086482048035
1761299729875458000,1.1294580078125,0.7645933032035828,-0.08784623444080353,0.5962790846824646
1761299729895579100,1.1495791015625,0.780056893825531,-0.20713454484939575,0.4543387293815613
1761299729915701200,1.169701171875,0.7358918786048889,-0.4009905755519867,0.3918801546096802
1761299729935822000,1.189822021484375,0.6491622924804688,-0.5008620619773865,0.4133976995944977
1761299729955944000,1.20994384765625,0.535041332244873,-0.53370201587677,0.4145023822784424
1761299729976066000,1.230066162109375,0.4097161591053009,-0.6197165250778198,0.2312055230140686
1761299729996187000,1.250186767578125,0.18256688117980957,-0.6697613000869751,-0.1684499979019165
1761299730016309000,1.27030908203125,-0.1193290576338768,-0.6701242923736572,-0.567335844039917
1761299730036430000,1.29043017578125,-0.41508400440216064,-0.6535288095474243,-0.8639802932739258
1761299730056552200,1.31055224609375,-0.6612117886543274,-0.43888893723487854,-1.1712422370910645
1761299730076673000,1.330673095703125,-1.035880446434021,-0.03519713506102562,-1.510477066040039
1761299730096795100,1.350795166015625,-1.2125921249389648,0.28020262718200684,-1.5679824352264404
1761299730116917200,1.370917236328125,-0.9792645573616028,0.4419659674167633,-1.1356672048568726
1761299730137038000,1.3910380859375,-0.41188663244247437,0.5465123653411865,-0.3134700357913971
1761299730157160000,1.411159912109375,0.08278489112854004,0.5470553636550903,0.40539756417274475
1761299730177281000,1.431281005859375,0.2129138708114624,0.3873019218444824,0.6421368718147278
1761299730197403000,1.45140283203125,0.049728672951459885,0.17374835908412933,0.42546847462654114
1761299730217524000,1.47152392578125,-0.2363603413105011,-0.06592229008674622,-0.09401224553585052
1761299730237646000,1.49164599609375,-0.47537559270858765,-0.2651078402996063,-0.7002531886100769
1761299730257768200,1.511768310546875,-0.8294289708137512,-0.27823641896247864,-1.0900965929031372
1761299730277889000,1.531888916015625,-1.159705400466919,-0.12084759026765823,-1.1664866209030151
1761299730298011100,1.55201123046875,-1.2350555658340454,0.07336848974227905,-0.9766003489494324
1761299730318132200,1.57213232421875,-0.998458743095398,0.2855028510093689,-0.6108548641204834
1761299730338254000,1.592254150390625,-0.6751763224601746,0.3292945325374603,-0.19871363043785095
1761299730358376000,1.6123759765625,-0.4952821731567383,0.18561168015003204,0.16004133224487305
1761299730378497000,1.6324970703125,-0.41260167956352234,-0.05624942481517792,0.45863866806030273
1761299730398619100,1.652619140625,-0.36955833435058594,-0.21493972837924957,0.6898724436759949
1761299730418740000,1.672739990234375,-0.4154784381389618,-0.28762513399124146,0.7636505365371704
1761299730438862000,1.692862060546875,-0.4952976107597351,-0.2618904709815979,0.5644069314002991
1761299730458983200,1.712983154296875,-0.4527752101421356,-0.13122539222240448,0.2982165217399597
1761299730479105000,1.73310498046875,-0.4311985373497009,-0.1590876579284668,0.2152729034423828
1761299730499227100,1.75322705078125,-0.3874973952770233,-0.3420737087726593,0.2837725877761841
1761299730519348200,1.77334814453125,-0.30994054675102234,-0.5143408179283142,0.3180229663848877
1761299730539470000,1.793469970703125,-0.2937149703502655,-0.6277880072593689,0.1780911684036255
1761299730559591200,1.813591064453125,-0.27882951498031616,-0.5860621333122253,-0.03918095678091049
1761299730579713000,1.833713134765625,-0.2949698567390442,-0.37428757548332214,-0.07066138833761215
1761299730599833900,1.853833740234375,-0.2579745650291443,-0.08450023829936981,0.1261504739522934
1761299730619956200,1.873956298828125,-0.1776679903268814,0.005833920557051897,0.33630505204200745
1761299730640078300,1.894078369140625,-0.20817290246486664,-0.05721268802881241,0.16333912312984467
1761299730660199400,1.914199462890625,-0.31454142928123474,0.023494673892855644,-0.33704033493995667
1761299730680321300,1.9343212890625,-0.33242616057395935,0.3590007722377777,-0.47049346566200256
1761299730700442400,1.9544423828125,-0.11796525120735168,0.6916237473487854,0.09398508816957474
1761299730720564500,1.974564453125,0.3373303711414337,0.8329784870147705,0.8582569360733032
1761299730740685300,1.994685302734375,0.7401766180992126,0.6468392014503479,1.1850694417953491
1761299730760807200,2.01480712890625,0.9653873443603516,0.3532392978668213,1.0089210271835327
1761299730780929300,2.03492919921875,1.0001674890518188,0.09232646971940994,0.5219329595565796
1761299730801050400,2.05505029296875,0.9962909817695618,-0.16198037564754486,-0.1699024885892868
1761299730821172200,2.075172119140625,0.9601702094078064,-0.458315908908844,-0.7617708444595337
1761299730841293300,2.095293212890625,0.7388165593147278,-0.6559656262397766,-0.8936721682548523
1761299730861415400,2.11541552734375,0.33894237875938416,-0.4618634879589081,-0.5694102048873901
1761299730881536300,2.135536376953125,0.08197316527366638,-0.07872144132852554,-0.1315649449825287
1761299730901658400,2.155658447265625,0.19859164953231812,0.4284621477127075,0.23143082857131958
1761299730921780200,2.1757802734375,0.4337274730205536,0.7268895506858826,0.5352922081947327
1761299730941901300,2.1959013671875,0.5391470789909363,0.6797188520431519,0.656843900680542
1761299730962023200,2.216023193359375,0.5394517779350281,0.48221057653427124,0.6662027835845947
1761299730982144300,2.236144287109375,0.501578152179718,0.3097994029521942,0.6543972492218018
1761299731002266400,2.256266357421875,0.4840817153453827,0.16286428272724152,0.5567277073860168
1761299731022387200,2.27638720703125,0.42721524834632874,0.1291518658399582,0.33473724126815796
1761299731042509300,2.29650927734375,0.2827051877975464,0.03031929023563862,0.07571526616811752
1761299731062631400,2.31663134765625,0.08049963414669037,-0.20318028330802917,-0.16261501610279083
1761299731082752300,2.336752197265625,-0.15012185275554657,-0.3091368079185486,-0.43113115429878235
1761299731102874400,2.356874267578125,-0.2995307743549347,-0.1754583716392517,-0.7389699220657349
1761299731122995500,2.376995361328125,-0.2700178921222687,-0.23728366196155548,-0.9391690492630005
1761299731143117300,2.397117431640625,-0.25305888056755066,-0.6321630477905273,-0.9814329147338867
1761299731163238400,2.41723828125,-0.4458557665348053,-0.9694180488586426,-1.047672152519226
1761299731183360300,2.4373603515625,-0.5333616733551025,-0.8945164084434509,-1.204203724861145
1761299731203482400,2.457482421875,-0.46055588126182556,-0.5231572389602661,-1.323182225227356
1761299731223603200,2.477603271484375,-0.28814443945884705,-0.1197676807641983,-1.2620184421539307
1761299731243725300,2.497725341796875,0.0035744947381317616,0.01347559504210949,-0.8859833478927612
1761299731263846400,2.517846435546875,0.32056576013565063,-0.20090967416763306,-0.124365895986557
1761299731283968300,2.53796826171875,0.37633848190307617,-0.44299793243408203,0.7460808157920837
1761299731304090400,2.55809033203125,0.2695385217666626,-0.4746392071247101,0.9903651475906372
1761299731324211500,2.57821142578125,0.2301892638206482,-0.399513840675354,0.567635178565979
1761299731344333300,2.598333251953125,-0.03506184741854668,-0.3781222701072693,-0.013273727148771286
1761299731364454100,2.6184541015625,-0.5623754858970642,-0.4318635165691376,-0.447594553232193
1761299731384576300,2.638576171875,-1.0804446935653687,-0.3693636655807495,-0.6609084010124207
1761299731404697300,2.658697265625,-1.4820197820663452,-0.11380139738321304,-0.6865341663360596
1761299731424819200,2.678819091796875,-1.607404112815857,0.25209295749664307,-0.6409615874290466
1761299731444941300,2.69894140625,-1.4081248044967651,0.48900139331817627,-0.47198083996772766
1761299731465062400,2.7190625,-1.0116983652114868,0.46760979294776917,-0.126551553606987
1761299731485184500,2.7391845703125,-0.6661242246627808,0.16915227472782135,0.23361381888389587
1761299731505305300,2.759305419921875,-0.4747196435928345,-0.15444736182689667,0.4250034987926483
1761299731525427500,2.779427490234375,-0.43443506956100464,-0.22747203707695007,0.3876768946647644
1761299731545548300,2.79954833984375,-0.497885137796402,-0.16223125159740448,0.24332930147647858
1761299731565670100,2.819670166015625,-0.5821145176887512,-0.048476722091436386,0.036737773567438126
1761299731585792300,2.839792236328125,-0.675370454788208,0.06946509331464767,-0.11593033373355865
1761299731605913300,2.859913330078125,-0.77018803358078,0.24733948707580566,-0.13097186386585236
1761299731626034400,2.880034423828125,-0.8424856662750244,0.4049813151359558,-0.06764322519302368
1761299731646155500,2.900155517578125,-0.6955558657646179,0.46019983291625977,0.05325576290488243
1761299731666277600,2.920277587890625,-0.5169270038604736,0.3055785596370697,0.1444202959537506
1761299731686398500,2.9403984375,-0.3428545594215393,0.12848900258541107,0.10378365218639374
1761299731706520600,2.9605205078125,-0.10150132328271866,0.08222243189811707,0.06486687809228897
1761299731726642700,2.980642578125,0.1401861310005188,0.1339985430240631,0.1475929170846939
1761299731746763800,3.000763671875,0.2687249481678009,-0.009444101713597775,0.19732718169689178
1761299731766885600,3.0208857421875,0.2722166180610657,-0.2400434911251068,0.06708582490682602
1761299731787006700,3.0410068359375,0.26933586597442627,-0.2796441614627838,-0.11690877377986908
1761299731807128600,3.061128662109375,0.2935176193714142,0.22312016785144806,-0.01943894475698471
1761299731827249400,3.08124951171875,0.38379666209220886,0.6743528842926025,0.43843966722488403
1761299731847371500,3.10137158203125,0.6486679911613464,0.5197028517723083,0.8265075087547302
1761299731867493600,3.12149365234375,0.9439920783042908,0.027657194063067436,0.73117595911026
1761299731887614700,3.14161474609375,1.0767980813980103,-0.39247483015060425,0.34877902269363403
1761299731907736600,3.161736572265625,1.1159989833831787,-0.5207046866416931,-0.13411173224449158
1761299731927857700,3.181857666015625,1.0690202713012695,-0.4620257019996643,-0.3676704168319702
1761299731947979800,3.201979736328125,0.9219037890434265,-0.3587765395641327,-0.1950366050004959
1761299731968101400,3.222101318359375,0.6302050948143005,-0.21358738839626312,0.10288456827402115
1761299731988222700,3.24222265625,0.40885114669799805,0.24564145505428314,0.19904865324497223
1761299732008344600,3.262344482421875,0.3924969434738159,0.8130683898925781,0.18860585987567902
1761299732028465400,3.28246533203125,0.48233017325401306,1.1269499063491821,0.2841595411300659
1761299732048587500,3.30258740234375,0.5814916491508484,1.0569393634796143,0.517275333404541
1761299732068708600,3.32270849609375,0.6594365239143372,0.7222660779953003,0.7679325938224792
1761299732088830700,3.342830810546875,0.6700379848480225,0.3673306107521057,0.9094511270523071
1761299732108952600,3.36295263671875,0.6168234944343567,0.15135329961776733,0.8281538486480713
1761299732129073700,3.38307373046875,0.47723448276519775,0.14169588685035706,0.6032888293266296
1761299732149195800,3.40319580078125,0.2885705530643463,0.14719317853450775,0.3899703919887543
1761299732169316600,3.423316650390625,0.21293437480926514,0.0642346441745758,0.235865518450737
1761299732189438500,3.4434384765625,0.23389291763305664,-0.07688279449939728,0.19251005351543427
1761299732209559600,3.4635595703125,0.17362745106220245,-0.28998228907585144,0.09372995048761368
1761299732229681400,3.483681396484375,-0.01787407137453556,-0.38582733273506165,-0.08274760842323303
1761299732249803500,3.503803466796875,-0.17575904726982117,-0.33900123834609985,-0.41144320368766785
1761299732269924600,3.523924560546875,-0.33036965131759644,-0.29621621966362,-0.8331627249717712
1761299732290046700,3.544046630859375,-0.5503097176551819,-0.33162346482276917,-1.1879889965057373
1761299732310167600,3.56416748046875,-0.8058842420578003,-0.24812671542167664,-1.2453234195709229
1761299732330289700,3.58428955078125,-0.9370278716087341,0.09414327889680862,-1.0736027956008911
1761299732350411800,3.604411865234375,-0.9475066065788269,0.44541528820991516,-0.9438205361366272
1761299732370532600,3.62453271484375,-0.9106583595275879,0.665957510471344,-0.8006540536880493
1761299732390654500,3.644654541015625,-0.5516727566719055,0.6400404572486877,-0.27314338088035583
1761299732410775600,3.664775634765625,-0.19976158440113068,0.3047977089881897,0.3231399655342102
1761299732430897700,3.684897705078125,0.0704379454255104,-0.17329321801662445,0.5384719967842102
1761299732451018500,3.7050185546875,-0.06265352666378021,-0.5061862468719482,0.38840365409851074
1761299732471140600,3.725140625,-0.5278491973876953,-0.5459246039390564,0.030113160610198975
1761299732491262700,3.7452626953125,-0.984555184841156,-0.24176788330078125,-0.4670635759830475
1761299732511383600,3.765383544921875,-1.2059730291366577,0.16245070099830627,-0.7341128587722778
1761299732531505700,3.785505615234375,-1.1260426044464111,0.32785189151763916,-0.5834892988204956
1761299732551626800,3.805626708984375,-0.8393498063087463,0.2983696460723877,-0.14686347544193268
1761299732571748600,3.82574853515625,-0.5934321880340576,0.1005559042096138,0.31567513942718506
1761299732591869700,3.84586962890625,-0.4353381395339966,-0.11438729614019394,0.5481616258621216
1761299732611991600,3.865991455078125,-0.34907305240631104,-0.19144532084465027,0.5698086023330688
1761299732632113400,3.886113525390625,-0.3402433395385742,-0.22934956848621368,0.42498618364334106
1761299732652234500,3.906234375,-0.335438996553421,-0.3135715126991272,0.2658681571483612
1761299732672356600,3.926356689453125,-0.28456541895866394,-0.41458067297935486,0.22010627388954163
1761299732692477400,3.9464775390625,-0.3110542893409729,-0.40323054790496826,0.2574155628681183
1761299732712599600,3.966599609375,-0.36386823654174805,-0.2635599970817566,0.2373366504907608
1761299732732720600,3.986720703125,-0.32198095321655273,-0.19404324889183044,0.13173086941242218
1761299732752840400,4.00684033203125,-0.11768748611211777,-0.31969597935676575,0.10218655318021774
1761299732772962600,4.026962646484375,0.1217125877737999,-0.4405587315559387,0.14527010917663574
1761299732793083600,4.047083740234375,0.15402472019195557,-0.35092926025390625,0.20119595527648926
1761299732813205500,4.06720556640625,0.09091685712337494,-0.08328051120042801,0.1832292079925537
1761299732833327600,4.08732763671875,0.03135153278708458,0.1974068135023117,0.08168900012969971
1761299732853448700,4.10744873046875,0.014193316921591759,0.07419274002313614,-0.061462029814720154
1761299732873570600,4.127570556640625,0.05231140926480293,-0.3433307409286499,-0.25335022807121277
1761299732893691600,4.147691650390625,0.007203584536910057,-0.5268315672874451,-0.5646860003471375
1761299732913813500,4.1678134765625,-0.13044695556163788,-0.14296141266822815,-0.6789979338645935
1761299732933935600,4.187935546875,-0.2377435863018036,0.5900891423225403,-0.30158939957618713
1761299732954056400,4.208056396484375,-0.23466071486473083,0.9774608016014099,0.21346594393253326
1761299732974178600,4.228178466796875,0.08739935606718063,1.0757794380187988,0.5617932677268982
1761299732994299600,4.248299560546875,0.5354077816009521,0.8602657318115234,0.6310282945632935
1761299733014421500,4.26842138671875,0.8259407877922058,0.3450188934803009,0.5235686898231506
1761299733034542600,4.28854248046875,0.882936954498291,-0.3168964684009552,0.18407316505908966
1761299733054664700,4.308664794921875,0.8180980682373047,-0.9840526580810547,-0.3741600215435028
1761299733074786600,4.32878662109375,0.761143147945404,-1.27894127368927,-0.6928330659866333
1761299733094907600,4.34890771484375,0.7249449491500854,-0.7961392402648926,-0.49916666746139526
1761299733115029500,4.369029541015625,0.7538431882858276,-0.024053670465946198,0.09225136786699295
1761299733135150600,4.389150634765625,0.7628864645957947,0.5061004757881165,0.6696401238441467
1761299733155272400,4.4092724609375,0.7692697644233704,0.6187692284584045,0.8398933410644531
1761299733175393500,4.4293935546875,0.7815032601356506,0.48725754022598267,0.7114512324333191
1761299733195515600,4.449515625,0.7790454626083374,0.3240734040737152,0.48238369822502136
1761299733215637800,4.4696376953125,0.6723189949989319,0.12771295011043549,0.2937847375869751
1761299733235758600,4.489758544921875,0.4940933585166931,-0.17002418637275696,0.17654520273208618
1761299733255880700,4.509880615234375,0.37289661169052124,-0.34949755668640137,0.09523890167474747
1761299733276001500,4.53000146484375,0.2143314629793167,-0.4283108711242676,-0.010480604134500027
1761299733296123400,4.550123291015625,-0.01756434701383114,-0.38812723755836487,-0.19271644949913025
1761299733316245500,4.57024560546875,-0.3750263452529907,-0.42307108640670776,-0.5254720449447632
1761299733336366600,4.59036669921875,-0.8142050504684448,-0.5824149250984192,-0.9008690714836121
1761299733356488400,4.610488525390625,-1.2366974353790283,-0.688144326210022,-1.089979648590088
1761299733376609500,4.630609619140625,-1.547784686088562,-0.6403538584709167,-1.099529504776001
1761299733396731600,4.650731689453125,-1.748903512954712,-0.4064069092273712,-0.9643945097923279
1761299733416852500,4.6708525390625,-1.8267873525619507,-0.17983634769916534,-0.7844804525375366
1761299733436974600,4.690974609375,-1.803605079650879,0.0810631588101387,-0.5920068621635437
1761299733457096700,4.7110966796875,-1.7674195766448975,0.040413737297058105,-0.3328767716884613
1761299733477217800,4.7312177734375,-1.775517225265503,-0.23096877336502075,0.0491664819419384
1761299733497339400,4.75133935546875,-1.7155966758728027,-0.5103389024734497,0.41542595624923706
1761299733517460500,4.77146044921875,-1.688694715499878,-0.6072470545768738,0.6237195134162903
1761299733537582600,4.79158251953125,-1.8542160987854004,-0.6037202477455139,0.7309311628341675
1761299733557704400,4.811704345703125,-2.085960626602173,-0.7851912379264832,0.6668611168861389
1761299733577825500,4.831825439453125,-2.3872368335723877,-1.0101721286773682,0.23559361696243286
1761299733597947600,4.85194775390625,-2.886814594268799,-1.3460899591445923,-0.5450246930122375
1761299733618068500,4.872068359375,-3.4077131748199463,-1.2138339281082153,-1.2919974327087402
1761299733638190800,4.89219091796875,-3.8462271690368652,-0.5835638642311096,-1.5663450956344604
1761299733658311700,4.912311767578125,-4.190700054168701,-0.1482163667678833,-1.4905952215194702
1761299733678433500,4.93243359375,-4.141242504119873,-0.3839151859283447,-1.3980562686920166
1761299733698555600,4.9525556640625,-3.274724245071411,-0.8719093203544617,-1.0155658721923828
1761299733718676700,4.9726767578125,-2.1029248237609863,-0.9897928237915039,-0.10115804523229599
1761299733738798600,4.992798583984375,-1.4979407787322998,-0.9066409468650818,1.0380064249038696
1761299733758919700,5.012919677734375,-1.3861465454101562,-0.8438367247581482,1.4854928255081177
1761299733779041800,5.033041748046875,-1.4457470178604126,-0.8257985711097717,1.155806541442871
1761299733799163600,5.05316357421875,-1.4227333068847656,-1.0291857719421387,0.5961006879806519
1761299733819284700,5.07328466796875,-1.1984957456588745,-1.2529687881469727,0.33318594098091125
1761299733839406800,5.09340673828125,-1.0810295343399048,-1.0968636274337769,0.32110264897346497
1761299733859527700,5.113527587890625,-1.1780327558517456,-0.6981282234191895,0.40936940908432007
1761299733879649500,5.1336494140625,-1.242647409439087,-0.3772223889827728,0.38382488489151
1761299733899770600,5.1537705078125,-1.1997801065444946,-0.31998172402381897,0.17016427218914032
1761299733919892700,5.173892822265625,-1.025359034538269,-0.5144140720367432,-0.1548479050397873
1761299733940014600,5.1940146484375,-0.9380468130111694,-0.7074804306030273,-0.5325789451599121
1761299733960135700,5.2141357421875,-0.9696382880210876,-0.8560971021652222,-1.04707932472229
1761299733980257800,5.2342578125,-1.0456942319869995,-0.8169286251068115,-1.3048712015151978
1761299734000378600,5.254378662109375,-1.0739567279815674,-0.4271089732646942,-1.0382506847381592
1761299734020500700,5.274500732421875,-0.9452818036079407,0.0778479278087616,-0.5325552225112915
1761299734040622600,5.29462255859375,-0.6375200152397156,0.7729499936103821,0.04526734724640846
1761299734060744000,5.314743896484375,-0.14882703125476837,1.1503719091415405,0.5799856185913086
1761299734080865500,5.334865478515625,0.39637291431427,0.9619423151016235,1.0278332233428955
1761299734100986600,5.354986572265625,0.8160514235496521,0.412479966878891,1.251212477684021
1761299734121108700,5.375108642578125,1.068695068359375,-0.14755643904209137,1.1833710670471191
1761299734141229600,5.3952294921875,0.9647817611694336,-0.39154860377311707,0.7753726840019226
1761299734161351700,5.4153515625,0.7157154679298401,-0.4738764762878418,0.20986081659793854
1761299734181473800,5.435473876953125,0.4830225706100464,-0.6123299598693848,-0.18541912734508514
1761299734201594600,5.4555947265625,0.3030083477497101,-0.6788573265075684,-0.2749559283256531
1761299734221716700,5.475716796875,0.15179964900016785,-0.5142806172370911,-0.042284075170755386
1761299734241837800,5.495837890625,0.07966367155313492,-0.09543677419424057,0.29817524552345276
1761299734261959700,5.515959716796875,0.15008243918418884,0.3016248345375061,0.4548916220664978
1761299734282081500,5.53608154296875,0.31907546520233154,0.456564337015152,0.4675903618335724
1761299734302202600,5.55620263671875,0.42572495341300964,0.426189124584198,0.47515055537223816
1761299734322324700,5.57632470703125,0.4706157147884369,0.21857361495494843,0.5047374367713928
1761299734342445600,5.596445556640625,0.4419443905353546,-0.11940016597509384,0.5850980877876282
1761299734362567700,5.616567626953125,0.4184803366661072,-0.3860182762145996,0.6060640811920166
1761299734382688800,5.636688720703125,0.4193898141384125,-0.35122939944267273,0.40173810720443726
1761299734402810600,5.656810546875,0.3414396047592163,-0.17923127114772797,0.0944194495677948
1761299734422932700,5.6769326171875,0.22864435613155365,-0.028859611600637436,-0.18194876611232758
1761299734443053800,5.6970537109375,0.1157819926738739,0.016876185312867165,-0.3139163851737976
1761299734463175700,5.71717578125,-0.0489204041659832,0.07569503039121628,-0.42809543013572693
1761299734483296500,5.737296630859375,-0.2112203687429428,0.0666450709104538,-0.7185879945755005
1761299734503418600,5.757418701171875,-0.5341214537620544,-0.27190926671028137,-1.2310198545455933
1761299734523540700,5.777540771484375,-0.6167489290237427,-0.7342013120651245,-1.7270232439041138
1761299734543661600,5.79766162109375,-0.3312098979949951,-0.9488773941993713,-1.9021790027618408
1761299734563783700,5.81778369140625,-0.09058955311775208,-0.8678381443023682,-1.8308188915252686
1761299734583904800,5.83790478515625,-0.00009427589975530282,-0.9010778665542603,-1.994127869606018
1761299734604027000,5.85802685546875,-0.010430802591145039,-0.486152321100235,-1.9595293998718262
1761299734624148200,5.878148193359375,0.3035167455673218,0.0889892578125,-0.84333735704422
1761299734644270000,5.89827001953125,0.5580329298973083,0.117782823741436,0.7879814505577087
1761299734664392000,5.918391845703125,0.5505353212356567,-0.23169288039207458,1.5071550607681274
1761299734684513000,5.938512939453125,0.09110141545534134,-0.5730478167533875,1.2377259731292725
1761299734704635100,5.95863525390625,-0.776836633682251,-0.4074668288230896,0.4183615744113922
1761299734724756000,5.978755859375,-1.6152654886245728,0.10529792308807373,-0.33873623609542847
1761299734744878000,5.998878173828125,-2.036348342895508,0.5214434862136841,-0.591839075088501
1761299734765000200,6.019000244140625,-1.9836273193359375,0.673793613910675,-0.3278194069862366
1761299734785121300,6.039121337890625,-1.6735186576843262,0.5685079097747803,0.14163462817668915
1761299734805243100,6.0592431640625,-1.3237732648849487,0.3426782488822937,0.562848687171936
1761299734825364200,6.0793642578125,-1.0226781368255615,0.11973545700311661,0.7688873410224915
1761299734845486000,6.099486083984375,-0.8465717434883118,0.017190970480442047,0.8588483929634094
1761299734865608200,6.119608154296875,-0.7886523008346558,0.04249100014567375,0.8454593420028687
1761299734885729000,6.13972900390625,-0.69868004322052,0.1580791175365448,0.7298043966293335
1761299734905851100,6.15985107421875,-0.6021343469619751,0.0385601744055748,0.6444495320320129
1761299734925972200,6.17997216796875,-0.4892570376396179,-0.1378484070301056,0.5307394862174988
1761299734946094000,6.200093994140625,-0.4368622899055481,-0.1366230994462967,0.3712526559829712
1761299734966215200,6.220215087890625,-0.4960941672325134,0.027126425877213478,0.17491988837718964
1761299734986337300,6.240337158203125,-0.48649242520332336,-0.09919822216033936,0.07155966758728027
1761299735006459000,6.260458984375,-0.3560177683830261,-0.44289088249206543,0.09444528073072433
1761299735026580000,6.280580078125,-0.24856241047382355,-0.5839505195617676,0.10640313476324081
1761299735046702000,6.3007021484375,-0.15650731325149536,-0.334168404340744,0.03995434194803238
1761299735066823000,6.320822998046875,-0.1577313095331192,-0.2104930579662323,-0.042808715254068375
1761299735086945000,6.340945068359375,-0.20344233512878418,-0.5016325116157532,-0.06873086094856262
1761299735107067100,6.361067138671875,-0.26234906911849976,-0.795222282409668,-0.12751375138759613
1761299735127188200,6.381188232421875,-0.2067558467388153,-0.6142597198486328,-0.09307641535997391
1761299735147310000,6.40131005859375,-0.11229591816663742,-0.019965453073382378,0.34347134828567505
1761299735167431200,6.42143115234375,0.04020228236913681,0.6048970818519592,0.8519167304039001
1761299735187553300,6.44155322265625,0.16340383887290955,0.8488964438438416,1.0096741914749146
1761299735207675100,6.461675048828125,0.2725937068462372,0.797160267829895,0.8132635951042175
1761299735227796000,6.4817958984375,0.35719114542007446,0.515095055103302,0.5132060647010803
1761299735247918000,6.50191796875,0.46923327445983887,0.21892303228378296,0.3296966850757599
1761299735268039200,6.5220390625,0.6008232235908508,-0.061955779790878296,0.13341131806373596
1761299735288161000,6.5421611328125,0.6667513847351074,-0.2778380215167999,-0.21024803817272186
1761299735308283100,6.562283203125,0.6036629676818848,-0.3357178270816803,-0.5023565888404846
1761299735328404200,6.582404296875,0.43430057168006897,-0.40950387716293335,-0.5312340259552002
1761299735348526000,6.602526123046875,0.3943883180618286,-0.2989307641983032,-0.21832488477230072
1761299735368647200,6.622647216796875,0.5200996398925781,-0.01194134820252657,0.0981670469045639
1761299735388769000,6.64276904296875,0.6254745125770569,0.22817538678646088,0.15462526679039001
1761299735408890000,6.66289013671875,0.5550163388252258,0.183170884847641,0.0975760892033577
1761299735429012000,6.683011962890625,0.3863399922847748,-0.04928525909781456,0.019961724057793617
1761299735449134000,6.703134033203125,0.3094276189804077,-0.2961392402648926,-0.060084640979766846
1761299735469255200,6.723255126953125,0.3672488331794739,-0.40912064909935,-0.046968840062618256
1761299735489377000,6.743376953125,0.34038928151130676,-0.3955409526824951,-0.004310326185077429
1761299735509498000,6.763498046875,0.20149768888950348,-0.4651450514793396,-0.025713618844747543
1761299735529620200,6.7836201171875,0.07405877858400345,-0.7949913740158081,-0.21255408227443695
1761299735549742300,6.803742431640625,0.11131880432367325,-1.3910644054412842,-0.44542646408081055
1761299735569863200,6.82386328125,0.3737142086029053,-1.9213958978652954,-0.6269435286521912
1761299735589985000,6.843985107421875,0.6209993362426758,-2.218369722366333,-0.78236323595047
1761299735610106000,6.864106201171875,0.6972491145133972,-2.0133275985717773,-0.8723431825637817
1761299735630227700,6.884227783203125,0.5941943526268005,-1.5124040842056274,-0.974684476852417
1761299735650349800,6.904349853515625,0.3274678885936737,-1.0720618963241577,-1.0881415605545044
1761299735670470700,6.924470703125,0.07371389865875244,-0.336154580116272,-1.1773430109024048
1761299735690592800,6.9445927734375,-0.3925696611404419,0.7148805856704712,-1.4131345748901367
1761299735710713900,6.9647138671875,-0.840636670589447,1.457220196723938,-1.3440544605255127
1761299735730836000,6.9848359375,-0.9037623405456543,1.5820995569229126,-0.7770147919654846
1761299735750957800,7.004957763671875,-0.5919421315193176,1.2335000038146973,0.15638375282287598
1761299735771079000,7.025078857421875,-0.42593079805374146,0.6186515092849731,0.945396900177002
1761299735791200800,7.04520068359375,-0.43422043323516846,0.14467117190361023,1.0665696859359741
1761299735811321900,7.06532177734375,-0.5180410146713257,-0.03146125376224518,0.4568290710449219
1761299735831443700,7.085443603515625,-0.5122894048690796,-0.0633038729429245,-0.44831255078315735
1761299735851565800,7.10556591796875,-0.6442354321479797,-0.05391436442732811,-1.0140299797058105
1761299735871687000,7.12568701171875,-0.9865245819091797,0.08235905319452286,-0.9078716039657593
1761299735891808800,7.145808837890625,-1.339613676071167,0.3745483160018921,-0.23370090126991272
1761299735911929900,7.165929931640625,-1.4145419597625732,0.45864108204841614,0.3160037696361542
1761299735932052000,7.186052001953125,-1.261318564414978,0.39006707072257996,0.5302332639694214
1761299735952172800,7.2061728515625,-1.016757607460022,0.43256792426109314,0.4101305305957794
1761299735972295000,7.226294921875,-0.8671870231628418,0.4735318720340729,0.15975956618785858
1761299735992416800,7.246416748046875,-0.7834985256195068,0.33492711186408997,-0.04402950778603554
1761299736012537600,7.26653759765625,-0.8520525693893433,0.2261417955160141,-0.019839217886328697
1761299736032659700,7.28665966796875,-1.002770185470581,0.2117292881011963,0.2581029236316681
1761299736052780800,7.30678076171875,-1.0490281581878662,0.44708988070487976,0.43401163816452026
1761299736072903000,7.32690283203125,-0.867547869682312,0.7323253750801086,0.34823572635650635
1761299736093024800,7.347024658203125,-0.6915760636329651,0.6929910182952881,0.22768083214759827
1761299736113145900,7.367145751953125,-0.6460844874382019,0.0998176708817482,0.5228440165519714
1761299736133268000,7.38726806640625,-0.5183733701705933,-0.5657328963279724,0.6804781556129456
1761299736153388800,7.407388916015625,-0.3846733868122101,-1.0772558450698853,0.19558468461036682
1761299736173511000,7.427510986328125,-0.24410533905029297,-0.8905882239341736,-0.1526412069797516
1761299736193632800,7.4476328125,-0.22108924388885498,-0.42782777547836304,-0.2446659356355667
