time,seconds_elapsed,z,y,x
1761299716482036000,0.054035888671875,-0.6932373046875,-0.6013946533203125,-0.005645751953125
1761299716502157000,0.074156982421875,-0.7164306640625,-0.57708740234375,0.010955810546875
1761299716522279000,0.09427880859375,-0.716156005859375,-0.5721435546875,0.0071258544921875
1761299716542400000,0.11439990234375,-0.7508392333984375,-0.5601043701171875,-0.0296783447265625
1761299716562521900,0.13452197265625,-0.858612060546875,-0.541046142578125,-0.0655517578125
1761299716582643000,0.154642822265625,-0.9029541015625,-0.4969024658203125,-0.064117431640625
1761299716602765600,0.174765625,-0.82794189453125,-0.5045623779296875,0.0022430419921875
1761299716622886700,0.19488671875,-0.73406982421875,-0.531036376953125,0.0165252685546875
1761299716643008500,0.215008544921875,-0.7204437255859375,-0.575469970703125,-0.01385498046875
1761299716663129600,0.235129638671875,-0.7236785888671875,-0.5831146240234375,-0.08038330078125
1761299716683251700,0.255251708984375,-0.72967529296875,-0.598419189453125,-0.088104248046875
1761299716703372500,0.27537255859375,-0.7355499267578125,-0.5996246337890625,-0.0738983154296875
1761299716723494700,0.29549462890625,-0.7759552001953125,-0.5870361328125,-0.092376708984375
1761299716743615700,0.31561572265625,-0.7843017578125,-0.575775146484375,-0.096893310546875
1761299716763737300,0.3357373046875,-0.792327880859375,-0.5932159423828125,-0.0574493408203125
1761299716783858400,0.3558583984375,-0.8403167724609375,-0.59100341796875,0.0284576416015625
1761299716803980500,0.37598046875,-0.8701934814453125,-0.5905303955078125,0.0680694580078125
1761299716824101400,0.396101318359375,-0.8097686767578125,-0.6046295166015625,0.077423095703125
1761299716844223500,0.416223388671875,-0.7472991943359375,-0.607879638671875,0.1277008056640625
1761299716864344600,0.436344482421875,-0.778167724609375,-0.6349029541015625,0.131622314453125
1761299716884466700,0.456466796875,-0.788665771484375,-0.6089019775390625,0.0792083740234375
1761299716904587500,0.47658740234375,-0.6841278076171875,-0.67437744140625,0.1034088134765625
1761299716924709600,0.496709716796875,-0.56280517578125,-0.702911376953125,0.1413726806640625
1761299716944830700,0.516830810546875,-0.49005126953125,-0.7225341796875,0.119293212890625
1761299716964952600,0.53695263671875,-0.5226593017578125,-0.7201385498046875,0.0365447998046875
1761299716985073700,0.55707373046875,-0.6341094970703125,-0.69073486328125,-0.02362060546875
1761299717005195500,0.577195556640625,-0.74993896484375,-0.64410400390625,-0.0451202392578125
1761299717025316400,0.59731640625,-0.8713836669921875,-0.5846099853515625,-0.0195770263671875
1761299717045438500,0.6174384765625,-0.912750244140625,-0.5464630126953125,0.0059661865234375
1761299717065559600,0.6375595703125,-0.83001708984375,-0.545928955078125,0.0280609130859375
1761299717085681400,0.657681396484375,-0.7664794921875,-0.568603515625,0.0890350341796875
1761299717105802500,0.677802490234375,-0.7724151611328125,-0.5392303466796875,0.0860137939453125
1761299717125924600,0.697924560546875,-0.74920654296875,-0.5741119384765625,0.043243408203125
1761299717146045400,0.71804541015625,-0.70367431640625,-0.5940399169921875,-0.0043487548828125
1761299717166167600,0.73816748046875,-0.6993408203125,-0.632720947265625,-0.075714111328125
1761299717186288600,0.75828857421875,-0.72381591796875,-0.664276123046875,-0.1227874755859375
1761299717206410800,0.77841064453125,-0.7906341552734375,-0.6709442138671875,-0.1067657470703125
1761299717226531600,0.798531494140625,-0.8846893310546875,-0.653350830078125,-0.1358184814453125
1761299717246653400,0.8186533203125,-1.0505523681640625,-0.615081787109375,-0.2208099365234375
1761299717266774500,0.8387744140625,-1.1474761962890625,-0.5562896728515625,-0.2856292724609375
1761299717286896400,0.858896484375,-1.140472412109375,-0.514556884765625,-0.2457733154296875
1761299717307017500,0.879017578125,-1.097991943359375,-0.458251953125,-0.192779541015625
1761299717327139600,0.8991396484375,-1.080535888671875,-0.4383087158203125,-0.1597747802734375
1761299717347260400,0.919260498046875,-1.0535125732421875,-0.4254302978515625,-0.1753692626953125
1761299717367382500,0.939382568359375,-0.9896087646484375,-0.4551239013671875,-0.209686279296875
1761299717387503600,0.959503662109375,-0.8057403564453125,-0.484283447265625,-0.273223876953125
1761299717407625500,0.97962548828125,-0.562896728515625,-0.527740478515625,-0.31915283203125
1761299717427746600,0.99974658203125,-0.501312255859375,-0.5417022705078125,-0.354888916015625
1761299717447868700,1.01986865234375,-0.6239471435546875,-0.4183349609375,-0.3814544677734375
1761299717467989500,1.039989501953125,-0.78082275390625,-0.3036956787109375,-0.3269500732421875
1761299717488111600,1.060111572265625,-1.0142974853515625,-0.26959228515625,-0.3227691650390625
1761299717508232700,1.080232666015625,-1.266571044921875,-0.2769775390625,-0.3629608154296875
1761299717528354600,1.1003544921875,-1.2642059326171875,-0.262481689453125,-0.387298583984375
1761299717548475400,1.120475341796875,-1.0471649169921875,-0.3116607666015625,-0.3228912353515625
1761299717568597500,1.140597412109375,-0.8359527587890625,-0.3826141357421875,-0.2864532470703125
1761299717588718600,1.160718505859375,-0.7020721435546875,-0.4326934814453125,-0.292144775390625
1761299717608840700,1.1808408203125,-0.7259063720703125,-0.4460601806640625,-0.3217620849609375
1761299717628961800,1.2009619140625,-0.8267059326171875,-0.389190673828125,-0.314483642578125
1761299717649083600,1.221083740234375,-0.921417236328125,-0.339080810546875,-0.206451416015625
1761299717669204700,1.241204833984375,-0.8916473388671875,-0.30731201171875,-0.0942230224609375
1761299717689326800,1.261326904296875,-0.7711944580078125,-0.304595947265625,0.006134033203125
1761299717709447700,1.28144775390625,-0.7309112548828125,-0.345428466796875,0.10638427734375
1761299717729569800,1.30156982421875,-0.786163330078125,-0.3558807373046875,0.096466064453125
1761299717749691000,1.32169091796875,-0.8414306640625,-0.372802734375,0.01361083984375
1761299717769812700,1.341812744140625,-0.8108062744140625,-0.40185546875,-0.00677490234375
1761299717789933600,1.36193359375,-0.72918701171875,-0.440338134765625,0.00189208984375
1761299717810055700,1.3820556640625,-0.726776123046875,-0.4766693115234375,-0.0164794921875
1761299717830176500,1.402176513671875,-0.812164306640625,-0.492156982421875,-0.0170745849609375
1761299717850298600,1.422298583984375,-0.8775634765625,-0.5327301025390625,-0.0193023681640625
1761299717870419700,1.442419677734375,-0.9019012451171875,-0.5416259765625,-0.014892578125
1761299717890541800,1.462541748046875,-0.954986572265625,-0.55535888671875,0.013275146484375
1761299717910662700,1.48266259765625,-1.0604095458984375,-0.5975341796875,0.014312744140625
1761299717930784800,1.50278466796875,-1.12939453125,-0.6480865478515625,-0.0405120849609375
1761299717950905900,1.52290576171875,-1.199920654296875,-0.6226959228515625,-0.01824951171875
1761299717971027700,1.54302783203125,-1.2946319580078125,-0.6195068359375,0.03204345703125
1761299717991148800,1.563148681640625,-1.415008544921875,-0.6021270751953125,0.0440673828125
1761299718011270700,1.583270751953125,-1.461181640625,-0.5891876220703125,0.03118896484375
1761299718031391700,1.603391845703125,-1.4158477783203125,-0.5334014892578125,0.0171966552734375
1761299718051513600,1.623513671875,-1.3882293701171875,-0.4298858642578125,0.014068603515625
1761299718071634700,1.643634765625,-1.3577423095703125,-0.3210296630859375,0.0591888427734375
1761299718091756800,1.6637568359375,-1.1776123046875,-0.2695770263671875,0.120758056640625
1761299718111877600,1.683877685546875,-0.9157257080078125,-0.258056640625,0.11871337890625
1761299718131999700,1.703999755859375,-0.75921630859375,-0.3239898681640625,0.06365966796875
1761299718152121900,1.724121826171875,-0.7070159912109375,-0.345794677734375,0.0091400146484375
1761299718172242700,1.74424267578125,-0.709075927734375,-0.3715972900390625,-0.0467071533203125
1761299718192364800,1.76436474609375,-0.690948486328125,-0.3746490478515625,-0.0821685791015625
1761299718212486000,1.78448583984375,-0.703155517578125,-0.38287353515625,-0.0706024169921875
1761299718232607500,1.804607421875,-0.813018798828125,-0.3609161376953125,-0.0848236083984375
1761299718252728600,1.824728515625,-0.9068450927734375,-0.32550048828125,-0.0954742431640625
1761299718272850700,1.8448505859375,-0.903167724609375,-0.257598876953125,-0.046051025390625
1761299718292971500,1.864971435546875,-0.7702178955078125,-0.2529144287109375,-0.0023040771484375
1761299718313093600,1.88509375,-0.6231231689453125,-0.2872314453125,-0.005096435546875
1761299718333214700,1.905214599609375,-0.5532379150390625,-0.3139801025390625,-0.0499114990234375
1761299718353336800,1.9253369140625,-0.5196685791015625,-0.3228302001953125,-0.06805419921875
1761299718373457700,1.945457763671875,-0.531524658203125,-0.3132781982421875,-0.0515289306640625
1761299718393579800,1.965579833984375,-0.5818634033203125,-0.3255157470703125,-0.042236328125
1761299718413700900,1.985700927734375,-0.6746826171875,-0.3601531982421875,-0.047332763671875
1761299718433822700,2.00582275390625,-0.7576751708984375,-0.372314453125,-0.0844268798828125
1761299718453943800,2.02594384765625,-0.78009033203125,-0.38592529296875,-0.0987396240234375
1761299718474065700,2.046065673828125,-0.7969207763671875,-0.4207611083984375,-0.1173553466796875
1761299718494186800,2.066186767578125,-0.821075439453125,-0.4423980712890625,-0.1380157470703125
1761299718514308600,2.08630859375,-0.9306640625,-0.4512786865234375,-0.1401824951171875
1761299718534429700,2.1064296875,-1.021820068359375,-0.4327239990234375,-0.153564453125
1761299718554551600,2.126551513671875,-1.1071929931640625,-0.434295654296875,-0.184234619140625
1761299718574672600,2.146672607421875,-1.1382904052734375,-0.45660400390625,-0.16064453125
1761299718594794800,2.166794677734375,-1.1428680419921875,-0.457305908203125,-0.1280364990234375
1761299718614915300,2.186915283203125,-1.1728057861328125,-0.427520751953125,-0.0856170654296875
1761299718635037200,2.207037109375,-1.2447357177734375,-0.35052490234375,-0.0642242431640625
1761299718655158300,2.227158203125,-1.3313751220703125,-0.3241424560546875,-0.1564483642578125
1761299718675280400,2.2472802734375,-1.2771759033203125,-0.329559326171875,-0.2900390625
1761299718695401200,2.267401123046875,-0.9902801513671875,-0.3848876953125,-0.303802490234375
1761299718715523300,2.2875234375,-0.707122802734375,-0.4576263427734375,-0.281097412109375
1761299718735644400,2.30764453125,-0.5800628662109375,-0.51312255859375,-0.2463226318359375
1761299718755766300,2.327766357421875,-0.6020660400390625,-0.505645751953125,-0.2425537109375
1761299718775887400,2.347887451171875,-0.7145843505859375,-0.524688720703125,-0.29693603515625
1761299718796009200,2.36800927734375,-0.761322021484375,-0.518890380859375,-0.3022003173828125
1761299718816130300,2.38813037109375,-0.7427978515625,-0.5099639892578125,-0.263946533203125
1761299718836252200,2.408252197265625,-0.7473907470703125,-0.5018463134765625,-0.1837310791015625
1761299718856373200,2.428373291015625,-0.7439727783203125,-0.488372802734375,-0.0589599609375
1761299718876495400,2.448495361328125,-0.674591064453125,-0.5149383544921875,-0.0118408203125
1761299718896616200,2.4686162109375,-0.6241455078125,-0.5582122802734375,-0.01055908203125
1761299718916738300,2.48873828125,-0.6327667236328125,-0.59747314453125,-0.022430419921875
1761299718936859400,2.508859375,-0.71044921875,-0.60089111328125,-0.0104217529296875
1761299718956981200,2.528981201171875,-0.7888336181640625,-0.598846435546875,0.049530029296875
1761299718977102300,2.549102294921875,-0.81378173828125,-0.633331298828125,0.1678619384765625
1761299718997224400,2.569224365234375,-0.8389434814453125,-0.7220916748046875,0.2498779296875
1761299719017346300,2.58934619140625,-0.9711151123046875,-0.753326416015625,0.3204803466796875
1761299719037467100,2.609467041015625,-1.2185821533203125,-0.755523681640625,0.3144073486328125
1761299719057589200,2.62958935546875,-1.322113037109375,-0.7150726318359375,0.2234039306640625
1761299719077710300,2.64971044921875,-1.27081298828125,-0.69219970703125,0.1753997802734375
1761299719097832200,2.669832275390625,-1.1943817138671875,-0.6340484619140625,0.1723785400390625
1761299719117953300,2.689953369140625,-1.1170196533203125,-0.584228515625,0.157379150390625
1761299719138075400,2.710075439453125,-1.0684356689453125,-0.55810546875,0.0955963134765625
1761299719158196200,2.7301962890625,-1.0076446533203125,-0.517791748046875,0.11541748046875
1761299719178318300,2.750318359375,-0.939300537109375,-0.462554931640625,0.14410400390625
1761299719198439400,2.770439453125,-0.8635101318359375,-0.42620849609375,0.1499481201171875
1761299719218561500,2.7905615234375,-0.847259521484375,-0.42333984375,0.1375885009765625
1761299719238682400,2.810682373046875,-0.845947265625,-0.4097747802734375,0.1330413818359375
1761299719258804200,2.83080419921875,-0.82855224609375,-0.4009246826171875,0.20684814453125
1761299719278925000,2.850925048828125,-0.9083099365234375,-0.38287353515625,0.3067779541015625
1761299719299047200,2.871047119140625,-1.041534423828125,-0.268310546875,0.328399658203125
1761299719319168300,2.891168212890625,-1.1396331787109375,-0.1438140869140625,0.261505126953125
1761299719339290400,2.911290283203125,-1.1826171875,-0.038604736328125,0.3236083984375
1761299719359411200,2.9314111328125,-1.141265869140625,-0.0106658935546875,0.355682373046875
1761299719379533300,2.951533203125,-1.042572021484375,-0.066558837890625,0.2413482666015625
1761299719399654400,2.971654296875,-0.8647613525390625,-0.16619873046875,0.1242218017578125
1761299719419776300,2.9917763671875,-0.7840576171875,-0.2519683837890625,-0.0125885009765625
1761299719439897300,3.0118974609375,-0.8233795166015625,-0.280303955078125,-0.1396331787109375
1761299719460019500,3.03201953125,-0.8962554931640625,-0.3148040771484375,-0.1683349609375
1761299719480140300,3.052140380859375,-0.9595184326171875,-0.3068695068359375,-0.1410980224609375
1761299719500262100,3.07226220703125,-0.9796600341796875,-0.2830047607421875,-0.1107330322265625
1761299719520383200,3.09238330078125,-1.0063018798828125,-0.2872772216796875,-0.10107421875
1761299719540505300,3.11250537109375,-1.0468902587890625,-0.29461669921875,-0.11322021484375
1761299719560626200,3.132626220703125,-1.0495452880859375,-0.3131561279296875,-0.11468505859375
1761299719580748300,3.152748291015625,-1.03216552734375,-0.3282012939453125,-0.135986328125
1761299719600869000,3.172869140625,-0.9893646240234375,-0.3348388671875,-0.1833648681640625
1761299719620990700,3.19299072265625,-1.0343475341796875,-0.3574066162109375,-0.2612762451171875
1761299719641111800,3.21311181640625,-1.124481201171875,-0.314117431640625,-0.3140869140625
1761299719661234000,3.23323388671875,-1.12847900390625,-0.2800140380859375,-0.3215179443359375
1761299719681356000,3.25335595703125,-1.1003570556640625,-0.234100341796875,-0.3428955078125
1761299719701476900,3.273476806640625,-1.0274505615234375,-0.2450408935546875,-0.292449951171875
1761299719721599000,3.293598876953125,-0.9788665771484375,-0.2527923583984375,-0.20684814453125
1761299719741719800,3.3137197265625,-0.9918060302734375,-0.2287139892578125,-0.111236572265625
1761299719761841700,3.333841552734375,-1.0468292236328125,-0.18524169921875,-0.0530853271484375
1761299719781962800,3.353962646484375,-1.0329437255859375,-0.1975250244140625,-0.1339569091796875
1761299719802084900,3.3740849609375,-0.8141937255859375,-0.24908447265625,-0.16973876953125
1761299719822205700,3.394205810546875,-0.6442718505859375,-0.3734283447265625,-0.281646728515625
1761299719842327800,3.414327880859375,-0.5969390869140625,-0.428009033203125,-0.28790283203125
1761299719862449000,3.434448974609375,-0.6650390625,-0.4785308837890625,-0.2735595703125
1761299719882570800,3.45457080078125,-0.78582763671875,-0.467041015625,-0.210479736328125
1761299719902691800,3.47469189453125,-0.832244873046875,-0.471588134765625,-0.0861968994140625
1761299719922814000,3.49481396484375,-0.906524658203125,-0.4480133056640625,0.001983642578125
1761299719942934800,3.514934814453125,-0.96771240234375,-0.3952484130859375,0.092529296875
1761299719963057000,3.535056884765625,-0.923919677734375,-0.40643310546875,0.1353912353515625
1761299719983178000,3.555177978515625,-0.7657928466796875,-0.441741943359375,0.104248046875
1761299720003299800,3.5752998046875,-0.633880615234375,-0.4838409423828125,0.100982666015625
1761299720023421000,3.5954208984375,-0.633453369140625,-0.5070648193359375,0.1066131591796875
1761299720043542800,3.615542724609375,-0.679901123046875,-0.5018463134765625,0.07232666015625
1761299720063663600,3.63566357421875,-0.7617340087890625,-0.518890380859375,0.0500030517578125
1761299720083785700,3.65578564453125,-0.8005828857421875,-0.52972412109375,0.0209503173828125
1761299720103906800,3.67590673828125,-0.8127288818359375,-0.559295654296875,-0.0093841552734375
1761299720124029000,3.69602880859375,-0.837921142578125,-0.569427490234375,-0.0045013427734375
1761299720144149800,3.716149658203125,-0.887420654296875,-0.564971923828125,0.0461883544921875
1761299720164271900,3.73627197265625,-0.9964599609375,-0.5919036865234375,0.09112548828125
1761299720184393000,3.75639306640625,-1.179779052734375,-0.603302001953125,0.102691650390625
1761299720204514800,3.776514892578125,-1.2665557861328125,-0.6015625,0.023681640625
1761299720224636700,3.79663671875,-1.185211181640625,-0.617431640625,-0.059112548828125
1761299720244758000,3.816758056640625,-1.0565185546875,-0.636260986328125,-0.094757080078125
1761299720264879900,3.8368798828125,-1.012664794921875,-0.64111328125,-0.0494842529296875
1761299720285000700,3.857000732421875,-1.0083465576171875,-0.6433868408203125,0.052459716796875
1761299720305122800,3.877122802734375,-1.100006103515625,-0.599945068359375,0.06707763671875
1761299720325244000,3.897243896484375,-1.244598388671875,-0.509979248046875,-0.0189971923828125
1761299720345365800,3.91736572265625,-1.27069091796875,-0.410552978515625,-0.060760498046875
1761299720365486800,3.93748681640625,-1.078460693359375,-0.3556671142578125,-0.0701141357421875
1761299720385609000,3.95760888671875,-0.8163909912109375,-0.362762451171875,-0.05816650390625
1761299720405729800,3.977729736328125,-0.6593780517578125,-0.3732147216796875,-0.037994384765625
1761299720425849900,3.997849853515625,-0.64727783203125,-0.3768768310546875,-0.083984375
1761299720445970700,4.017970703125,-0.73553466796875,-0.40576171875,-0.22442626953125
1761299720466092800,4.0380927734375,-0.8204498291015625,-0.4369049072265625,-0.353363037109375
1761299720486214000,4.0582138671875,-0.9281158447265625,-0.4092559814453125,-0.3638153076171875
1761299720506335700,4.078335693359375,-0.99810791015625,-0.3263092041015625,-0.285919189453125
1761299720526457900,4.098457763671875,-0.9723663330078125,-0.251373291015625,-0.163116455078125
1761299720546579000,4.118578857421875,-0.9045257568359375,-0.1961212158203125,-0.068206787109375
1761299720566701000,4.138701171875,-0.8107147216796875,-0.1807403564453125,-0.0733642578125
1761299720586822000,4.15882177734375,-0.7075958251953125,-0.2049102783203125,-0.080841064453125
1761299720606943700,4.17894384765625,-0.6629638671875,-0.2024383544921875,-0.06298828125
1761299720627064800,4.19906494140625,-0.684234619140625,-0.201904296875,-0.095855712890625
1761299720647187000,4.21918701171875,-0.7068328857421875,-0.222198486328125,-0.1168975830078125
1761299720667308000,4.23930810546875,-0.804718017578125,-0.279876708984375,-0.123870849609375
1761299720687430100,4.25943017578125,-0.8776397705078125,-0.2695770263671875,-0.1924591064453125
1761299720707551000,4.279551025390625,-0.8259429931640625,-0.3223114013671875,-0.2506866455078125
1761299720727673000,4.299673095703125,-0.708526611328125,-0.4304962158203125,-0.3360595703125
1761299720747794200,4.319794189453125,-0.670684814453125,-0.52325439453125,-0.3913726806640625
1761299720767916000,4.339916015625,-0.72332763671875,-0.5209808349609375,-0.366241455078125
1761299720788037000,4.360037109375,-0.832000732421875,-0.4683837890625,-0.2391815185546875
1761299720808159200,4.3801591796875,-0.962554931640625,-0.43316650390625,-0.191619873046875
1761299720828280000,4.400280029296875,-1.0181121826171875,-0.449371337890625,-0.3020477294921875
1761299720848402000,4.42040185546875,-1.0181121826171875,-0.512481689453125,-0.4416351318359375
1761299720868523000,4.44052294921875,-1.0474700927734375,-0.4833526611328125,-0.510589599609375
1761299720888644900,4.460644775390625,-1.17303466796875,-0.3780670166015625,-0.4579010009765625
1761299720908766000,4.480765869140625,-1.2978515625,-0.2277374267578125,-0.3570404052734375
1761299720928888000,4.50088818359375,-1.2812042236328125,-0.124908447265625,-0.2692413330078125
1761299720949009000,4.5210087890625,-1.0771026611328125,-0.1429901123046875,-0.2886199951171875
1761299720969131000,4.541131103515625,-0.87860107421875,-0.208953857421875,-0.3222808837890625
1761299720989253000,4.561253173828125,-0.8397369384765625,-0.253265380859375,-0.3164520263671875
1761299721009374200,4.581374267578125,-0.8916778564453125,-0.236419677734375,-0.3009033203125
1761299721029496000,4.60149609375,-0.9214019775390625,-0.2534637451171875,-0.2339630126953125
1761299721049617200,4.6216171875,-0.8489990234375,-0.2953338623046875,-0.1959381103515625
1761299721069739000,4.641739013671875,-0.709747314453125,-0.331756591796875,-0.2097930908203125
1761299721089859800,4.66185986328125,-0.756744384765625,-0.3416748046875,-0.249176025390625
1761299721109982000,4.68198193359375,-0.970977783203125,-0.187713623046875,-0.1490478515625
1761299721130103000,4.70210302734375,-1.00775146484375,-0.1373748779296875,0.040069580078125
1761299721150225000,4.722224853515625,-0.8753204345703125,-0.172637939453125,0.1785430908203125
1761299721170346000,4.742345947265625,-0.752227783203125,-0.301116943359375,0.2030029296875
1761299721190468000,4.762468017578125,-0.7336883544921875,-0.3736114501953125,0.158416748046875
1761299721210589000,4.7825888671875,-0.7736968994140625,-0.4228057861328125,0.179718017578125
1761299721230711000,4.8027109375,-0.8465423583984375,-0.457916259765625,0.2205352783203125
1761299721250832100,4.82283203125,-0.958526611328125,-0.54095458984375,0.2569732666015625
1761299721270954200,4.842954345703125,-1.017608642578125,-0.613555908203125,0.300018310546875
1761299721291075000,4.863074951171875,-1.0487823486328125,-0.7014007568359375,0.2823486328125
1761299721311197000,4.883197021484375,-1.1082000732421875,-0.7286376953125,0.204437255859375
1761299721331318000,4.903318115234375,-1.2070159912109375,-0.753387451171875,0.161468505859375
1761299721351440000,4.92343994140625,-1.278900146484375,-0.763671875,0.1389923095703125
1761299721371562000,4.94356201171875,-1.37078857421875,-0.7653656005859375,0.1343231201171875
1761299721391683000,4.96368310546875,-1.4817352294921875,-0.7037353515625,0.14141845703125
1761299721411805200,4.98380517578125,-1.5151214599609375,-0.6118011474609375,0.1102752685546875
1761299721431926000,5.003926025390625,-1.394317626953125,-0.581390380859375,-0.01165771484375
1761299721452048100,5.024048095703125,-1.3213043212890625,-0.5587158203125,-0.1071319580078125
1761299721472169200,5.044169189453125,-1.333984375,-0.38531494140625,-0.045196533203125
1761299721492291000,5.064291015625,-1.2596435546875,-0.238800048828125,0.01934814453125
1761299721512412200,5.084412109375,-1.11810302734375,-0.2014312744140625,-0.0001373291015625
1761299721532534000,5.104533935546875,-0.93145751953125,-0.255767822265625,-0.090301513671875
1761299721552655000,5.124655029296875,-0.7353363037109375,-0.289215087890625,-0.16058349609375
1761299721572777000,5.14477685546875,-0.5933837890625,-0.3350677490234375,-0.15472412109375
1761299721592898000,5.16489794921875,-0.52801513671875,-0.3581085205078125,-0.1268768310546875
1761299721613020700,5.185020751953125,-0.5475616455078125,-0.3697967529296875,-0.1142425537109375
1761299721633141500,5.2051416015625,-0.6150970458984375,-0.4016265869140625,-0.114990234375
1761299721653263600,5.225263671875,-0.6957244873046875,-0.38140869140625,-0.143798828125
1761299721673384700,5.245384765625,-0.7643280029296875,-0.34625244140625,-0.189208984375
1761299721693506600,5.265506591796875,-0.7384490966796875,-0.3235931396484375,-0.2007598876953125
1761299721713628400,5.28562841796875,-0.6446380615234375,-0.3134918212890625,-0.157012939453125
1761299721733749500,5.30574951171875,-0.5621337890625,-0.3032684326171875,-0.091278076171875
1761299721753871600,5.32587158203125,-0.5237884521484375,-0.330535888671875,-0.058349609375
1761299721773992400,5.345992431640625,-0.5233306884765625,-0.347686767578125,-0.054351806640625
1761299721794114600,5.366114501953125,-0.639984130859375,-0.3296051025390625,-0.0713348388671875
1761299721814235600,5.386235595703125,-0.7187347412109375,-0.3009796142578125,-0.0425567626953125
1761299721834357500,5.406357421875,-0.7615509033203125,-0.3227081298828125,-0.12347412109375
1761299721854478600,5.426478515625,-0.846649169921875,-0.3164520263671875,-0.2219390869140625
1761299721874600700,5.4466005859375,-0.8774566650390625,-0.2993621826171875,-0.2278289794921875
1761299721894721500,5.466721435546875,-0.843292236328125,-0.346923828125,-0.17315673828125
1761299721914843600,5.48684375,-0.9284515380859375,-0.347259521484375,-0.2229766845703125
1761299721934964700,5.50696484375,-0.980377197265625,-0.29864501953125,-0.2291107177734375
1761299721955086600,5.527086669921875,-0.924346923828125,-0.285858154296875,-0.2369842529296875
1761299721975207700,5.547207763671875,-0.9014129638671875,-0.3188934326171875,-0.2626953125
1761299721995329500,5.56732958984375,-1.026641845703125,-0.346221923828125,-0.292572021484375
1761299722015450400,5.587450439453125,-1.154754638671875,-0.3252105712890625,-0.3442230224609375
1761299722035572500,5.607572509765625,-1.24957275390625,-0.3025054931640625,-0.320465087890625
1761299722055694600,5.627694580078125,-1.363800048828125,-0.2743377685546875,-0.286163330078125
1761299722075815700,5.647815673828125,-1.450531005859375,-0.22320556640625,-0.3634185791015625
1761299722095937500,5.6679375,-1.327667236328125,-0.2082366943359375,-0.4044647216796875
1761299722116058600,5.68805859375,-1.0315093994140625,-0.287078857421875,-0.343658447265625
1761299722136180700,5.7081806640625,-0.7246551513671875,-0.3829345703125,-0.3011932373046875
1761299722156301600,5.728301513671875,-0.631866455078125,-0.4430999755859375,-0.2316436767578125
1761299722176423400,5.74842333984375,-0.7115478515625,-0.446197509765625,-0.292327880859375
1761299722196544800,5.768544677734375,-0.8701324462890625,-0.413726806640625,-0.2751922607421875
1761299722216666600,5.78866650390625,-0.9582977294921875,-0.3494873046875,-0.1971588134765625
1761299722236787500,5.808787353515625,-0.9801483154296875,-0.2952423095703125,-0.0985870361328125
1761299722256909600,5.82890966796875,-0.914215087890625,-0.266998291015625,-0.0001068115234375
1761299722277030400,5.849030517578125,-0.800384521484375,-0.292816162109375,0.0299835205078125
1761299722297152500,5.869152587890625,-0.709014892578125,-0.3206939697265625,0.0113067626953125
1761299722317273600,5.889273681640625,-0.6155242919921875,-0.3446502685546875,-0.0101165771484375
1761299722337395700,5.909395751953125,-0.569671630859375,-0.3794708251953125,-0.0094757080078125
1761299722357516500,5.9295166015625,-0.580810546875,-0.40167236328125,-0.0292205810546875
1761299722377638700,5.949638671875,-0.6372528076171875,-0.44586181640625,-0.05731201171875
1761299722397760500,5.969760498046875,-0.72662353515625,-0.4753265380859375,-0.078155517578125
1761299722417881600,5.989881591796875,-0.7931976318359375,-0.514862060546875,-0.0461273193359375
1761299722438003500,6.01000341796875,-0.886077880859375,-0.5533599853515625,0.0067291259765625
1761299722458124500,6.03012451171875,-1.035919189453125,-0.5633697509765625,0.0738525390625
1761299722478246700,6.05024658203125,-1.146270751953125,-0.57904052734375,0.0639495849609375
1761299722498367500,6.070367431640625,-1.2852325439453125,-0.57904052734375,0.0059661865234375
1761299722518489600,6.090489501953125,-1.3493804931640625,-0.5897674560546875,0.0348052978515625
1761299722538610700,6.110610595703125,-1.3575897216796875,-0.6278533935546875,0.079833984375
1761299722558732500,6.130732666015625,-1.3839569091796875,-0.6497955322265625,0.045074462890625
1761299722578853600,6.150853515625,-1.4759979248046875,-0.5904693603515625,-0.0100860595703125
1761299722598975700,6.170975830078125,-1.519805908203125,-0.46356201171875,-0.060699462890625
1761299722619096600,6.1910966796875,-1.406097412109375,-0.3329925537109375,-0.045684814453125
1761299722639218700,6.21121875,-1.09271240234375,-0.3101654052734375,0.0152587890625
1761299722659339500,6.231339599609375,-0.849273681640625,-0.3317413330078125,0.070587158203125
1761299722679461400,6.25146142578125,-0.71697998046875,-0.37078857421875,0.07757568359375
1761299722699583500,6.27158349609375,-0.6523590087890625,-0.4157257080078125,0.0022125244140625
1761299722719704300,6.291704345703125,-0.646697998046875,-0.42144775390625,-0.104888916015625
1761299722739826400,6.311826416015625,-0.6277313232421875,-0.430267333984375,-0.1805267333984375
1761299722759947500,6.331947509765625,-0.6449127197265625,-0.41766357421875,-0.17364501953125
1761299722780069400,6.3520693359375,-0.7247314453125,-0.3553924560546875,-0.1140594482421875
1761299722800190500,6.3721904296875,-0.8317718505859375,-0.2910919189453125,-0.0247039794921875
1761299722820312600,6.3923125,-0.8542633056640625,-0.2579345703125,0.0332794189453125
1761299722840433400,6.412433349609375,-0.7870025634765625,-0.2678375244140625,0.01409912109375
1761299722860555500,6.432555419921875,-0.7476654052734375,-0.2924041748046875,-0.0484619140625
1761299722880676600,6.452676513671875,-0.73577880859375,-0.2929840087890625,-0.033477783203125
1761299722900798500,6.472798583984375,-0.7212066650390625,-0.2983551025390625,-0.0505218505859375
1761299722920919300,6.492919189453125,-0.6753997802734375,-0.301116943359375,-0.078826904296875
1761299722941041400,6.51304150390625,-0.677703857421875,-0.3324737548828125,-0.0941619873046875
1761299722961163500,6.53316357421875,-0.7281646728515625,-0.3544769287109375,-0.094085693359375
1761299722981284400,6.553284423828125,-0.775146484375,-0.3577117919921875,-0.083892822265625
1761299723001406500,6.573406494140625,-0.8521728515625,-0.336761474609375,-0.1293182373046875
1761299723021527600,6.593527587890625,-0.865814208984375,-0.352996826171875,-0.14788818359375
1761299723041649400,6.6136494140625,-0.914154052734375,-0.35931396484375,-0.1805877685546875
1761299723061770500,6.6337705078125,-1.0395660400390625,-0.320098876953125,-0.1927337646484375
1761299723081892600,6.653892578125,-1.1197357177734375,-0.3166961669921875,-0.2106475830078125
1761299723102013400,6.674013427734375,-1.1104736328125,-0.350799560546875,-0.201385498046875
1761299723122135300,6.69413525390625,-1.0986785888671875,-0.3382720947265625,-0.2169036865234375
1761299723142256400,6.71425634765625,-1.1404571533203125,-0.34027099609375,-0.2361297607421875
1761299723162378500,6.73437841796875,-1.2465057373046875,-0.275054931640625,-0.205291748046875
1761299723182499300,6.754499267578125,-1.309539794921875,-0.210418701171875,-0.087127685546875
1761299723202621400,6.774621337890625,-1.2058868408203125,-0.217498779296875,-0.10369873046875
1761299723222743600,6.79474365234375,-1.0355682373046875,-0.287384033203125,-0.21075439453125
1761299723242864400,6.814864501953125,-0.91094970703125,-0.363616943359375,-0.31024169921875
1761299723262986500,6.834986572265625,-0.8235931396484375,-0.4349365234375,-0.3594970703125
1761299723283107600,6.855107666015625,-0.815521240234375,-0.45843505859375,-0.3458404541015625
1761299723303229700,6.875229736328125,-0.8433990478515625,-0.4389190673828125,-0.2664947509765625
1761299723323350500,6.8953505859375,-0.8871002197265625,-0.4063262939453125,-0.1472320556640625
1761299723343472400,6.915472412109375,-0.8816375732421875,-0.36968994140625,-0.0745086669921875
1761299723363593500,6.935593505859375,-0.8431396484375,-0.38677978515625,-0.074066162109375
1761299723383715300,6.95571533203125,-0.7097930908203125,-0.4177703857421875,-0.097564697265625
1761299723403836400,6.97583642578125,-0.6082611083984375,-0.4349517822265625,-0.097808837890625
1761299723423958500,6.99595849609375,-0.5046539306640625,-0.4483795166015625,-0.074737548828125
1761299723444079400,7.016079345703125,-0.418853759765625,-0.4577484130859375,-0.03216552734375
1761299723464201500,7.036201416015625,-0.4467926025390625,-0.475860595703125,0.0272979736328125
1761299723484323600,7.056323486328125,-0.569580078125,-0.473480224609375,0.075958251953125
1761299723504444400,7.0764443359375,-0.7014312744140625,-0.490936279296875,0.117156982421875
1761299723524566500,7.09656640625,-0.8256072998046875,-0.5067291259765625,0.1341094970703125
1761299723544687600,7.1166875,-0.91143798828125,-0.566650390625,0.1368560791015625
1761299723564809500,7.1368095703125,-1.0564727783203125,-0.6116485595703125,0.1251068115234375
1761299723584930300,7.156930419921875,-1.275360107421875,-0.6241302490234375,0.0391998291015625
1761299723605052400,7.177052490234375,-1.3672332763671875,-0.6583099365234375,-0.073150634765625
1761299723625173000,7.197173095703125,-1.3384246826171875,-0.7265777587890625,-0.078338623046875
1761299723645295000,7.217295166015625,-1.326507568359375,-0.8239593505859375,-0.012176513671875
1761299723665416000,7.237416015625,-1.398529052734375,-0.8397674560546875,0.110626220703125
1761299723685538000,7.2575380859375,-1.4743499755859375,-0.7149200439453125,0.231170654296875
1761299723705660200,7.27766015625,-1.4314727783203125,-0.5545196533203125,0.1968536376953125
1761299723725781000,7.297781005859375,-1.2792816162109375,-0.47637939453125,0.1895294189453125
1761299723745903000,7.317903076171875,-1.1978912353515625,-0.31451416015625,0.45037841796875
1761299723766024200,7.338024169921875,-1.0777587890625,-0.2465972900390625,0.589752197265625
1761299723786146000,7.35814599609375,-0.9083709716796875,-0.1983642578125,0.5334014892578125
1761299723806267100,7.37826708984375,-0.701263427734375,-0.219207763671875,0.3592529296875
1761299723826389000,7.398388916015625,-0.5239410400390625,-0.268524169921875,0.21490478515625
1761299723846509800,7.418509765625,-0.488861083984375,-0.3091583251953125,0.115081787109375
1761299723866632000,7.4386318359375,-0.605621337890625,-0.2751922607421875,0.073455810546875
1761299723886753000,7.4587529296875,-0.836334228515625,-0.2155303955078125,0.0376434326171875
1761299723906875100,7.478875244140625,-0.9812774658203125,-0.2182769775390625,0.0297698974609375
1761299723926997000,7.4989970703125,-0.9954071044921875,-0.2436676025390625,0.0032501220703125
1761299723947118000,7.5191181640625,-0.907379150390625,-0.26544189453125,-0.049468994140625
1761299723967240200,7.539240234375,-0.756500244140625,-0.300872802734375,-0.091827392578125
1761299723987361000,7.559361083984375,-0.6332244873046875,-0.319915771484375,-0.097564697265625
1761299724007483000,7.57948291015625,-0.6217803955078125,-0.309814453125,-0.018463134765625
1761299724027604200,7.599604248046875,-0.644195556640625,-0.2929229736328125,-0.017333984375
1761299724047726000,7.61972607421875,-0.64959716796875,-0.32440185546875,-0.0646514892578125
1761299724067847000,7.639846923828125,-0.7007904052734375,-0.3546905517578125,-0.132720947265625
1761299724087969000,7.659968994140625,-0.859161376953125,-0.3582611083984375,-0.19293212890625
1761299724108089900,7.68008984375,-1.001617431640625,-0.3522796630859375,-0.2252044677734375
1761299724128212000,7.7002119140625,-1.0575408935546875,-0.344329833984375,-0.242523193359375
1761299724148334000,7.720333984375,-1.0584869384765625,-0.36785888671875,-0.2815704345703125
1761299724168455200,7.740455078125,-1.06756591796875,-0.3915863037109375,-0.3038177490234375
1761299724188577000,7.760576904296875,-1.053253173828125,-0.47357177734375,-0.3175506591796875
1761299724208698000,7.780697998046875,-1.06463623046875,-0.4998016357421875,-0.3414764404296875
1761299724228820000,7.800820068359375,-1.14410400390625,-0.4300079345703125,-0.33160400390625
1761299724248941000,7.820941162109375,-1.1910247802734375,-0.358978271484375,-0.26129150390625
1761299724269063000,7.84106298828125,-1.0568084716796875,-0.3813934326171875,-0.183074951171875
1761299724289184000,7.86118408203125,-0.8841552734375,-0.459808349609375,-0.1105499267578125
1761299724309306000,7.88130615234375,-0.8223419189453125,-0.5021820068359375,0.02490234375
1761299724329427000,7.901427001953125,-0.87298583984375,-0.5305633544921875,0.1540069580078125
1761299724349549000,7.921549072265625,-0.93084716796875,-0.5894927978515625,0.1761627197265625
1761299724369671200,7.941671142578125,-0.9898834228515625,-0.632110595703125,0.0131378173828125
1761299724389792000,7.9617919921875,-1.07257080078125,-0.6712188720703125,-0.1577606201171875
1761299724409914000,7.9819140625,-1.0684661865234375,-0.64886474609375,-0.1196746826171875
1761299724430035200,8.00203515625,-0.9212646484375,-0.631256103515625,0.0097198486328125
1761299724450156800,8.02215673828125,-0.8319244384765625,-0.6007080078125,0.0901641845703125
1761299724470278100,8.042278076171876,-0.787017822265625,-0.5341796875,0.0552825927734375
1761299724490400000,8.06239990234375,-0.7736358642578125,-0.509002685546875,0.0072021484375
1761299724510520800,8.082520751953124,-0.725128173828125,-0.4538726806640625,0.000701904296875
1761299724530643000,8.102642822265626,-0.7066497802734375,-0.4151611328125,0.0356292724609375
1761299724550764000,8.122763916015625,-0.8260345458984375,-0.3504638671875,-0.0025177001953125
1761299724570886100,8.14288623046875,-0.8569183349609375,-0.318450927734375,-0.0357818603515625
1761299724591008000,8.163008056640624,-0.800018310546875,-0.397125244140625,-0.0775146484375
1761299724611129000,8.183129150390625,-0.7142333984375,-0.4575042724609375,-0.1348724365234375
1761299724631251200,8.203251220703125,-0.7340850830078125,-0.467041015625,-0.1201934814453125
1761299724651372000,8.2233720703125,-0.8202667236328125,-0.4503936767578125,-0.05841064453125
1761299724671494000,8.243493896484376,-0.873565673828125,-0.409149169921875,-0.0383453369140625
1761299724691615200,8.263615234375,-0.9127655029296875,-0.4213714599609375,-0.05242919921875
1761299724711737000,8.283737060546875,-0.93389892578125,-0.481109619140625,-0.069793701171875
1761299724731858000,8.30385791015625,-0.9945068359375,-0.459136962890625,-0.05108642578125
1761299724751980000,8.32397998046875,-0.9894256591796875,-0.400604248046875,0.0233154296875
1761299724772100900,8.344100830078125,-0.9568328857421875,-0.394683837890625,0.0805511474609375
1761299724792223000,8.364222900390626,-0.87738037109375,-0.466949462890625,0.0326080322265625
1761299724812345000,8.384344970703125,-0.7417144775390625,-0.56256103515625,0.05523681640625
1761299724832467200,8.40446728515625,-0.9439697265625,-0.593719482421875,0.102996826171875
1761299724852588000,8.424588134765624,-1.22528076171875,-0.4167022705078125,-0.0948944091796875
1761299724872710000,8.4447099609375,-1.357177734375,-0.31951904296875,-0.051666259765625
