time,seconds_elapsed,z,y,x
1761299716493353000,0.06535302734375,1.2460106991976498,-0.36656829006969927,0.023019896787963807
1761299716513474800,0.085474853515625,1.147180322611332,-0.149981887152791,0.1518386026690714
1761299716533596200,0.10559619140625,1.0177332739651204,-0.18576281010806558,0.0775182426974643
1761299716553717800,0.1257177734375,0.5768734207600354,-0.05003448923528194,-0.3558887098189443
1761299716573838800,0.1458388671875,-0.6902057854294776,0.17630524593293667,-0.5492638215616346
1761299716593961000,0.1659609375,-0.4037590798228979,0.6423936484187841,-0.24122367177363482
1761299716614082600,0.18608251953125,0.3677998776912689,0.4165127629339695,0.35397896720748395
1761299716634204700,0.20620458984375,1.0201812516391278,0.15144786805212496,0.3551853107899427
1761299716654325500,0.226325439453125,1.025253732597828,-0.17193477576375008,-0.0569153713228181
1761299716674447600,0.246447509765625,0.9562731353521347,-0.23909049566984175,-0.6167432204641401
1761299716694568700,0.266568603515625,0.9674217213541269,-0.4201888210982084,-0.4466055207176134
1761299716714690600,0.286690673828125,0.8001531838357449,-0.34993455065488815,-0.3997079412685707
1761299716734811600,0.306811767578125,0.4437608353435993,-0.2603618317574262,-0.637058863262087
1761299716754933500,0.32693359375,0.4805845453500747,-0.3030494653612375,-0.5363910421155392
1761299716775054300,0.347054443359375,0.2843061864465475,-0.4988596222311258,0.03709262660834938
1761299716795176400,0.367176513671875,-0.1708171699106693,-0.4563701415479183,0.7858671035256236
1761299716815297500,0.387297607421875,-0.11304419537782669,-0.5537988346427679,0.9459947563134133
1761299716835419600,0.407419677734375,0.5408510902643203,-0.6451309644281864,1.2492284922003745
1761299716855540500,0.42754052734375,0.9653495912551879,-0.7273819621354342,1.8117333419986068
1761299716875662600,0.44766259765625,0.288156432133913,-0.6286807648867369,1.5870878435276448
1761299716895783400,0.467783447265625,0.6831938608407974,-0.6542629499107598,1.4193011273540557
1761299716915905500,0.487905517578125,1.6383774473905561,-1.1002625040918588,1.9022543015316127
1761299716936026600,0.508026611328125,2.824959806063771,-1.1974521277338266,2.171759078557044
1761299716956148700,0.528148681640625,3.100424514406919,-1.3865963969737292,1.673073643849045
1761299716976269600,0.54826953125,2.5095845276147126,-1.3887661422282456,0.8758741221871227
1761299716996391400,0.568391357421875,1.4993693741947411,-1.1962515197724104,0.34055838115289805
1761299717016512500,0.588512451171875,0.4535474853426218,-0.8564923261731863,0.2765226929634809
1761299717036634400,0.60863427734375,-0.4629360759347677,-0.48370823032855986,0.5160155588891356
1761299717056755500,0.62875537109375,-0.3657786009967327,-0.2938122659385204,0.6561519054625183
1761299717076877600,0.648877685546875,0.6725549779266119,-0.4411906925946474,0.9945748089566826
1761299717096998400,0.668998291015625,0.8084422887533903,-0.4690595272511244,1.4779232660621404
1761299717117120500,0.68912060546875,0.8574854288637638,-0.34612463697791096,1.2756073805600403
1761299717137241600,0.70924169921875,1.2562591214895247,-0.6186334181249141,0.8544389007747173
1761299717157363700,0.72936376953125,1.4895751254111527,-0.8786258320480584,0.37388570041097696
1761299717177484500,0.749484619140625,1.426261467885971,-1.291859427180886,-0.2380756195388734
1761299717197606700,0.769606689453125,1.115092408955097,-1.556737275058031,-0.2975434883560985
1761299717217727700,0.789727783203125,0.3710942430615425,-1.634881129707396,-0.17710436042137442
1761299717237849600,0.809849609375,-0.7101426580429077,-1.5840031753852963,-0.4814272067192942
1761299717257970700,0.829970703125,-2.242111987069249,-1.168073765297234,-1.3961997993603348
1761299717278092500,0.850092529296875,-2.6345915479868647,-0.8291077679023147,-1.6179754414834082
1761299717298213400,0.87021337890625,-2.4029285719692703,-0.4162517739102244,-0.9803770645171404
1761299717318335500,0.89033544921875,-1.9277362410515546,-0.0016717326045036314,-0.5550570180103183
1761299717338456600,0.91045654296875,-1.878404347127676,0.11426672291010617,-0.3675432725816965
1761299717358578400,0.930578369140625,-1.4666525149852037,0.13250000647604465,-0.5135540641464292
1761299717378699500,0.950699462890625,-0.6143173084914684,-0.12935323288291692,-0.7851805095009505
1761299717398821600,0.970821533203125,1.6278864485144615,-0.417751949340105,-1.1914045181326567
1761299717418943700,0.99094384765625,3.554668165320158,-0.8996890783429146,-1.3455845876276493
1761299717439064600,1.011064697265625,3.312312530374527,-0.8201222051531076,-1.5216738527223468
1761299717459186400,1.0311865234375,2.0916583907514807,0.2880497568890452,-1.356222886019945
1761299717479307800,1.051307861328125,0.4972136085897684,0.7553954659596085,-0.8291242806456982
1761299717499429400,1.071429443359375,-2.10536835167408,0.6104539110615849,-1.0116093842573464
1761299717519550500,1.091550537109375,-3.77852075984776,0.5108657018452882,-1.387900903701037
1761299717539672600,1.111672607421875,-2.7264555926918983,0.6934522200047969,-1.3282329092018306
1761299717559793400,1.13179345703125,-0.5771867244929075,0.07823299423754215,-0.6065230013534426
1761299717579915500,1.15191552734375,1.2799223211497068,-0.3151718648314476,-0.5472568656533956
1761299717600036600,1.17203662109375,2.024578074169159,-0.784649032972753,-0.7134982520811259
1761299717620158700,1.19215869140625,1.4512866035491228,-0.6740037154302001,-1.1429686962656675
1761299717640279800,1.21227978515625,0.5054845933288336,-0.19252368254512547,-0.784577282910794
1761299717660402000,1.23240185546875,-0.11234452267587185,0.066573243843019,0.19447700856998562
1761299717680522800,1.252522705078125,0.865084797951579,0.22274404876381157,0.9742970139510929
1761299717700644600,1.27264453125,1.9853309364080427,-0.04990297181010246,1.6913529585137963
1761299717720765700,1.292765625,1.9598831914186476,-0.46699236558824775,2.2388924405008552
1761299717740887600,1.312887451171875,1.3290584002405403,-0.6044228142037987,1.59834705029726
1761299717761008600,1.333008544921875,1.0409855547368525,-0.7612836472153663,0.9529616727165877
1761299717781130800,1.353130859375,1.6275620388656853,-0.9275707724809646,0.9757225897748023
1761299717801251600,1.37325146484375,2.2512182535886764,-1.3584633584231138,0.9109058342102915
1761299717821373700,1.393373779296875,1.8544331044316291,-1.502946648159623,0.6485582354631274
1761299717841494800,1.413494873046875,0.9358084394723176,-1.8708166684776544,0.7120164160255342
1761299717861616600,1.43361669921875,0.5469774641901254,-2.076049610470235,0.5939328382410108
1761299717881737700,1.45373779296875,0.2865723778128624,-2.1438249235793947,0.7834235097657889
1761299717901859800,1.47385986328125,-0.46794075235426424,-2.254534830790758,0.996561818055436
1761299717921980700,1.493980712890625,-1.546457288584113,-2.8992680280730125,0.733247273972258
1761299717942102800,1.514102783203125,-1.9475223070174454,-3.0817718363851307,0.1949299399692565
1761299717962223900,1.534223876953125,-2.8888468795627356,-2.9818019343748685,0.5982043050151318
1761299717982345700,1.554345703125,-3.811488378947973,-2.969924741837382,0.867349966404587
1761299718002466600,1.574466552734375,-4.863219199582934,-2.8476059376358984,0.7647229009490459
1761299718022588700,1.594588623046875,-4.865169164606929,-2.6250769929274913,0.6145655841641128
1761299718042709800,1.614709716796875,-4.38065780120194,-1.9057213931202888,0.3600806085508316
1761299718062831600,1.63483154296875,-4.301759621053934,-0.7116556929543614,0.3158085918324068
1761299718082952700,1.65495263671875,-3.5793057629704474,0.3046554392531514,0.8157487393092364
1761299718103074800,1.67507470703125,-1.415492821112275,0.971431249256432,1.1612285025123505
1761299718123195600,1.695195556640625,0.8181061891555785,1.0817524494111537,0.8683355433758347
1761299718143317800,1.71531787109375,1.766352669918537,0.7050137707218528,0.37627117077540606
1761299718163438800,1.73543896484375,1.946739632207155,0.8491565764576197,-0.08954287174846977
1761299718183560700,1.755560791015625,1.8076093939363955,0.7052317973867058,-0.4448180162463337
1761299718203681800,1.775681884765625,1.9736358224391937,0.8299868888244032,-0.4595822719948366
1761299718223803600,1.7958037109375,1.4391373160719871,0.8122896118313073,-0.17694591845665125
1761299718243924700,1.8159248046875,0.2997954320013523,1.1828364501431583,-0.27919169297702606
1761299718264046600,1.836046630859375,-0.4362105660945177,1.5863807181715965,-0.022135113310068844
1761299718284167700,1.856167724609375,0.1484270589262247,2.2970962076663968,0.5276088929839432
1761299718304289800,1.876289794921875,1.5876953079015015,2.1147361917391416,0.8225427102982997
1761299718324410600,1.89641064453125,2.692538710042834,1.9641174679875373,0.6412566072128713
1761299718344532700,1.91653271484375,3.135028210276365,1.852478463232517,0.2753211351539939
1761299718364653800,1.93665380859375,3.2353385962873698,1.9118389992177485,0.35215777966231104
1761299718384775700,1.956775634765625,2.9749551372200247,2.035284761622548,0.5162959832657128
1761299718404896800,1.976896728515625,2.302743273642659,1.8453069641679525,0.6370833401162177
1761299718425019000,1.997018798828125,1.2908347603082657,1.492813961201906,0.46880686766430735
1761299718445139700,2.0171396484375,0.6651110916614532,1.5227578485667705,0.18900646820440886
1761299718465261800,2.03726171875,0.5790735611528158,1.2455723077803849,0.09966251656152307
1761299718485383000,2.0573828125,0.4105564848780632,0.9767331550568341,-0.208696964841336
1761299718505504500,2.07750439453125,-0.09103343909978866,0.643615299168229,-0.2384306435216218
1761299718525625600,2.09762548828125,-1.1090361776560544,0.6670563805103301,-0.3301503843851387
1761299718545747700,2.117747802734375,-1.9178812019914389,0.65227645226866,-0.5686429141618311
1761299718565868500,2.13786865234375,-2.5629028608262536,0.39403818853646516,-0.6996072355031967
1761299718585990700,2.15799072265625,-2.545371295788884,0.07284808632880449,-0.4165747222542763
1761299718606111200,2.178111328125,-2.6536802793383596,0.08035480869710444,-0.04256824500784278
1761299718626233300,2.1982333984375,-2.94171103926599,0.38116497069895267,0.41155886685363946
1761299718646355500,2.21835546875,-3.8037937327921387,0.9931254869312047,0.3735756115484983
1761299718666476300,2.238476318359375,-4.36312506712079,1.008610056310892,-0.8992926263712346
1761299718686598400,2.258598388671875,-2.900762942805886,0.9802350256979465,-1.8239736687600612
1761299718706719500,2.278719482421875,0.058448681837320327,0.40440205390155315,-1.6619748883381484
1761299718726841000,2.298841064453125,2.3698750281512737,-0.21879531113803385,-1.430047416165471
1761299718746962400,2.31896240234375,2.9627497356414794,-0.46490620696395635,-1.1094757381170988
1761299718767084300,2.339084228515625,2.3319518324702977,-0.5380035918787122,-1.272049688078463
1761299718787205000,2.359205078125,1.3790999037384986,-0.7225447512373327,-1.7180543568260966
1761299718807327200,2.3793271484375,1.237899288934469,-0.7613555434077978,-1.5520213524520396
1761299718827448300,2.3994482421875,1.5233733501166105,-0.7019283719271421,-1.2077874976567924
1761299718847570200,2.419570068359375,1.311716804817319,-0.565199349579215,-0.119964642290771
1761299718867691300,2.439691162109375,1.695320400840044,-0.5683107595980167,0.7577967549476772
1761299718887813400,2.4598134765625,2.364164249289036,-0.8964908668234944,0.9615222880519926
1761299718907934200,2.479934326171875,2.677313083860278,-1.2774343037262559,0.9066183661494404
1761299718928056300,2.500056396484375,2.294113392463326,-1.581118267598748,0.7741895252134651
1761299718948177400,2.520177490234375,1.430564133515954,-1.495203194426,1.0342059775993226
1761299718968299300,2.54029931640625,0.8019482505589723,-1.5209446616649627,1.8649295101352035
1761299718988420400,2.56042041015625,0.6764110688328743,-2.161545289187133,2.980243891277909
1761299719008542200,2.580542236328125,0.14601239899992943,-2.779198171842098,3.714323597486317
1761299719028663300,2.600663330078125,-1.7141624639540909,-3.0102754569262262,4.345256817474961
1761299719048785200,2.62078515625,-4.006117217078804,-2.7052409552276133,4.092610090139508
1761299719068906200,2.64090625,-4.382999395892024,-2.2890903036043047,3.4224212568223473
1761299719089028400,2.6610283203125,-3.868815363278985,-1.7255942508116364,3.415270216023922
1761299719109149200,2.681149169921875,-3.2106109822660684,-0.9733218853086233,3.5315254824027416
1761299719129271300,2.701271240234375,-2.66037480854094,-0.43746553459167475,3.3204204335063694
1761299719149392400,2.721392333984375,-2.3814368711292744,0.05416121377646923,3.0450393117934462
1761299719169514200,2.74151416015625,-1.8460943151533602,0.588097994607687,3.559996082344651
1761299719189635300,2.76163525390625,-1.2490227404952048,1.3141869943231343,3.808284029948711
1761299719209757400,2.78175732421875,-0.7273965751826763,1.5325328081279992,4.008053153577447
1761299719229878300,2.801878173828125,-0.7921271137684583,1.5762971310526133,3.784571145927906
1761299719250000100,2.822000244140625,-0.6116285077989101,1.7059125220030544,4.028972315226495
1761299719270121200,2.842121337890625,-0.5235772993803024,1.5479296992242335,4.909319856500625
1761299719290243300,2.862243408203125,-1.4471224696069955,1.8915327087700367,5.555808080756664
1761299719310365200,2.882365234375,-2.524367670726776,2.8083529546558856,5.193996629825234
1761299719330486300,2.902486328125,-2.974225653901696,3.62247621165514,4.5335754495456815
1761299719350608400,2.9226083984375,-2.884979682740569,4.217700989402831,5.075224704450369
1761299719370729200,2.942729248046875,-2.1923171518087385,3.958737918527424,4.674254378563165
1761299719390851300,2.962851318359375,-0.8166530677378178,3.1451582668855784,3.4298043528109785
1761299719410972400,2.982972412109375,0.7988263191461563,2.0979212505385276,2.3570463801078496
1761299719431094500,3.003094482421875,1.0125561635881661,1.3504293973103165,1.0091625756271183
1761299719451215400,3.02321533203125,0.5403770430117846,1.0047332148775459,0.09508037640303373
1761299719471337200,3.043337158203125,-0.17111644511818885,0.6149862937942147,0.07784165683239698
1761299719491458300,3.063458251953125,-0.5718681598186492,0.8787433209478854,0.3733057816311717
1761299719511580200,3.083580078125,-0.6704004302412271,0.9602043373212218,0.5173397201649844
1761299719531701200,3.103701171875,-1.1246791524678468,0.9203621562764048,0.40317981863021846
1761299719551823400,3.1238232421875,-1.3424766847401857,0.8201295116767287,0.19113631983995436
1761299719571944200,3.143944091796875,-1.378440563046932,0.7618813208475709,0.10283391313925384
1761299719592066300,3.16406640625,-1.0385253021031617,0.722122726432979,-0.25527649131715296
1761299719612187000,3.184186767578125,-0.8877338521331548,0.6784650787532329,-0.8759521558593958
1761299719632308700,3.204308837890625,-1.687384347143769,0.637833793157339,-1.6496382615953682
1761299719652429800,3.224429931640625,-2.265176636314392,1.2357444489881395,-1.9418615047767758
1761299719672552000,3.244552001953125,-2.2396733617454765,1.5472548687025904,-2.094579246634245
1761299719692672800,3.2646728515625,-1.7325170358121393,1.9515753818005321,-2.182562358252704
1761299719712795000,3.284794921875,-0.999219712153077,1.6357447607994078,-1.6537448201313614
1761299719732916000,3.304916015625,-0.7012877359360457,1.6901882986485957,-0.9713472242347896
1761299719753037800,3.325037841796875,-0.9738134682178496,1.944802234403789,-0.19124979015178978
1761299719773159000,3.345158935546875,-1.603996454361081,2.279730939106643,-0.11449833970889449
1761299719793280800,3.36528076171875,-0.46960839330554005,2.1563979894265533,-0.975545771903172
1761299719813401900,3.38540185546875,1.4472493108570574,1.5329241455331444,-1.3176590543478726
1761299719833523700,3.405523681640625,2.7294851696461437,0.5745420552030205,-2.2407328076705335
1761299719853644800,3.425644775390625,2.6616046425968407,0.02736439226567745,-1.931719173207879
1761299719873767000,3.445766845703125,1.7714128759175538,-0.31957068431228397,-1.7319950577646492
1761299719893887700,3.4658876953125,0.8661281695246696,-0.3642529988646507,-0.8115841669756919
1761299719914009900,3.486009765625,0.5531266344696283,-0.5530132372230291,0.2571467421684414
1761299719934132000,3.506132080078125,-0.23703999288082123,-0.24332652580440042,0.9857407835073768
1761299719954252800,3.526252685546875,-0.4473199891299009,-0.03336012554913759,1.6686349307492374
1761299719974374700,3.546374755859375,0.46322658331394195,-0.34188626875579353,1.6536903134651482
1761299719994495700,3.566495849609375,2.1249381445407867,-0.7246092825517058,1.2838408097676932
1761299720014617900,3.586617919921875,2.935731964856386,-1.0994926887631415,1.3469126213610172
1761299720034738700,3.60673876953125,2.6689357161372897,-1.147652031776309,1.2707736767932771
1761299720054860800,3.62686083984375,2.123468071988225,-1.1764207378819584,0.9510811196669936
1761299720074982000,3.64698193359375,1.3018588431477547,-1.2518933274954556,0.801361025255546
1761299720095103700,3.667103759765625,1.0870721831291914,-1.401945649535954,0.5215002373779192
1761299720115224800,3.687224853515625,0.8975216711759567,-1.6341569070860742,0.29626897490825504
1761299720135347000,3.707346923828125,0.600132715794444,-1.575310750363767,0.5658670197077095
1761299720155467800,3.7274677734375,-0.009336568143963813,-1.66423786483407,1.0181154051505028
1761299720175590000,3.74758984375,-1.468259365659952,-1.8644690530166028,1.4650896495826542
1761299720195711000,3.7677109375,-3.174601511251926,-1.8789961755409836,1.30660939867571
1761299720215832800,3.787832763671875,-3.3862586410731077,-1.759383123166859,0.4483799099789932
1761299720235954000,3.807953857421875,-2.300962235444784,-1.8789821470156312,-0.22445878025982527
1761299720256075800,3.82807568359375,-1.2976315808415413,-2.0133406408399344,-0.419021786612831
1761299720276196600,3.848196533203125,-1.029899512577057,-1.974591807989776,0.15063808603920043
1761299720296318700,3.868318603515625,-1.266473056989908,-1.9373954652786254,1.0227129620738327
1761299720316439800,3.888439697265625,-2.54377496650815,-1.315030751670897,0.5976862724903971
1761299720336562000,3.90856201171875,-3.660900342595577,-0.3043704848319292,-0.15742816630443557
1761299720356682800,3.928682861328125,-3.2406226741701363,0.6558674624979496,-0.46106297553926706
1761299720376804900,3.948804931640625,-0.8688397665709257,1.0561182419389485,-0.5320084431171417
1761299720396926000,3.968926025390625,1.3152403027683495,1.1166337931782007,-0.354289530993998
1761299720417047800,3.9890478515625,2.2825965576708316,1.117668396922946,-0.20317138808658344
1761299720437167900,4.00916796875,1.8627818305820225,1.1384995880275963,-0.9020261429883539
1761299720457290000,4.0292900390625,0.9592869302153587,0.7144771801158786,-2.2443438377745446
1761299720477410800,4.049410888671875,0.0802916803330183,0.5711088658839464,-2.912861376878619
1761299720497533000,4.069532958984375,-0.9216256003409623,0.9868404153123498,-2.5451801571309565
1761299720517654000,4.089654052734375,-1.1484849754691124,1.7497163001552223,-1.6987790168613195
1761299720537775900,4.10977587890625,-0.714485655683279,2.3929820552334187,-0.47493506822101766
1761299720557897000,4.12989697265625,0.07741933976709842,2.8395415813848373,-0.05295852345582097
1761299720578018800,4.150018798828125,1.0105524225503206,2.8516791784241793,-0.24704317170735446
1761299720598139600,4.1701396484375,1.8743296450346707,2.789465006573498,-0.16228939739894122
1761299720618262000,4.190261962890625,1.84096572009325,2.9395541534930465,-0.014328531212359667
1761299720638383000,4.210383056640625,1.6339812582582234,3.0895728655248877,-0.3112524263653904
1761299720658505000,4.2305048828125,1.0833423489511012,2.757255220103264,-0.1658343399967998
1761299720678627000,4.250626953125,-0.14355331541001795,2.5441484759956596,-0.22506956910192966
1761299720698748200,4.270748046875,-0.4765069206476211,2.6930677023530003,-0.8568776722289622
1761299720718870000,4.2908701171875,0.2739841143965721,2.0737772816240785,-1.3945888570323586
1761299720738991000,4.3109912109375,1.239592648848891,0.9600228432744741,-2.2302320180527864
1761299720759113000,4.331113037109375,1.2901613910913468,0.38513036719858645,-2.6838971384257078
1761299720779234000,4.351234130859375,0.5174772289395332,0.6947767466068268,-2.101550693082064
1761299720799356000,4.37135595703125,-0.6061234806418418,1.0808020168185233,-0.942938218287006
1761299720819479000,4.39147900390625,-1.7322633533120155,1.243214930999279,-1.1617440508190542
1761299720839600000,4.41160009765625,-1.8313094184756278,0.7459808641433715,-2.515534960451722
1761299720859722200,4.43172216796875,-1.8346873704761266,0.22852935416698456,-3.7642213085994123
1761299720879843800,4.45184375,-2.3078321212142705,0.7038888583451509,-4.109020542192459
1761299720899965000,4.47196484375,-3.6776194222062824,1.8813216958791017,-3.389355730305612
1761299720920087000,4.492087158203125,-4.427117939081787,3.2018560134023426,-2.516737906500697
1761299720940207900,4.512207763671875,-3.540240411517024,3.759894969832897,-2.1355822881519795
1761299720960330000,4.532330078125,-1.1993459786564111,3.2589421747148033,-2.698036722937226
1761299720980451000,4.552451171875,0.23029344123005865,2.6033929843857884,-2.852707644689083
1761299721000573200,4.5725732421875,0.20801672749221323,2.2785855684638023,-2.840014167332649
1761299721020694000,4.592694091796875,-0.3111889326751232,2.2818629826992747,-2.3581015882492062
1761299721040816000,4.612816162109375,-0.12385960390269755,1.7960317688673733,-1.7064564196214078
1761299721060937000,4.63293701171875,0.9972978041797875,1.1685358298510313,-1.495111716750264
1761299721081059000,4.65305908203125,2.256981639420986,0.46745764501243825,-1.8665493664219974
1761299721101180200,4.67318017578125,0.829321410652995,0.69343731469661,-1.926019500261545
1761299721121302000,4.693302001953125,-0.5998597440719604,1.7650228826195,-0.5341031869066879
1761299721141423000,4.713423095703125,-0.2497667879849672,1.8796333044007418,1.2023695642612873
1761299721161545000,4.733544921875,1.2484621840029955,0.8801517264410853,2.2433147869877517
1761299721181666000,4.753666015625,2.1542834814906118,-0.15311200187206267,2.041158037570119
1761299721201788000,4.773787841796875,1.952594203454256,-0.8432114043176173,1.8872955095916986
1761299721221909000,4.793908935546875,1.5234756414473056,-1.218561551257968,2.389035363434255
1761299721242031000,4.814031005859375,0.6193097099512815,-1.7420508800938725,2.7575495268747208
1761299721262153200,4.8341533203125,-0.4211170418590307,-2.5004846908360716,3.2701512587323784
1761299721282274000,4.854274169921875,-0.75075816154778,-3.275481806105375,3.648653147701919
1761299721302396200,4.874396240234375,-1.239451194551587,-3.870403509253263,3.2466949798211453
1761299721322517200,4.894517333984375,-1.9499404740750788,-4.158753418132663,2.668058641041815
1761299721342638800,4.914638916015625,-2.8758623103052376,-4.23941977699697,2.331568678371608
1761299721362760200,4.93476025390625,-3.58801104747355,-4.547373088751733,2.2735582418210805
1761299721382882000,4.954882080078125,-4.563326152426004,-4.25902171856761,2.2908245800510048
1761299721403003000,4.9750029296875,-5.5760681939750905,-3.5549896523594855,2.5007073936760422
1761299721423125000,4.995125,-5.325025394704937,-2.738460503262281,1.9285642163082957
1761299721443246000,5.01524609375,-3.96662516464591,-2.6201921434953808,0.6382879666656255
1761299721463368000,5.035367919921875,-3.8897377397984263,-1.8051140699893236,0.34382921951711176
1761299721483489000,5.055489013671875,-3.693959731632471,0.1851303574234247,1.0548813936203718
1761299721503611100,5.075611083984375,-2.864654687592387,1.43958885923177,1.341701170323044
1761299721523732000,5.09573193359375,-1.2999737600535153,1.6113234362483024,0.772192579242587
1761299721543854000,5.11585400390625,0.4546668447613716,1.470937644958496,-0.21693806589879094
1761299721563975200,5.13597509765625,2.0741502065896986,1.3627736228376626,-0.5252941863007843
1761299721584097000,5.156096923828125,3.135264941641688,1.1866115847676992,-0.3965291285693645
1761299721604218000,5.176218017578125,3.3580227266699074,1.1624039029672741,-0.230688651092723
1761299721624340500,5.196340576171875,2.8880507607489823,1.0437322230964898,-0.060216129901260136
1761299721644462600,5.216462646484375,2.1904951970785853,0.8780217286750673,-0.08083908508270979
1761299721664583700,5.236583740234375,1.3311322839051485,1.2336138667002319,-0.4754341037843376
1761299721684705500,5.25670556640625,0.8830261128336191,1.5501280860513449,-0.77122183451429
1761299721704826600,5.27682666015625,1.5206225901037453,1.7470076257184146,-0.7530491220291704
1761299721724948700,5.29694873046875,2.44062088150382,1.92806181974411,-0.18323351082615552
1761299721745069600,5.317069580078125,3.0789906812340018,1.8794518103539943,0.28517668567076326
1761299721765191700,5.337191650390625,3.390535587739944,1.613045437735319,0.4504506883710623
1761299721785312800,5.357312744140625,2.9594366655707356,1.3955907275512813,0.29530739986710247
1761299721805434400,5.377434326171875,1.8739397689342498,1.8360864236190915,0.47419148331210015
1761299721825555500,5.397555419921875,1.2475427310705185,1.7825865963608025,0.6363724884331226
1761299721845677600,5.417677490234375,0.6432850443005561,1.7042969034999609,-0.24377222374528645
1761299721865798400,5.43779833984375,-0.18799217659533024,1.8334920232117176,-0.8600874280557036
1761299721885920500,5.45792041015625,0.02422258710861206,1.763193621365726,-0.5788992274992167
1761299721906041600,5.47804150390625,0.025049101060628888,1.245402504171431,-0.3521425820931792
1761299721926163700,5.498163818359375,-0.9124795863330364,1.4226158048599957,-0.9038409373253583
1761299721946284500,5.518284423828125,-0.9532067335188388,1.7086533451437949,-0.7811563685514032
1761299721966406700,5.53840673828125,-0.14745207641422747,1.4556070970967412,-0.982887147641927
1761299721986528500,5.558528564453125,-0.3382593104302883,0.8169383144199848,-1.2456854127660393
1761299722006649600,5.578649658203125,-1.7080816827356815,0.437481901204586,-1.664995405203104
1761299722026771500,5.598771484375,-2.5844705495119094,0.29498189423978327,-1.9754605536483227
1761299722046892500,5.618892578125,-3.50943727697432,0.4046455072686076,-1.4036163592271507
1761299722067014700,5.6390146484375,-4.567525357681513,0.4032634052604437,-1.6573266241408884
1761299722087135500,5.659135498046875,-4.8645367119222875,0.9259840878114104,-2.307501281824708
1761299722107257600,5.679257568359375,-2.8180308835834262,0.6702911246478557,-2.418801994536072
1761299722127378700,5.699378662109375,0.3469903138965368,-0.04478489814400673,-1.9370641874976455
1761299722147500500,5.71950048828125,2.664897254401445,-0.8839064027994871,-1.2235861014217138
1761299722167621600,5.73962158203125,2.860941220027208,-1.1804203289121389,-1.1385326135143636
1761299722187743700,5.75974365234375,1.6221306614667177,-1.214651976598799,-1.5922130775868892
1761299722207864600,5.779864501953125,0.2977531125187874,-0.8010951408609748,-1.1136648603700101
1761299722227986700,5.799986572265625,-0.303190335136652,-0.27232845614403484,-0.3059564388491213
1761299722248107800,5.820107666015625,-0.17178864529132842,0.1857163406178355,0.5458959525637328
1761299722268229400,5.8402294921875,0.7129138763219117,0.3046446255981922,1.2407409421011806
1761299722288351500,5.8603515625,1.7944570668965576,0.08921966767609119,1.2053980452369897
1761299722308472600,5.88047265625,2.612032510176301,-0.03849661165475845,0.8728499520603566
1761299722328594700,5.9005947265625,3.424703230279684,-0.1392275611653924,0.7511880043324083
1761299722348715500,5.920715576171875,3.518531268534064,-0.35812808624356984,0.6960230203408747
1761299722368837600,5.940837646484375,3.278468128439784,-0.49556817947030063,0.42838228362165387
1761299722388958700,5.960958740234375,2.483689623379707,-0.8452712594568729,0.11614479174166917
1761299722409080600,5.98108056640625,1.6286211925297975,-1.0754077565595508,0.13614961502477527
1761299722429201700,6.00120166015625,0.9733405900090932,-1.477500656735897,0.44767632828690107
1761299722449323800,6.02132373046875,-0.18744623315036296,-1.7552078833088278,1.1115838163122533
1761299722469444600,6.041444580078125,-1.5235533828586338,-1.8505004411578176,1.5108499686300754
1761299722489566500,6.06156640625,-2.709029241594672,-2.0680071737900376,1.176041090914607
1761299722509687600,6.0816875,-3.8913112727254626,-2.024919142691791,0.7808347353816032
1761299722529809400,6.101809326171875,-4.163323794788122,-2.278305874739587,1.3312640935912727
1761299722549930500,6.121930419921875,-4.301321814158559,-2.679411225183308,1.5553370528712869
1761299722570052600,6.142052490234375,-4.776602992403507,-2.6664538361936807,1.2264505509421229
1761299722590173400,6.16217333984375,-5.659724382305145,-1.7272914101183414,0.6439089483525604
1761299722610295600,6.182295654296875,-5.752099883663654,-0.387357980120182,0.3453315138388425
1761299722630417400,6.20241748046875,-3.74373820028007,0.7873471860155463,0.606343260872364
1761299722650538500,6.22253857421875,-0.7522814255923033,0.918992913749814,1.1579377173386514
1761299722670660600,6.24266064453125,1.044239588096738,0.8734814548969269,1.6001942855991422
1761299722690781400,6.262781494140625,2.019760444754362,0.5609484141364693,1.4383463118247688
1761299722710903300,6.2829033203125,2.326872337248921,0.34564942068159576,0.5830817738808691
1761299722731024400,6.3030244140625,2.387875964266062,0.33640608377903697,-0.32825266100503503
1761299722751146500,6.323146484375,2.5049761570364235,0.24934300961494443,-0.8188894484877586
1761299722771267300,6.343267333984375,2.1603975804567335,0.5020879366278648,-0.49671325785219667
1761299722791389400,6.363389404296875,1.1723247007399797,1.1450155457928777,0.2705230872225016
1761299722811510500,6.383510498046875,0.40489889750778674,1.602836178410053,1.026337874572724
1761299722831632400,6.40363232421875,0.6075561437934637,1.7699734907642006,1.3704483952492474
1761299722851753500,6.42375341796875,1.2102198393702506,1.5738450617253779,0.8627275673009455
1761299722871875600,6.44387548828125,1.4778542924791573,1.4878919946298002,0.5810031409759074
1761299722891997700,6.463997802734375,1.471866450241208,1.5658102238297462,0.8063730812638997
1761299722912118500,6.484118408203125,1.6862532972872257,1.5257105608925223,0.6299257965117693
1761299722932240400,6.504240478515625,2.0911200460910795,1.5289222164154053,0.40075785218030213
1761299722952361500,6.524361572265625,1.7771178095608948,1.17283703417629,0.35051600380465386
1761299722972483300,6.5444833984375,1.274373454850912,1.0242840107828377,0.46963192031159995
1761299722992604400,6.5646044921875,0.7021510747671127,1.114954754050076,0.4033412928022444
1761299723012726500,6.5847265625,0.11650982566177845,1.2857245776876807,0.11554857941418885
1761299723032847400,6.604847412109375,-0.07251344754695892,0.9481745845705271,-0.07488529124483466
1761299723052969500,6.624969482421875,-0.735099404644966,1.0013538015723227,-0.2930189236037433
1761299723073090600,6.645090576171875,-1.9248218149095773,1.2670134474769235,-0.5320370846897363
1761299723093212400,6.66521240234375,-2.227598893070221,0.8783332788422703,-0.552563009237498
1761299723113333500,6.68533349609375,-1.9632517910689113,0.6499456712335347,-0.5604524473130703
1761299723133455600,6.70545556640625,-2.005864021348953,0.5204159127399325,-0.7819554099746048
1761299723153577500,6.725577392578125,-2.5507179175138472,0.4885930797606706,-0.9372526469312608
1761299723173698300,6.7456982421875,-3.496051141178608,1.2008806408777832,-0.37357889948412776
1761299723193820400,6.7658203125,-3.6247979326009747,1.5770970492586494,0.4233505730647594
1761299723213941500,6.78594140625,-2.092653831529617,1.2066487028852104,-0.3117573802128434
1761299723234063400,6.8060634765625,-0.6562596766859292,0.6643441989421844,-1.3304855104342102
1761299723254184400,6.826184326171875,0.4427227244675159,-0.1288555124938488,-2.1037829821787772
1761299723274306600,6.846306640625,1.0146236175119876,-0.6755512371331452,-2.299703905946761
1761299723294427400,6.866427490234375,0.9169126003444195,-0.7884791126549243,-1.9442068988591432
1761299723314549500,6.886549560546875,0.6380518198221922,-0.5974781096324324,-1.0704231730800122
1761299723334670600,6.906670654296875,0.3400152141869068,-0.31961715380251404,-0.0768575411658734
1761299723354792400,6.92679248046875,0.5414303514569997,-0.12198591898530721,0.2330711623150855
1761299723374913500,6.94691357421875,1.2717822693139313,-0.36781770560890437,-0.020489611125364897
1761299723395035400,6.967035400390625,2.5415169584482906,-0.48233664971441026,-0.23327077654041348
1761299723415157500,6.987157470703125,3.3974580804795025,-0.5120081498786807,-0.22777210605889558
1761299723435278300,7.0072783203125,4.4037516765415665,-0.49824353615939615,0.01607891854364425
1761299723455400400,7.027400390625,4.877311437821388,-0.5765300141498446,0.40840065855104474
1761299723475521500,7.047521484375,4.116204316216707,-0.6114207102671265,1.042002476694435
1761299723495643400,7.067643310546875,2.8828806646347043,-0.6214625040709972,1.4358672083601354
1761299723515764500,7.087764404296875,1.5131348646968603,-0.8223927804335951,1.821547318395972
1761299723535886600,7.107886474609375,0.5082973126620054,-1.0710825868368148,1.9804078007921575
1761299723556007400,7.12800732421875,-0.4479033419758081,-1.7675193756103516,2.150396703185141
1761299723576129500,7.148129638671875,-2.3516490511089563,-2.029669552089274,1.9268067051164806
1761299723596250600,7.168250732421875,-4.170141073587536,-2.1401249000176787,1.098528300710395
1761299723616372200,7.188372314453125,-4.588012265393138,-2.554084471337497,0.3182663237154484
1761299723636494000,7.208494140625,-4.200512246453762,-3.2437314538404345,0.6774928727202117
1761299723656615000,7.228614990234375,-4.424263718694448,-4.021045613880455,1.3823361091807485
1761299723676737000,7.248737060546875,-5.374170241624117,-3.5238010256305334,2.810356695693731
1761299723696857900,7.26885791015625,-5.879124089077115,-1.843060646545887,3.533770630981028
1761299723716980000,7.28897998046875,-4.818343116024137,-0.5811760863900184,2.6113673242658377
1761299723737101000,7.30910107421875,-3.744693893569708,0.5375795212477446,3.5339182227581736
1761299723757223200,7.32922314453125,-2.831705773192644,2.194479882800579,5.881097434976697
1761299723777344000,7.349343994140625,-1.7531360454708336,2.956291937804222,6.516141305154561
1761299723797466000,7.369466064453125,-0.09763327575623988,3.5012732597410676,5.730843160623311
1761299723817587200,7.389587158203125,1.8005623980343342,3.3019214847415683,4.170309415891766
1761299723837709000,7.409708984375,3.0438509787917134,2.909010546669364,3.1924250449731946
1761299723857831000,7.429830810546875,2.751607569605112,2.5910049197167155,2.6234043835401533
1761299723877952000,7.449951904296875,1.269593234837055,2.99389423096776,2.387616144286096
1761299723898074000,7.47007421875,-0.9430050729781388,3.228674462223053,2.360888588619232
1761299723918195000,7.49019482421875,-1.6940625097334383,2.8549802657961845,2.3958301381409166
1761299723938317000,7.510317138671875,-1.453414263227582,2.645572376206517,2.0764507386170328
1761299723958438100,7.530438232421875,-0.2867132475882768,2.287903431907296,1.65514591910094
1761299723978560000,7.55056005859375,1.1999983050853014,2.006013074430823,1.2719327837005256
1761299723998681000,7.57068115234375,2.067200825843215,1.8764017751336097,1.577481664662063
1761299724018803200,7.59080322265625,1.8973159683465957,2.161754255762696,2.1870830505475403
1761299724038924000,7.610924072265625,1.761333964973688,2.090986775100231,1.9394974059939383
1761299724059046100,7.631046142578125,1.6567583227336407,1.738845654311776,1.3518331266283987
1761299724079167200,7.651167236328125,0.7532669294983149,1.4628367560893296,0.752287563072145
1761299724099288800,7.671288818359375,-0.9143757753431796,1.476017724701762,0.20793606347143648
1761299724119411000,7.691410888671875,-1.8861001623272895,1.4345651858508586,-0.010296060825884341
1761299724139532000,7.711531982421875,-2.19695825561285,1.465747382839024,-0.2345474454127252
1761299724159654100,7.731654052734375,-2.2223720983326434,1.1184130778104067,-0.6189088740654289
1761299724179775000,7.75177490234375,-2.2298393654733895,0.8702759368538856,-0.7183845628179609
1761299724199897000,7.77189697265625,-2.1354905182152986,-0.04651449841558933,-0.8356285479731858
1761299724220018200,7.79201806640625,-2.4647201344937084,0.21228052241653203,-1.0626295235291123
1761299724240140000,7.81214013671875,-3.279213393849134,0.9089958358705044,-0.9043614540681243
1761299724260261000,7.83226123046875,-3.091789957052469,1.3707555615022777,-0.24055253104642033
1761299724280383200,7.85238330078125,-1.4222791202515364,0.9165268158972263,0.43222266550213095
1761299724300504000,7.872504150390625,-0.019821137279272077,0.31302257784307,1.1206446362547575
1761299724320626000,7.8926259765625,0.027104864546656608,-0.018406009784340857,2.5914921187117694
1761299724340748000,7.912748046875,-0.4452554578155279,-0.4845470192402601,3.553045240293443
1761299724360868900,7.932868896484375,-1.0091828877627849,-1.1387509324401617,3.1150030748575923
1761299724380991000,7.952990966796875,-1.6251403646767137,-1.7328493365064261,1.270308835760504
1761299724401112000,7.973112060546875,-2.3077707464158532,-1.9122680382847785,0.3776239370912313
1761299724421234200,7.993234130859375,-1.471161516842246,-1.7640984612509607,1.1241286789782345
1761299724441354000,8.01335400390625,-0.041485856598615645,-1.7696999345198272,2.30361830291152
1761299724461475000,8.03347509765625,0.7117056695759296,-1.2708484955951571,2.483505791245401
1761299724481597000,8.053596923828126,1.0731985560774802,-0.9139937902882694,1.8853714096613228
1761299724501718000,8.073718017578125,1.2571014175325632,-0.6285197291061282,1.4868939235031604
1761299724521840000,8.093840087890625,1.827159313058853,0.025467326472699642,1.6595735262848437
1761299724541961000,8.1139609375,1.2943863153100013,0.31286475693285465,1.9542399248346685
1761299724562083000,8.1340830078125,0.37237668408751484,1.1728174526929855,1.2847493029147385
1761299724582204200,8.1542041015625,0.3288216199994087,1.0751984977230429,1.0192090456061065
1761299724602326300,8.174326171875,1.1119839215457439,0.17712269979566334,0.34931174258142705
1761299724622447000,8.194447021484375,1.7146739206075667,-0.04827653965204954,0.02836480147987604
1761299724642569000,8.21456884765625,1.1103659649550914,-0.11903145309388637,0.4058795791082084
1761299724662691000,8.234691162109375,0.3917284502893686,0.17997984279245138,0.8633129659734666
1761299724682812000,8.25481201171875,-0.03068623016476631,0.44998160955458877,0.8091749138768762
1761299724702934000,8.27493408203125,-0.23324293868541715,-0.009974866047501564,0.46418951006196435
1761299724723055000,8.29505517578125,-0.7608826651990414,-0.46637657177746294,0.2739358182754367
1761299724743177000,8.315177001953124,-0.9770902979314326,0.10247837769985198,0.5114042657013982
1761299724763298000,8.335298095703125,-0.940847018161416,0.5656149446427822,1.2440396913856266
1761299724783420200,8.355420166015625,-0.44997254946529863,0.4314025812909007,1.2240993116408585
1761299724803541000,8.375541015625,0.6144868198394775,-0.2614107562884688,0.8112829920720308
1761299724823663000,8.3956630859375,1.4937527033567428,-1.1975187632292508,1.3138545474983752
1761299724843785000,8.415784912109375,-1.8628221625924108,-0.6750187376916408,1.0661449843041597
1761299724863906000,8.435906005859374,-4.155452038499713,0.7477557648614048,-0.3540175091195851
