time,seconds_elapsed,z,y,x
1761299716482036000,0.054035888671875,0.1714700162410736,-0.1874157041311264,0.3008783459663391
1761299716502157000,0.074156982421875,0.18174077570438385,-0.08180511742830276,0.09316429495811462
1761299716522279000,0.09427880859375,0.184291273355484,-0.06276191771030426,-0.12594620883464813
1761299716542400000,0.11439990234375,0.14709889888763428,-0.12328358739614487,-0.23233070969581604
1761299716562521900,0.13452197265625,0.046535808593034744,-0.18595309555530548,-0.0663907378911972
1761299716582643000,0.154642822265625,0.001651692553423345,-0.13481692969799042,0.24666890501976013
1761299716602765600,0.174765625,0.07381030917167664,-0.12581278383731842,0.3921094536781311
1761299716622886700,0.19488671875,0.16550907492637634,-0.19801294803619385,0.27748486399650574
1761299716643008500,0.215008544921875,0.16597884893417358,-0.19988702237606049,0.09864827990531921
1761299716663129600,0.235129638671875,0.10208722203969955,-0.014451377093791962,-0.08995545655488968
1761299716683251700,0.255251708984375,-0.007676295470446348,-0.02684626169502735,-0.16175320744514465
1761299716703372500,0.27537255859375,-0.07887404412031174,-0.17689062654972076,-0.1796557754278183
1761299716723494700,0.29549462890625,-0.15453524887561798,-0.15669506788253784,-0.19450902938842773
1761299716743615700,0.31561572265625,-0.23878221213817596,0.04518851637840271,-0.2497837394475937
1761299716763737300,0.3357373046875,-0.30450716614723206,0.10885351151227951,-0.3252233564853668
1761299716783858400,0.3558583984375,-0.22427251935005188,0.03250734135508537,-0.25496676564216614
1761299716803980500,0.37598046875,-0.028507275506854057,-0.0019885823130607605,-0.07865779101848602
1761299716824101400,0.396101318359375,0.1936837136745453,-0.13153831660747528,0.06446527689695358
1761299716844223500,0.416223388671875,0.4509812891483307,-0.3519769608974457,0.22808057069778442
1761299716864344600,0.436344482421875,0.6024413704872131,-0.38844361901283264,0.49920448660850525
1761299716884466700,0.456466796875,0.5870741605758667,-0.25300297141075134,0.8135166168212891
1761299716904587500,0.47658740234375,0.513755738735199,-0.09118077903985977,0.8532517552375793
1761299716924709600,0.496709716796875,0.4965927302837372,0.044619932770729065,0.5525856614112854
1761299716944830700,0.516830810546875,0.5034141540527344,0.20390412211418152,-0.05476577579975128
1761299716964952600,0.53695263671875,0.41750243306159973,0.4158896207809448,-0.7228453159332275
1761299716985073700,0.55707373046875,0.30044105648994446,0.5247199535369873,-1.1149542331695557
1761299717005195500,0.577195556640625,0.21243609488010406,0.5666418671607971,-1.18741774559021
1761299717025316400,0.59731640625,0.20583970844745636,0.5388014316558838,-0.8709540963172913
1761299717045438500,0.6174384765625,0.28923553228378296,0.4220646917819977,-0.3763432800769806
1761299717065559600,0.6375595703125,0.373175710439682,0.3256835639476776,-0.05433700978755951
1761299717085681400,0.657681396484375,0.52951580286026,0.3147302567958832,0.0470585897564888
1761299717105802500,0.677802490234375,0.7167242765426636,0.3531034588813782,0.17614813148975372
1761299717125924600,0.697924560546875,0.8172242641448975,0.28191930055618286,0.26111656427383423
1761299717146045400,0.71804541015625,0.8508821129798889,0.10142382979393005,0.19705288112163544
1761299717166167600,0.73816748046875,0.7700455784797668,-0.02774401381611824,0.002478870330378413
1761299717186288600,0.75828857421875,0.6228997707366943,-0.16512849926948547,-0.28033366799354553
1761299717206410800,0.77841064453125,0.562767744064331,-0.27011775970458984,-0.6006578803062439
1761299717226531600,0.798531494140625,0.5392629504203796,-0.33066368103027344,-0.8373793363571167
1761299717246653400,0.8186533203125,0.46355539560317993,-0.20428122580051422,-0.8009398579597473
1761299717266774500,0.8387744140625,0.26235225796699524,-0.06261944025754929,-0.5869479179382324
1761299717286896400,0.858896484375,0.11524803191423416,0.017527062445878983,-0.40523165464401245
1761299717307017500,0.879017578125,0.13630670309066772,0.03621233254671097,-0.2882360517978668
1761299717327139600,0.8991396484375,0.2840503752231598,-0.06326738744974136,-0.11125382035970688
1761299717347260400,0.919260498046875,0.434969037771225,-0.31109341979026794,0.17160505056381226
1761299717367382500,0.939382568359375,0.5064027309417725,-0.6294309496879578,0.470645546913147
1761299717387503600,0.959503662109375,0.43245795369148254,-0.8630860447883606,0.4072316884994507
1761299717407625500,0.97962548828125,0.18449154496192932,-1.2281540632247925,-0.30620333552360535
1761299717427746600,0.99974658203125,-0.18735311925411224,-1.3457142114639282,-1.2866857051849365
1761299717447868700,1.01986865234375,-0.4890890121459961,-0.9052371978759766,-1.9742553234100342
1761299717467989500,1.039989501953125,-0.5585008263587952,-0.4391975998878479,-2.1463632583618164
1761299717488111600,1.060111572265625,-0.4975666403770447,-0.3171563744544983,-1.6534174680709839
1761299717508232700,1.080232666015625,-0.5230810642242432,-0.2745641767978668,-0.5828080177307129
1761299717528354600,1.1003544921875,-0.6174219250679016,-0.25884780287742615,0.42929038405418396
1761299717548475400,1.120475341796875,-0.7119130492210388,-0.24209918081760406,0.7904040813446045
1761299717568597500,1.140597412109375,-0.8420076370239258,-0.1353788673877716,0.520329475402832
1761299717588718600,1.160718505859375,-1.035423994064331,-0.08300886303186417,-0.15559013187885284
1761299717608840700,1.1808408203125,-1.318448543548584,-0.019416574388742447,-0.7936603426933289
1761299717628961800,1.2009619140625,-1.6020455360412598,0.16301794350147247,-1.109258770942688
1761299717649083600,1.221083740234375,-1.7247710227966309,0.45198503136634827,-1.0318976640701294
1761299717669204700,1.241204833984375,-1.647527813911438,0.8037481307983398,-0.84012770652771
1761299717689326800,1.261326904296875,-1.3974721431732178,0.9831352233886719,-0.7815011739730835
1761299717709447700,1.28144775390625,-0.9839906096458435,0.7738499045372009,-0.6522712707519531
1761299717729569800,1.30156982421875,-0.5957353115081787,0.2771780788898468,-0.26241084933280945
1761299717749691000,1.32169091796875,-0.3726619780063629,-0.07903223484754562,0.2193850874900818
1761299717769812700,1.341812744140625,-0.23630787432193756,-0.04338528960943222,0.44580864906311035
1761299717789933600,1.36193359375,-0.14844007790088654,0.15059004724025726,0.32303184270858765
1761299717810055700,1.3820556640625,-0.11918258666992188,0.25362882018089294,0.10353198647499084
1761299717830176500,1.402176513671875,-0.1009412631392479,0.1817929744720459,0.03165965899825096
1761299717850298600,1.422298583984375,-0.12917423248291016,0.04370433837175369,0.0925818681716919
1761299717870419700,1.442419677734375,-0.1297803670167923,0.0008423578692600131,0.10863753408193588
1761299717890541800,1.462541748046875,-0.06512467563152313,0.10249388217926025,0.028620459139347076
1761299717910662700,1.48266259765625,-0.053415022790431976,0.2296571582555771,-0.03711274638772011
1761299717930784800,1.50278466796875,-0.18594910204410553,0.36271509528160095,-0.16024985909461975
1761299717950905900,1.52290576171875,-0.2018553614616394,0.5972301363945007,-0.34869781136512756
1761299717971027700,1.54302783203125,-0.12473314255475998,0.4950968325138092,-0.39942941069602966
1761299717991148800,1.563148681640625,-0.021024592220783234,0.29473790526390076,-0.24764788150787354
1761299718011270700,1.583270751953125,0.042090993374586105,0.31507939100265503,-0.055936768651008606
1761299718031391700,1.603391845703125,0.12779630720615387,0.5468233823776245,-0.0006697850185446441
1761299718051513600,1.623513671875,0.2808106243610382,0.8870049715042114,0.21440443396568298
1761299718071634700,1.643634765625,0.539913535118103,0.9375274777412415,0.8725721836090088
1761299718091756800,1.6637568359375,0.8637454509735107,0.7361451387405396,1.4890929460525513
1761299718111877600,1.683877685546875,1.151015281677246,0.5117101669311523,1.6395798921585083
1761299718131999700,1.703999755859375,1.2834569215774536,0.24564838409423828,1.4595526456832886
1761299718152121900,1.724121826171875,1.3161730766296387,0.06694920361042023,1.1749992370605469
1761299718172242700,1.74424267578125,1.2199655771255493,-0.15402205288410187,0.9203019142150879
1761299718192364800,1.76436474609375,1.0273321866989136,-0.36157897114753723,0.6030586957931519
1761299718212486000,1.78448583984375,0.8765168786048889,-0.5217018127441406,0.23146279156208038
1761299718232607500,1.804607421875,0.7434720396995544,-0.49191832542419434,0.07106459140777588
1761299718252728600,1.824728515625,0.6182299256324768,-0.2148108333349228,0.1933060735464096
1761299718272850700,1.8448505859375,0.6547288298606873,0.20905761420726776,0.46295565366744995
1761299718292971500,1.864971435546875,0.7542822957038879,0.3309560716152191,0.6772029995918274
1761299718313093600,1.88509375,0.8060925006866455,0.21632537245750427,0.7317245602607727
1761299718333214700,1.905214599609375,0.7271137833595276,0.10643190145492554,0.6961731910705566
1761299718353336800,1.9253369140625,0.6081085801124573,0.08618468791246414,0.5566959977149963
1761299718373457700,1.945457763671875,0.5603858232498169,0.14793327450752258,0.35164085030555725
1761299718393579800,1.965579833984375,0.5153751969337463,0.09575022757053375,0.20352329313755035
1761299718413700900,1.985700927734375,0.4608030319213867,-0.033600568771362305,0.17509618401527405
1761299718433822700,2.00582275390625,0.3779906928539276,0.04604685306549072,0.17830608785152435
1761299718453943800,2.02594384765625,0.2881005108356476,0.22070281207561493,0.07571873068809509
1761299718474065700,2.046065673828125,0.15858352184295654,0.2310989946126938,-0.12994813919067383
1761299718494186800,2.066186767578125,-0.030917435884475708,0.021014470607042313,-0.37368011474609375
1761299718514308600,2.08630859375,-0.1786099523305893,-0.1568753719329834,-0.5694062113761902
1761299718534429700,2.1064296875,-0.2663262188434601,-0.15206623077392578,-0.7540698051452637
1761299718554551600,2.126551513671875,-0.39361122250556946,-0.0644567534327507,-0.856562614440918
1761299718574672600,2.146672607421875,-0.4613519012928009,-0.1443486511707306,-0.8275495767593384
1761299718594794800,2.166794677734375,-0.4624568521976471,-0.2935570478439331,-0.7970579862594604
1761299718614915300,2.186915283203125,-0.3046983778476715,-0.4076034724712372,-0.807097852230072
1761299718635037200,2.207037109375,0.037577468901872635,-0.34883496165275574,-0.658257782459259
1761299718655158300,2.227158203125,0.2808566987514496,-0.13274259865283966,-0.13262754678726196
1761299718675280400,2.2472802734375,0.22298434376716614,0.0833502858877182,0.5962300896644592
1761299718695401200,2.267401123046875,0.10752672702074051,0.1353793889284134,0.8741738200187683
1761299718715523300,2.2875234375,0.0062488410621881485,0.002930808812379837,0.5770460367202759
1761299718735644400,2.30764453125,-0.08398997783660889,-0.17452546954154968,0.0256385188549757
1761299718755766300,2.327766357421875,-0.15029576420783997,-0.3248782157897949,-0.43774643540382385
1761299718775887400,2.347887451171875,-0.37518560886383057,-0.35558021068573,-0.5594326853752136
1761299718796009200,2.36800927734375,-0.6557788848876953,-0.22191934287548065,-0.48169633746147156
1761299718816130300,2.38813037109375,-0.8418965935707092,-0.046369098126888275,-0.380912721157074
1761299718836252200,2.408252197265625,-0.9096524715423584,-0.006149771623313427,-0.22195637226104736
1761299718856373200,2.428373291015625,-0.7452499270439148,0.0075881448574364185,-0.016833575442433357
1761299718876495400,2.448495361328125,-0.5379121899604797,-0.010029464960098267,0.08781667053699493
1761299718896616200,2.4686162109375,-0.40977713465690613,-0.10235539823770523,0.10292238742113113
1761299718916738300,2.48873828125,-0.36032143235206604,-0.13863058388233185,0.05037955194711685
1761299718936859400,2.508859375,-0.3045055568218231,-0.032400015741586685,0.024416659027338028
1761299718956981200,2.528981201171875,-0.17387539148330688,0.04405960440635681,0.1235072910785675
1761299718977102300,2.549102294921875,0.12071309983730316,0.16428694128990173,0.19007885456085205
1761299718997224400,2.569224365234375,0.47751784324645996,0.17909358441829681,0.12329237163066864
1761299719017346300,2.58934619140625,0.9386588335037231,-0.15547055006027222,0.1942424476146698
1761299719037467100,2.609467041015625,1.3813893795013428,-0.4861272871494293,0.637117862701416
1761299719057589200,2.62958935546875,1.618998408317566,-0.4177786111831665,1.1586683988571167
1761299719077710300,2.64971044921875,1.7564221620559692,-0.0521010160446167,1.3506122827529907
1761299719097832200,2.669832275390625,1.885185956954956,0.27094149589538574,1.4367972612380981
1761299719117953300,2.689953369140625,1.9891165494918823,0.36304184794425964,1.5138221979141235
1761299719138075400,2.710075439453125,1.976864218711853,0.46191224455833435,1.512803077697754
1761299719158196200,2.7301962890625,1.9685136079788208,0.5377039313316345,1.4884300231933594
1761299719178318300,2.750318359375,2.0193402767181396,0.651524007320404,1.3791382312774658
1761299719198439400,2.770439453125,2.0197880268096924,0.8235915899276733,1.0836647748947144
1761299719218561500,2.7905615234375,1.9425208568572998,1.0905979871749878,0.709666907787323
1761299719238682400,2.810682373046875,1.7616288661956787,1.4074678421020508,0.25523629784584045
1761299719258804200,2.83080419921875,1.629952311515808,1.649678111076355,-0.3313020169734955
1761299719278925000,2.850925048828125,1.662386417388916,1.815552830696106,-0.9382367134094238
1761299719299047200,2.871047119140625,1.826171875,2.2393102645874023,-1.3769458532333374
1761299719319168300,2.891168212890625,1.9362398386001587,2.843158721923828,-1.4838955402374268
1761299719339290400,2.911290283203125,2.2757458686828613,2.8720812797546387,-1.1413240432739258
1761299719359411200,2.9314111328125,2.854865312576294,2.136606454849243,-0.4650270640850067
1761299719379533300,2.951533203125,3.2113888263702393,1.3791533708572388,0.16950461268424988
1761299719399654400,2.971654296875,3.316089391708374,1.0872498750686646,0.2778632938861847
1761299719419776300,2.9917763671875,3.1753883361816406,1.1345322132110596,0.029831664636731148
1761299719439897300,3.0118974609375,2.773498296737671,1.2083520889282227,-0.1505085527896881
1761299719460019500,3.03201953125,2.2680184841156006,1.1284945011138916,-0.09559017419815063
1761299719480140300,3.052140380859375,1.8217555284500122,1.018547773361206,0.09838169813156128
1761299719500262100,3.07226220703125,1.4963042736053467,1.0323126316070557,0.2349315583705902
1761299719520383200,3.09238330078125,1.275046944618225,1.0714110136032104,0.29335251450538635
1761299719540505300,3.11250537109375,1.0788196325302124,0.9734338521957397,0.43653497099876404
1761299719560626200,3.132626220703125,0.8913360238075256,0.7605452537536621,0.5856810212135315
1761299719580748300,3.152748291015625,0.7133489847183228,0.5811414122581482,0.6240830421447754
1761299719600869000,3.172869140625,0.5350666046142578,0.4583830237388611,0.42977482080459595
1761299719620990700,3.19299072265625,0.2867223024368286,0.256094366312027,0.24497699737548828
1761299719641111800,3.21311181640625,0.038130875676870346,0.05084400624036789,0.24880795180797577
1761299719661234000,3.23323388671875,-0.14403946697711945,-0.022652048617601395,0.24120968580245972
1761299719681356000,3.25335595703125,-0.2996855080127716,0.2906624674797058,0.0850464478135109
1761299719701476900,3.273476806640625,-0.41191884875297546,0.7323756814002991,-0.20470574498176575
1761299719721599000,3.293598876953125,-0.397722065448761,0.9502171874046326,-0.41565394401550293
1761299719741719800,3.3137197265625,-0.1918964684009552,0.7782675623893738,-0.28898653388023376
1761299719761841700,3.333841552734375,0.21414291858673096,0.36617371439933777,0.23207691311836243
1761299719781962800,3.353962646484375,0.4001428782939911,-0.08134359121322632,0.8742902278900146
1761299719802084900,3.3740849609375,0.47464480996131897,-0.30582836270332336,0.9549421668052673
1761299719822205700,3.394205810546875,0.15999659895896912,-0.4180337190628052,0.5130963325500488
1761299719842327800,3.414327880859375,-0.18723221123218536,-0.3574449419975281,-0.14633271098136902
1761299719862449000,3.434448974609375,-0.5885058641433716,-0.34179195761680603,-0.6123377084732056
1761299719882570800,3.45457080078125,-0.9361621141433716,-0.32232797145843506,-0.8072701692581177
1761299719902691800,3.47469189453125,-1.1240817308425903,-0.21816055476665497,-0.9385243058204651
1761299719922814000,3.49481396484375,-1.1162567138671875,0.06917907297611237,-0.9639010429382324
1761299719942934800,3.514934814453125,-0.8855921626091003,0.34500691294670105,-0.6979921460151672
1761299719963057000,3.535056884765625,-0.5893245339393616,0.3668760061264038,-0.26104065775871277
1761299719983178000,3.555177978515625,-0.4047682583332062,0.2153269648551941,0.0348820835351944
1761299720003299800,3.5752998046875,-0.2694205641746521,0.04048138111829758,0.0528285950422287
1761299720023421000,3.5954208984375,-0.13204538822174072,-0.08881482481956482,0.02359320968389511
1761299720043542800,3.615542724609375,-0.05241740122437477,-0.17973673343658447,0.059787433594465256
1761299720063663600,3.63566357421875,-0.010263023898005486,-0.24607448279857635,0.19077926874160767
1761299720083785700,3.65578564453125,-0.02329094149172306,-0.2275782972574234,0.28730395436286926
1761299720103906800,3.67590673828125,-0.10084033012390137,-0.13254286348819733,0.258554071187973
1761299720124029000,3.69602880859375,-0.16364938020706177,0.03398459777235985,0.1651785671710968
1761299720144149800,3.716149658203125,-0.09311742335557938,0.14810077846050262,0.05359824746847153
1761299720164271900,3.73627197265625,0.06444583833217621,-0.021466676145792007,0.044626325368881226
1761299720184393000,3.75639306640625,0.24542121589183807,-0.3567573130130768,0.3064350187778473
1761299720204514800,3.776514892578125,0.3151174783706665,-0.24564039707183838,0.567264199256897
1761299720224636700,3.79663671875,0.25460806488990784,0.22163066267967224,0.5332372784614563
1761299720244758000,3.816758056640625,0.12551558017730713,0.6754897832870483,0.28786373138427734
1761299720264879900,3.8368798828125,0.04452113062143326,0.7545598149299622,0.10137056559324265
1761299720285000700,3.857000732421875,0.12657605111598969,0.4385509788990021,-0.022063223645091057
1761299720305122800,3.877122802734375,0.29262521862983704,0.14401869475841522,-0.07949775457382202
1761299720325244000,3.897243896484375,0.3774793744087219,0.22353242337703705,0.08236784487962723
1761299720345365800,3.91736572265625,0.481513649225235,0.5307003855705261,0.5088973045349121
1761299720365486800,3.93748681640625,0.6000900864601135,0.6224904656410217,0.8961449265480042
1761299720385609000,3.95760888671875,0.7362143397331238,0.4552189111709595,0.9351740479469299
1761299720405729800,3.977729736328125,0.9250473976135254,0.11461206525564194,0.6887304782867432
1761299720425849900,3.997849853515625,1.075697898864746,-0.27140355110168457,0.36089959740638733
1761299720445970700,4.017970703125,0.9078077077865601,-0.6124234199523926,0.07727401703596115
1761299720466092800,4.0380927734375,0.41377559304237366,-0.7303066849708557,-0.2704770267009735
1761299720486214000,4.0582138671875,-0.11578412353992462,-0.4876261353492737,-0.5267212986946106
1761299720506335700,4.078335693359375,-0.4432661235332489,0.016271380707621574,-0.5297674536705017
1761299720526457900,4.098457763671875,-0.4840657413005829,0.3338826298713684,-0.28013285994529724
1761299720546579000,4.118578857421875,-0.2645232677459717,0.37446334958076477,0.08201497793197632
1761299720566701000,4.138701171875,-0.05889340862631798,0.20473024249076843,0.41798660159111023
1761299720586822000,4.15882177734375,0.07589822262525558,-0.1525362730026245,0.6445451378822327
1761299720606943700,4.17894384765625,0.22376412153244019,-0.4720655381679535,0.7148633003234863
1761299720627064800,4.19906494140625,0.3069407641887665,-0.604155957698822,0.7273995876312256
1761299720647187000,4.21918701171875,0.3229495584964752,-0.8073340654373169,0.7007317543029785
1761299720667308000,4.23930810546875,0.3245546519756317,-0.9588117599487305,0.7885313630104065
1761299720687430100,4.25943017578125,0.2816242277622223,-0.7166063189506531,0.9277536869049072
1761299720707551000,4.279551025390625,0.14131425321102142,-0.2525171935558319,0.8278771638870239
1761299720727673000,4.299673095703125,-0.2267247587442398,0.06610684841871262,0.3931449055671692
1761299720747794200,4.319794189453125,-0.763320803642273,0.11741451174020767,-0.11369460821151733
1761299720767916000,4.339916015625,-1.2587409019470215,-0.12065557390451431,-0.4477732479572296
1761299720788037000,4.360037109375,-1.448184609413147,-0.527645468711853,-0.5609924793243408
1761299720808159200,4.3801591796875,-1.3885167837142944,-0.7976300716400146,-0.5586107969284058
1761299720828280000,4.400280029296875,-1.4377061128616333,-0.8112744688987732,-0.6375807523727417
1761299720848402000,4.42040185546875,-1.7716151475906372,-0.8622998595237732,-0.8202219009399414
1761299720868523000,4.44052294921875,-2.2433021068573,-0.9422059059143066,-1.0281332731246948
1761299720888644900,4.460644775390625,-2.5710535049438477,-0.8985417485237122,-1.0574792623519897
1761299720908766000,4.480765869140625,-2.6573212146759033,-0.7869006991386414,-0.7351059317588806
1761299720928888000,4.50088818359375,-2.5651564598083496,-0.6229432225227356,-0.297708660364151
1761299720949009000,4.5210087890625,-2.565147638320923,-0.6937936544418335,-0.12689509987831116
1761299720969131000,4.541131103515625,-2.678112268447876,-1.1319034099578857,-0.38236522674560547
1761299720989253000,4.561253173828125,-2.8070485591888428,-1.670384168624878,-0.7346904873847961
1761299721009374200,4.581374267578125,-2.9465997219085693,-1.9432021379470825,-0.9657918810844421
1761299721029496000,4.60149609375,-3.0554494857788086,-1.9168556928634644,-1.0821869373321533
1761299721049617200,4.6216171875,-3.180281162261963,-1.6243023872375488,-1.369052529335022
1761299721069739000,4.641739013671875,-3.3906853199005127,-1.3843883275985718,-1.8412411212921143
1761299721089859800,4.66185986328125,-3.7203009128570557,-1.218122959136963,-2.0466971397399902
1761299721109982000,4.68198193359375,-3.7226333618164062,-1.0200868844985962,-1.5678870677947998
1761299721130103000,4.70210302734375,-3.328625440597534,-0.921343982219696,-0.8359652161598206
1761299721150225000,4.722224853515625,-2.7604427337646484,-0.899825394153595,-0.3856941759586334
1761299721170346000,4.742345947265625,-2.2940609455108643,-0.9547051787376404,-0.24957974255084991
1761299721190468000,4.762468017578125,-2.0440642833709717,-1.120766282081604,-0.16505633294582367
1761299721210589000,4.7825888671875,-1.8183180093765259,-1.1665058135986328,-0.1244276762008667
1761299721230711000,4.8027109375,-1.5463719367980957,-0.8397900462150574,-0.15444336831569672
1761299721250832100,4.82283203125,-1.286641001701355,-0.6817364692687988,-0.017431721091270447
1761299721270954200,4.842954345703125,-1.0006060600280762,-0.7916773557662964,0.16727261245250702
1761299721291075000,4.863074951171875,-0.7613796591758728,-0.8707945346832275,0.1829511821269989
1761299721311197000,4.883197021484375,-0.6420934796333313,-0.6755070686340332,0.028380509465932846
1761299721331318000,4.903318115234375,-0.5602912902832031,-0.34807994961738586,-0.1477721482515335
1761299721351440000,4.92343994140625,-0.5045057535171509,-0.4160882830619812,-0.26947781443595886
1761299721371562000,4.94356201171875,-0.3958567976951599,-0.5107234716415405,-0.31873562932014465
1761299721391683000,4.96368310546875,-0.19056808948516846,-0.5633168816566467,-0.15633288025856018
1761299721411805200,4.98380517578125,0.08112281560897827,-0.44394975900650024,0.16772109270095825
1761299721431926000,5.003926025390625,0.18563644587993622,-0.23951564729213715,0.3151656687259674
1761299721452048100,5.024048095703125,0.09188465029001236,-0.015222894959151745,0.3583831787109375
1761299721472169200,5.044169189453125,0.22023889422416687,0.3023870289325714,0.6583107709884644
1761299721492291000,5.064291015625,0.6081810593605042,0.6715056896209717,1.1634820699691772
1761299721512412200,5.084412109375,0.9346086978912354,0.6892375349998474,1.6629981994628906
1761299721532534000,5.104533935546875,1.0451536178588867,0.5898723602294922,1.8967478275299072
1761299721552655000,5.124655029296875,0.9894141554832458,0.5920723676681519,1.7205309867858887
1761299721572777000,5.14477685546875,0.9034134745597839,0.5820990800857544,1.3346240520477295
1761299721592898000,5.16489794921875,0.8567490577697754,0.5285077691078186,0.8837548494338989
1761299721613020700,5.185020751953125,0.8191918134689331,0.3386771082878113,0.5264339447021484
1761299721633141500,5.2051416015625,0.7586157917976379,0.06721685081720352,0.29736271500587463
1761299721653263600,5.225263671875,0.6985782980918884,0.06971117109060287,0.15473578870296478
1761299721673384700,5.245384765625,0.5940966606140137,0.23911164700984955,0.18390725553035736
1761299721693506600,5.265506591796875,0.46957123279571533,0.43083900213241577,0.28183513879776
1761299721713628400,5.28562841796875,0.4169279932975769,0.5856645107269287,0.26435309648513794
1761299721733749500,5.30574951171875,0.4502220153808594,0.6871895790100098,0.12878833711147308
1761299721753871600,5.32587158203125,0.4965445101261139,0.6570298075675964,-0.08772372454404831
1761299721773992400,5.345992431640625,0.4932885468006134,0.41992536187171936,-0.2672756314277649
1761299721794114600,5.366114501953125,0.44110041856765747,-0.15366706252098083,-0.12034984678030014
1761299721814235600,5.386235595703125,0.4824875593185425,-0.8154277205467224,0.15793317556381226
1761299721834357500,5.406357421875,0.41301658749580383,-0.8905029892921448,0.20907172560691833
1761299721854478600,5.426478515625,0.2741950750350952,-0.27885693311691284,0.019100191071629524
1761299721874600700,5.4466005859375,0.21141211688518524,0.3064264953136444,-0.2050679326057434
1761299721894721500,5.466721435546875,0.21632137894630432,0.25908002257347107,-0.43908149003982544
1761299721914843600,5.48684375,0.10660313814878464,-0.0227415319532156,-0.4895201623439789
1761299721934964700,5.50696484375,0.03309430181980133,-0.11827124655246735,-0.5639254450798035
1761299721955086600,5.527086669921875,0.01079698745161295,0.10165445506572723,-1.0139071941375732
1761299721975207700,5.547207763671875,-0.04899390786886215,0.15839682519435883,-1.5917264223098755
1761299721995329500,5.56732958984375,-0.16319771111011505,-0.06635984778404236,-1.8003230094909668
1761299722015450400,5.587450439453125,-0.3322005867958069,-0.2882016897201538,-1.7444381713867188
1761299722035572500,5.607572509765625,-0.3660464286804199,-0.3277216851711273,-1.6023459434509277
1761299722055694600,5.627694580078125,-0.18896593153476715,-0.24594904482364655,-1.2149518728256226
1761299722075815700,5.647815673828125,-0.17343756556510925,0.10854511708021164,-0.4683842658996582
1761299722095937500,5.6679375,-0.3373977541923523,0.32667452096939087,0.3225865662097931
1761299722116058600,5.68805859375,-0.513017475605011,0.21129733324050903,0.7104781270027161
1761299722136180700,5.7081806640625,-0.7846537828445435,-0.1336936205625534,0.4314137101173401
1761299722156301600,5.728301513671875,-0.8982730507850647,-0.4307202398777008,-0.14797508716583252
1761299722176423400,5.74842333984375,-1.206896424293518,-0.5526871681213379,-0.6245070099830627
1761299722196544800,5.768544677734375,-1.4775017499923706,-0.4091760516166687,-0.7835493683815002
1761299722216666600,5.78866650390625,-1.5661829710006714,-0.10608675330877304,-0.6497370004653931
1761299722236787500,5.808787353515625,-1.4758455753326416,0.17727385461330414,-0.2952710688114166
1761299722256909600,5.82890966796875,-1.2128748893737793,0.27794399857521057,0.105277419090271
1761299722277030400,5.849030517578125,-0.9415369033813477,0.14991359412670135,0.4253542125225067
1761299722297152500,5.869152587890625,-0.767724335193634,0.022790798917412758,0.6423224806785583
1761299722317273600,5.889273681640625,-0.6730812191963196,-0.020801153033971786,0.6823564767837524
1761299722337395700,5.909395751953125,-0.6055106520652771,-0.05715170130133629,0.603114664554596
1761299722357516500,5.9295166015625,-0.5902052521705627,-0.1811804473400116,0.5233345627784729
1761299722377638700,5.949638671875,-0.6421629786491394,-0.2676093280315399,0.4253765940666199
1761299722397760500,5.969760498046875,-0.7480513453483582,-0.21735255420207977,0.2932169735431671
1761299722417881600,5.989881591796875,-0.7744908928871155,-0.051535096019506454,0.05854293704032898
1761299722438003500,6.01000341796875,-0.7077017426490784,-0.05703585594892502,-0.12471769750118256
1761299722458124500,6.03012451171875,-0.5170117020606995,-0.19182589650154114,-0.16426511108875275
1761299722478246700,6.05024658203125,-0.34804052114486694,-0.28204765915870667,-0.22632154822349548
1761299722498367500,6.070367431640625,-0.2702956795692444,-0.15357518196105957,-0.1996486634016037
1761299722518489600,6.090489501953125,-0.1545264571905136,-0.15345293283462524,-0.09809913486242294
1761299722538610700,6.110610595703125,0.02160276286303997,-0.3127581775188446,-0.04621543362736702
1761299722558732500,6.130732666015625,0.13632960617542267,-0.4953807294368744,-0.09763308614492416
1761299722578853600,6.150853515625,0.21429312229156494,-0.3071136176586151,-0.02587447315454483
1761299722598975700,6.170975830078125,0.2502868175506592,0.2811341881752014,0.3481033742427826
1761299722619096600,6.1910966796875,0.3927091956138611,0.7813762426376343,0.9614962339401245
1761299722639218700,6.21121875,0.5902121663093567,0.7487160563468933,1.2718732357025146
1761299722659339500,6.231339599609375,0.8557447791099548,0.38490772247314453,1.204538106918335
1761299722679461400,6.25146142578125,1.0967803001403809,0.10424544662237167,0.9539802670478821
1761299722699583500,6.27158349609375,1.1717168092727661,0.029586121439933777,0.6100732088088989
1761299722719704300,6.291704345703125,1.023261547088623,0.1671684831380844,0.28339630365371704
1761299722739826400,6.311826416015625,0.7087348103523254,0.2893391251564026,-0.027087010443210602
1761299722759947500,6.331947509765625,0.4563867151737213,0.2635432183742523,-0.2691023051738739
1761299722780069400,6.3520693359375,0.37110456824302673,0.23646552860736847,-0.3671407103538513
1761299722800190500,6.3721904296875,0.4809439778327942,0.32609501481056213,-0.24074843525886536
1761299722820312600,6.3923125,0.6906719207763672,0.4915638864040375,-0.004795820452272892
1761299722840433400,6.412433349609375,0.8290220499038696,0.44831839203834534,0.20996707677841187
1761299722860555500,6.432555419921875,0.826157808303833,0.08497960865497589,0.40275517106056213
1761299722880676600,6.452676513671875,0.8680093884468079,-0.11669518798589706,0.5147070288658142
1761299722900798500,6.472798583984375,0.8801571726799011,0.04315013438463211,0.48560982942581177
1761299722920919300,6.492919189453125,0.8467544317245483,0.27367469668388367,0.3010692894458771
1761299722941041400,6.51304150390625,0.7455652356147766,0.2815997302532196,0.1637154370546341
1761299722961163500,6.53316357421875,0.6084846258163452,0.07538210600614548,0.156757652759552
1761299722981284400,6.553284423828125,0.4998284578323364,-0.10059558600187302,0.12626072764396667
1761299723001406500,6.573406494140625,0.37169578671455383,-0.18011704087257385,0.08994640409946442
1761299723021527600,6.593527587890625,0.22700278460979462,-0.1785321980714798,-0.14267778396606445
1761299723041649400,6.6136494140625,0.07059986889362335,-0.008407066576182842,-0.5627890229225159
1761299723061770500,6.6337705078125,-0.0360831692814827,0.15379968285560608,-0.7848958969116211
1761299723081892600,6.653892578125,-0.20220476388931274,0.04529744014143944,-0.7686607241630554
1761299723102013400,6.674013427734375,-0.32741647958755493,-0.12400982528924942,-0.8054664134979248
1761299723122135300,6.69413525390625,-0.46180784702301025,-0.07495786249637604,-0.939426600933075
1761299723142256400,6.71425634765625,-0.5955334305763245,0.19047966599464417,-1.0028183460235596
1761299723162378500,6.73437841796875,-0.616568386554718,0.48962774872779846,-0.7696498036384583
1761299723182499300,6.754499267578125,-0.2981099784374237,0.4813924729824066,-0.2161693125963211
1761299723202621400,6.774621337890625,0.032452214509248734,0.1802257001399994,0.28668370842933655
1761299723222743600,6.79474365234375,0.11822304874658585,-0.15950044989585876,0.4362920820713043
1761299723242864400,6.814864501953125,-0.04241989552974701,-0.38321155309677124,0.303427517414093
1761299723262986500,6.834986572265625,-0.36072543263435364,-0.4199802279472351,-0.06601310521364212
1761299723283107600,6.855107666015625,-0.7042937278747559,-0.20340397953987122,-0.4522007405757904
1761299723303229700,6.875229736328125,-0.9514659643173218,0.1374012678861618,-0.6323292255401611
1761299723323350500,6.8953505859375,-0.9238596558570862,0.38876211643218994,-0.5120347738265991
1761299723343472400,6.915472412109375,-0.6757822036743164,0.3680914640426636,-0.15257516503334045
1761299723363593500,6.935593505859375,-0.4372588098049164,0.24126428365707397,0.3238089680671692
1761299723383715300,6.95571533203125,-0.3048669695854187,0.21386168897151947,0.5720674991607666
1761299723403836400,6.97583642578125,-0.24916455149650574,0.3196171522140503,0.6743688583374023
1761299723423958500,6.99595849609375,-0.24351651966571808,0.34200847148895264,0.6335875988006592
1761299723444079400,7.016079345703125,-0.2410927712917328,0.19207383692264557,0.44139230251312256
1761299723464201500,7.036201416015625,-0.2174774557352066,0.015216236934065819,0.21503880620002747
1761299723484323600,7.056323486328125,-0.12598110735416412,-0.08512821048498154,0.06758730113506317
1761299723504444400,7.0764443359375,0.056298427283763885,-0.17257922887802124,-0.02496500499546528
1761299723524566500,7.09656640625,0.284895122051239,-0.2391020655632019,-0.04406466335058212
1761299723544687600,7.1166875,0.4864407479763031,-0.4912855625152588,-0.04128831624984741
1761299723564809500,7.1368095703125,0.682994544506073,-0.7098581194877625,0.030658842995762825
1761299723584930300,7.156930419921875,0.7868208289146423,-0.6697839498519897,0.2917112112045288
1761299723605052400,7.177052490234375,0.6781864762306213,-0.18974889814853668,0.48817285895347595
1761299723625173000,7.197173095703125,0.45884615182876587,0.30184614658355713,0.5112622380256653
1761299723645295000,7.217295166015625,0.1906927227973938,0.34951165318489075,0.4841051697731018
1761299723665416000,7.237416015625,-0.0012785836588591337,-0.04037804901599884,0.5588707327842712
1761299723685538000,7.2575380859375,0.11847338080406189,0.07886498421430588,0.6113989353179932
1761299723705660200,7.27766015625,0.2972090542316437,0.9729313254356384,0.5793054699897766
1761299723725781000,7.297781005859375,0.3849104046821594,1.6017882823944092,0.6343633532524109
1761299723745903000,7.317903076171875,0.9459622502326965,1.223872423171997,1.1633577346801758
1761299723766024200,7.338024169921875,1.7347562313079834,0.4305143654346466,1.7753020524978638
1761299723786146000,7.35814599609375,2.4236936569213867,0.1797356754541397,1.9880452156066895
1761299723806267100,7.37826708984375,2.7931666374206543,0.4357946217060089,1.6474002599716187
1761299723826389000,7.398388916015625,2.895996332168579,0.6852779388427734,0.9232282042503357
1761299723846509800,7.418509765625,2.799759864807129,0.7912797331809998,0.11626429110765457
1761299723866632000,7.4386318359375,2.68532395362854,0.874342679977417,-0.5033416748046875
1761299723886753000,7.4587529296875,2.599093437194824,0.7954132556915283,-0.5377534627914429
1761299723906875100,7.478875244140625,2.535536289215088,0.6995868682861328,-0.18712061643600464
1761299723926997000,7.4989970703125,2.4668996334075928,0.9054244160652161,0.19641079008579254
1761299723947118000,7.5191181640625,2.3203623294830322,1.2019751071929932,0.5073603987693787
1761299723967240200,7.539240234375,2.0830087661743164,1.3241013288497925,0.6454615592956543
1761299723987361000,7.559361083984375,1.8213955163955688,1.279835820198059,0.6032957434654236
1761299724007483000,7.57948291015625,1.7486400604248047,1.193833351135254,0.5244664549827576
1761299724027604200,7.599604248046875,1.719159722328186,1.1117483377456665,0.4996369779109955
1761299724047726000,7.61972607421875,1.588120460510254,0.9793015718460083,0.3626578152179718
1761299724067847000,7.639846923828125,1.3832895755767822,0.7937527894973755,0.12069366127252579
1761299724087969000,7.659968994140625,1.1676994562149048,0.7193238139152527,-0.050453584641218185
1761299724108089900,7.68008984375,0.9539112448692322,0.7058583498001099,-0.05126158893108368
1761299724128212000,7.7002119140625,0.8294764161109924,0.5529816746711731,0.0409703366458416
1761299724148334000,7.720333984375,0.6788336038589478,0.20702029764652252,0.186345636844635
1761299724168455200,7.740455078125,0.49998772144317627,-0.02400813065469265,0.29652833938598633
1761299724188577000,7.760576904296875,0.2422323375940323,-0.011774101294577122,0.15417997539043427
1761299724208698000,7.780697998046875,-0.01942616142332554,0.2781762182712555,-0.21134473383426666
1761299724228820000,7.800820068359375,-0.1956896036863327,0.6407091617584229,-0.33058086037635803
1761299724248941000,7.820941162109375,-0.2822263538837433,0.7176763415336609,0.04315146431326866
1761299724269063000,7.84106298828125,-0.3305257260799408,0.462799072265625,0.42490893602371216
1761299724289184000,7.86118408203125,-0.3579655885696411,0.2750589847564697,0.38269704580307007
1761299724309306000,7.88130615234375,-0.16479773819446564,0.37183135747909546,-0.022487198933959007
1761299724329427000,7.901427001953125,0.24378123879432678,0.3155515491962433,-0.37994441390037537
1761299724349549000,7.921549072265625,0.6338802576065063,-0.09144549071788788,-0.5525760650634766
1761299724369671200,7.941671142578125,0.62343829870224,-0.3644639849662781,-0.5725263953208923
1761299724389792000,7.9617919921875,0.2422456592321396,-0.00944916158914566,-0.5391843914985657
1761299724409914000,7.9819140625,-0.020072776824235916,0.5478223562240601,-0.510617733001709
1761299724430035200,8.00203515625,0.010968495160341263,0.7149929404258728,-0.5669808387756348
1761299724450156800,8.02215673828125,0.2478414922952652,0.7272922396659851,-0.49994802474975586
1761299724470278100,8.042278076171876,0.45884400606155396,0.7522820234298706,-0.33372870087623596
1761299724490400000,8.06239990234375,0.4996239244937897,0.5501382350921631,-0.04713422432541847
1761299724510520800,8.082520751953124,0.48990073800086975,0.3218507468700409,0.2143367975950241
1761299724530643000,8.102642822265626,0.5746195912361145,0.16950275003910065,0.34022122621536255
1761299724550764000,8.122763916015625,0.7238131165504456,0.3773464858531952,0.4298619031906128
1761299724570886100,8.14288623046875,0.9012653827667236,0.8141464591026306,0.46957096457481384
1761299724591008000,8.163008056640624,0.857454776763916,0.7919801473617554,0.45356109738349915
1761299724611129000,8.183129150390625,0.6262900233268738,0.5274797677993774,0.2348407357931137
1761299724631251200,8.203251220703125,0.43664950132369995,0.37812837958335876,0.0027377295773476362
1761299724651372000,8.2233720703125,0.3705114722251892,0.43513068556785583,-0.12293977290391922
1761299724671494000,8.243493896484376,0.42043671011924744,0.774375319480896,-0.20527060329914093
1761299724691615200,8.263615234375,0.3906574845314026,0.9063789248466492,-0.15726977586746216
1761299724711737000,8.283737060546875,0.18586121499538422,0.8213215470314026,-0.0915972962975502
1761299724731858000,8.30385791015625,0.035415779799222946,0.7788918018341064,0.09369027614593506
1761299724751980000,8.32397998046875,0.11823955923318863,0.852380096912384,0.30507123470306396
1761299724772100900,8.344100830078125,0.3738553524017334,0.9014003872871399,0.5390746593475342
1761299724792223000,8.364222900390626,0.42612841725349426,0.5381292700767517,0.7187941074371338
1761299724812345000,8.384344970703125,0.24826467037200928,-0.5376759767532349,0.35720792412757874
1761299724832467200,8.40446728515625,0.3451078534126282,-0.7097926139831543,-0.5111652612686157
1761299724852588000,8.424588134765624,0.3551578223705292,0.1018533930182457,-0.8769118189811707
1761299724872710000,8.4447099609375,0.3575117886066437,0.4362601339817047,-0.40251654386520386
