time,seconds_elapsed,z,y,x
1761299716493353000,0.06535302734375,0.17895260453224182,-0.12812960147857666,0.1846294105052948
1761299716513474800,0.085474853515625,0.18556809425354004,-0.06933486461639404,-0.04566747695207596
1761299716533596200,0.10559619140625,0.1756899505853653,-0.09734344482421875,-0.2003912627696991
1761299716553717800,0.1257177734375,0.0931316465139389,-0.16985590755939484,-0.19389250874519348
1761299716573838800,0.1458388671875,0.013836021535098553,-0.15816596150398254,0.13029058277606964
1761299716593961000,0.1659609375,0.029938559979200363,-0.13921277225017548,0.35791975259780884
1761299716614082600,0.18608251953125,0.13694119453430176,-0.15726615488529205,0.3475949168205261
1761299716634204700,0.20620458984375,0.17383284866809845,-0.24049217998981476,0.18564508855342865
1761299716654325500,0.226325439453125,0.1444733887910843,-0.09106333553791046,-0.017240094020962715
1761299716674447600,0.246447509765625,0.03991444408893585,0.0019140960648655891,-0.1416580229997635
1761299716694568700,0.266568603515625,-0.05011552572250366,-0.1236889511346817,-0.1740538328886032
1761299716714690600,0.286690673828125,-0.11711876094341278,-0.20762866735458374,-0.18614476919174194
1761299716734811600,0.306811767578125,-0.1986786425113678,-0.05164298415184021,-0.22201336920261383
1761299716754933500,0.32693359375,-0.28348052501678467,0.09424959123134613,-0.30394014716148376
1761299716775054300,0.347054443359375,-0.2787069082260132,0.06273074448108673,-0.3047514259815216
1761299716795176400,0.367176513671875,-0.11597604304552078,0.0036064516752958298,-0.15364055335521698
1761299716815297500,0.387297607421875,0.09230712056159973,-0.06695187091827393,0.004816737491637468
1761299716835419600,0.407419677734375,0.34253475069999695,-0.2690705358982086,0.15331688523292542
1761299716855540500,0.42754052734375,0.5601969957351685,-0.40536007285118103,0.3558260500431061
1761299716875662600,0.44766259765625,0.6139366030693054,-0.3270217478275299,0.7030455470085144
1761299716895783400,0.467783447265625,0.5446670055389404,-0.1689312756061554,0.8699473738670349
1761299716915905500,0.487905517578125,0.49887925386428833,-0.02316361665725708,0.7265163064002991
1761299716936026600,0.508026611328125,0.5118626356124878,0.11540611833333969,0.23523761332035065
1761299716956148700,0.528148681640625,0.4703419506549835,0.32338225841522217,-0.4490470886230469
1761299716976269600,0.54826953125,0.353178471326828,0.4824594557285309,-0.9773836135864258
1761299716996391400,0.568391357421875,0.24844752252101898,0.551305890083313,-1.1999651193618774
1761299717016512500,0.588512451171875,0.1987473964691162,0.544977605342865,-1.050734281539917
1761299717036634400,0.60863427734375,0.24814216792583466,0.4786863625049591,-0.5939745903015137
1761299717056755500,0.62875537109375,0.3351195156574249,0.35798847675323486,-0.15391233563423157
1761299717076877600,0.648877685546875,0.4439200460910797,0.2884264290332794,0.0031806896440684795
1761299717096998400,0.668998291015625,0.6490335464477539,0.33534032106399536,0.11861719191074371
1761299717117120500,0.68912060546875,0.7806234955787659,0.3264787495136261,0.2426653653383255
1761299717137241600,0.70924169921875,0.8466770648956299,0.17055387794971466,0.24014517664909363
1761299717157363700,0.72936376953125,0.8276730179786682,0.015918483957648277,0.10177429020404816
1761299717177484500,0.749484619140625,0.6828553676605225,-0.1100255697965622,-0.14144566655158997
1761299717197606700,0.769606689453125,0.5826982855796814,-0.24101845920085907,-0.4605037569999695
1761299717217727700,0.789727783203125,0.5481275320053101,-0.33031517267227173,-0.7551266551017761
1761299717237849600,0.809849609375,0.5125017762184143,-0.2833819091320038,-0.8532623052597046
1761299717257970700,0.829970703125,0.36216267943382263,-0.12099188566207886,-0.6838696002960205
1761299717278092500,0.850092529296875,0.15918442606925964,-0.029278546571731567,-0.48185431957244873
1761299717298213400,0.87021337890625,0.11371618509292603,0.03648467734456062,-0.33491817116737366
1761299717318335500,0.89033544921875,0.21162228286266327,-0.011972415260970592,-0.2057691514492035
1761299717338456600,0.91045654296875,0.3769027888774872,-0.18048886954784393,0.03934606909751892
1761299717358578400,0.930578369140625,0.4912257492542267,-0.5157661437988281,0.35739293694496155
1761299717378699500,0.950699462890625,0.488088995218277,-0.758567750453949,0.5156397819519043
1761299717398821600,0.970821533203125,0.3226558566093445,-1.0677229166030884,0.07615228742361069
1761299717418943700,0.99094384765625,-0.019054874777793884,-1.3856241703033447,-0.8622799515724182
1761299717439064600,1.011064697265625,-0.37297576665878296,-1.138918399810791,-1.727744698524475
1761299717459186400,1.0311865234375,-0.560808002948761,-0.6214395761489868,-2.145010232925415
1761299717479307800,1.051307861328125,-0.5174152255058289,-0.35947877168655396,-1.9626318216323853
1761299717499429400,1.071429443359375,-0.494915634393692,-0.2853851318359375,-1.0817255973815918
1761299717519550500,1.091550537109375,-0.5702024102210999,-0.2669491469860077,0.04581831023097038
1761299717539672600,1.111672607421875,-0.6714892983436584,-0.27104082703590393,0.717856228351593
1761299717559793400,1.13179345703125,-0.7745502591133118,-0.18121230602264404,0.7069781422615051
1761299717579915500,1.15191552734375,-0.9401357173919678,-0.11385973542928696,0.1635291874408722
1761299717600036600,1.17203662109375,-1.181610107421875,-0.061074547469615936,-0.5421286225318909
1761299717620158700,1.19215869140625,-1.4915715456008911,0.06420262157917023,-1.0148214101791382
1761299717640279800,1.21227978515625,-1.6977580785751343,0.30136361718177795,-1.1057031154632568
1761299717660402000,1.23240185546875,-1.697820782661438,0.6504582166671753,-0.9091603755950928
1761299717680522800,1.252522705078125,-1.5217572450637817,0.933086633682251,-0.7925554513931274
1761299717700644600,1.27264453125,-1.180868148803711,0.9132264256477356,-0.7391179800033569
1761299717720765700,1.292765625,-0.7453435659408569,0.4978846311569214,-0.4590718746185303
1761299717740887600,1.312887451171875,-0.45389071106910706,0.027407120913267136,0.020430851727724075
1761299717761008600,1.333008544921875,-0.29407626390457153,-0.11607226729393005,0.40418457984924316
1761299717781130800,1.353130859375,-0.17285524308681488,0.06237644702196121,0.40923768281936646
1761299717801251600,1.37325146484375,-0.12601236999034882,0.21737615764141083,0.19018229842185974
1761299717821373700,1.393373779296875,-0.09926141053438187,0.2302985042333603,0.03516889736056328
1761299717841494800,1.413494873046875,-0.10815860331058502,0.09810207784175873,0.06768323481082916
1761299717861616600,1.43361669921875,-0.1341715008020401,-0.004807367920875549,0.11902228742837906
1761299717881737700,1.45373779296875,-0.09417454898357391,0.034365035593509674,0.06868257373571396
1761299717901859800,1.47385986328125,-0.038706399500370026,0.1675489991903305,-0.015384329482913017
1761299717921980700,1.493980712890625,-0.12136999517679214,0.2798020541667938,-0.07895500957965851
1761299717942102800,1.514102783203125,-0.21198247373104095,0.5008897185325623,-0.28415918350219727
1761299717962223900,1.534223876953125,-0.15982823073863983,0.570895254611969,-0.3989238739013672
1761299717982345700,1.554345703125,-0.060425691306591034,0.35956427454948425,-0.3357197344303131
1761299718002466600,1.574466552734375,0.01799262873828411,0.2696959972381592,-0.12144041806459427
1761299718022588700,1.594588623046875,0.08527477830648422,0.41766807436943054,-0.016490453854203224
1761299718042709800,1.614709716796875,0.20180580019950867,0.7405137419700623,0.06043236330151558
1761299718062831600,1.63483154296875,0.42157283425331116,0.9567143321037292,0.5502142310142517
1761299718082952700,1.65495263671875,0.7210810780525208,0.8220877051353455,1.2668706178665161
1761299718103074800,1.67507470703125,1.043056845664978,0.6113103628158569,1.632506012916565
1761299718123195600,1.695195556640625,1.2450432777404785,0.34523898363113403,1.5625455379486084
1761299718143317800,1.71531787109375,1.3136295080184937,0.1433584988117218,1.30478036403656
1761299718163438800,1.73543896484375,1.2763123512268066,-0.05935545638203621,1.0278371572494507
1761299718183560700,1.755560791015625,1.1189829111099243,-0.2764265537261963,0.7560093402862549
1761299718203681800,1.775681884765625,0.9344542622566223,-0.47609564661979675,0.3871608376502991
1761299718223803600,1.7958037109375,0.8100225329399109,-0.5366792678833008,0.10737913846969604
1761299718243924700,1.8159248046875,0.6597502827644348,-0.3879745900630951,0.10927347093820572
1761299718264046600,1.836046630859375,0.6175171136856079,0.024261396378278732,0.34255483746528625
1761299718284167700,1.856167724609375,0.7124742269515991,0.3225933313369751,0.6029897332191467
1761299718304289800,1.876289794921875,0.7995523810386658,0.27113330364227295,0.725196361541748
1761299718324410600,1.89641064453125,0.7773957252502441,0.1379469484090805,0.7245826721191406
1761299718344532700,1.91653271484375,0.6543901562690735,0.07284889370203018,0.6288660764694214
1761299718364653800,1.93665380859375,0.5787836909294128,0.11819031834602356,0.4489299952983856
1761299718384775700,1.956775634765625,0.5358350872993469,0.1283128559589386,0.25608277320861816
1761299718404896800,1.976896728515625,0.4925265610218048,0.007190571166574955,0.1740400791168213
1761299718425019000,1.997018798828125,0.41629132628440857,-0.0319521389901638,0.17869555950164795
1761299718445139700,2.0171396484375,0.332804411649704,0.1475905478000641,0.14403100311756134
1761299718465261800,2.03726171875,0.22632627189159393,0.24985675513744354,-0.033650342375040054
1761299718485383000,2.0573828125,0.05393335595726967,0.12252246588468552,-0.2692423164844513
1761299718505504500,2.07750439453125,-0.11661162227392197,-0.10855282843112946,-0.4902403652667999
1761299718525625600,2.09762548828125,-0.22614644467830658,-0.18521469831466675,-0.6700227856636047
1761299718545747700,2.117747802734375,-0.3381284773349762,-0.09213833510875702,-0.8367754817008972
1761299718565868500,2.13786865234375,-0.43772080540657043,-0.09905626624822617,-0.8485416769981384
1761299718585990700,2.15799072265625,-0.4739499092102051,-0.22865553200244904,-0.8068609833717346
1761299718606111200,2.178111328125,-0.3956625461578369,-0.38137078285217285,-0.7970326542854309
1761299718626233300,2.1982333984375,-0.12537530064582825,-0.41540005803108215,-0.7616775631904602
1761299718646355500,2.21835546875,0.2195645272731781,-0.2502252459526062,-0.4118032157421112
1761299718666476300,2.238476318359375,0.2680998146533966,0.012847941368818283,0.29690414667129517
1761299718686598400,2.258598388671875,0.1519666165113449,0.11443118751049042,0.8280918002128601
1761299718706719500,2.278719482421875,0.060043882578611374,0.07610136270523071,0.76332688331604
1761299718726841000,2.298841064453125,-0.05510203540325165,-0.1174619272351265,0.2694327235221863
1761299718746962400,2.31896240234375,-0.10525127500295639,-0.2606187164783478,-0.2652699947357178
1761299718767084300,2.339084228515625,-0.25950512290000916,-0.3843739926815033,-0.5478266477584839
1761299718787205000,2.359205078125,-0.5330142974853516,-0.3022362291812897,-0.5238428711891174
1761299718807327200,2.3793271484375,-0.7701176404953003,-0.11427349597215652,-0.420930951833725
1761299718827448300,2.3994482421875,-0.9108418822288513,-0.02773626521229744,-0.3123553395271301
1761299718847570200,2.419570068359375,-0.8289459943771362,-0.0019397200085222721,-0.10007870197296143
1761299718867691300,2.439691162109375,-0.6224492192268372,-0.005559612065553665,0.059991125017404556
1761299718887813400,2.4598134765625,-0.4541354477405548,-0.055263541638851166,0.10518097132444382
1761299718907934200,2.479934326171875,-0.37216976284980774,-0.14601950347423553,0.08368035405874252
1761299718928056300,2.500056396484375,-0.33559855818748474,-0.1037391647696495,0.020723044872283936
1761299718948177400,2.520177490234375,-0.24852736294269562,0.008679122664034367,0.06638609617948532
1761299718968299300,2.54029931640625,-0.01848788745701313,0.0928938239812851,0.18169225752353668
1761299718988420400,2.56042041015625,0.31147634983062744,0.2082749456167221,0.15531300008296967
1761299719008542200,2.580542236328125,0.7304633259773254,0.0051421234384179115,0.1356651484966278
1761299719028663300,2.600663330078125,1.2136683464050293,-0.39715641736984253,0.3959605395793915
1761299719048785200,2.62078515625,1.5466344356536865,-0.506999135017395,0.9669471383094788
1761299719068906200,2.64090625,1.6917283535003662,-0.2360702008008957,1.2966901063919067
1761299719089028400,2.6610283203125,1.8342527151107788,0.1522825062274933,1.4014757871627808
1761299719109149200,2.681149169921875,1.9522533416748047,0.3400132656097412,1.4904874563217163
1761299719129271300,2.701271240234375,1.997444748878479,0.3993719220161438,1.515921950340271
1761299719149392400,2.721392333984375,1.9696918725967407,0.5081036686897278,1.5049289464950562
1761299719169514200,2.74151416015625,1.9999220371246338,0.5851843357086182,1.4474163055419922
1761299719189635300,2.76163525390625,2.024972677230835,0.7345558404922485,1.2339818477630615
1761299719209757400,2.78175732421875,1.999426007270813,0.9598690867424011,0.879006028175354
1761299719229878300,2.801878173828125,1.840170979499817,1.2541381120681763,0.47048303484916687
1761299719250000100,2.822000244140625,1.6742031574249268,1.554909586906433,-0.057876165956258774
1761299719270121200,2.842121337890625,1.6271408796310425,1.731475830078125,-0.6801049113273621
1761299719290243300,2.862243408203125,1.7514876127243042,1.9991415739059448,-1.2229119539260864
1761299719310365200,2.882365234375,1.9000494480133057,2.597046136856079,-1.478581428527832
1761299719330486300,2.902486328125,2.073195695877075,2.966881513595581,-1.3414037227630615
1761299719350608400,2.9226083984375,2.612318515777588,2.5065290927886963,-0.7832923531532288
1761299719370729200,2.942729248046875,3.097485303878784,1.6570998430252075,-0.060997962951660156
1761299719390851300,2.962851318359375,3.2986950874328613,1.1466807126998901,0.30190548300743103
1761299719410972400,2.982972412109375,3.270494222640991,1.0787049531936646,0.1485545039176941
1761299719431094500,3.003094482421875,2.9762704372406006,1.1890320777893066,-0.0942748486995697
1761299719451215400,3.02321533203125,2.4890124797821045,1.1761890649795532,-0.1519937366247177
1761299719471337200,3.043337158203125,2.0058484077453613,1.0488687753677368,0.011236018501222134
1761299719491458300,3.063458251953125,1.6261039972305298,1.0204709768295288,0.19714805483818054
1761299719511580200,3.083580078125,1.3626937866210938,1.053882122039795,0.2583550810813904
1761299719531701200,3.103701171875,1.1693758964538574,1.0319958925247192,0.3688322603702545
1761299719551823400,3.1238232421875,0.9719166159629822,0.8517963886260986,0.5218653678894043
1761299719571944200,3.143944091796875,0.7916757464408875,0.6419453024864197,0.6364027857780457
1761299719592066300,3.16406640625,0.6208575963973999,0.5064728260040283,0.5345128178596497
1761299719612187000,3.184186767578125,0.40414658188819885,0.34268683195114136,0.30415868759155273
1761299719632308700,3.204308837890625,0.14708982408046722,0.12495601177215576,0.23165898025035858
1761299719652429800,3.224429931640625,-0.07132729887962341,-0.04485733062028885,0.25951290130615234
1761299719672552000,3.244552001953125,-0.2275550812482834,0.10990849137306213,0.1714811623096466
1761299719692672800,3.2646728515625,-0.3701743185520172,0.5438509583473206,-0.0665208175778389
1761299719712795000,3.284794921875,-0.42166244983673096,0.8880103230476379,-0.354536771774292
1761299719732916000,3.304916015625,-0.31134796142578125,0.8913291692733765,-0.3912372887134552
1761299719753037800,3.325037841796875,0.027469957247376442,0.5402328372001648,-0.04965388774871826
1761299719773159000,3.345158935546875,0.3771817088127136,0.0871649980545044,0.651273250579834
1761299719793280800,3.36528076171875,0.45508691668510437,-0.2307375967502594,0.985867440700531
1761299719813401900,3.38540185546875,0.35550519824028015,-0.4071251451969147,0.7574050426483154
1761299719833523700,3.405523681640625,-0.050789810717105865,-0.37897539138793945,0.13765265047550201
1761299719853644800,3.425644775390625,-0.40479394793510437,-0.35102495551109314,-0.4438067078590393
1761299719873767000,3.445766845703125,-0.8062801957130432,-0.335860013961792,-0.7404630184173584
1761299719893887700,3.4658876953125,-1.0625120401382446,-0.29115286469459534,-0.8746206164360046
1761299719914009900,3.486009765625,-1.1430639028549194,-0.07978019118309021,-0.9783505797386169
1761299719934132000,3.506132080078125,-1.0071125030517578,0.2414097785949707,-0.8503048419952393
1761299719954252800,3.526252685546875,-0.7088571786880493,0.38051819801330566,-0.4550930857658386
1761299719974374700,3.546374755859375,-0.46938765048980713,0.28602537512779236,-0.06017276644706726
1761299719994495700,3.566495849609375,-0.3247893154621124,0.10484035313129425,0.07074998319149017
1761299720014617900,3.586617919921875,-0.1885446459054947,-0.05428857356309891,0.03187045082449913
1761299720034738700,3.60673876953125,-0.07529675960540771,-0.1478675752878189,0.041009657084941864
1761299720054860800,3.62686083984375,-0.021723151206970215,-0.2345758080482483,0.12192536145448685
1761299720074982000,3.64698193359375,-0.0077118477784097195,-0.24995426833629608,0.2623210847377777
1761299720095103700,3.667103759765625,-0.05935613065958023,-0.19228671491146088,0.2786282002925873
1761299720115224800,3.687224853515625,-0.14542795717716217,-0.05185811221599579,0.21540763974189758
1761299720135347000,3.707346923828125,-0.13757385313510895,0.10587126016616821,0.1095903217792511
1761299720155467800,3.7274677734375,-0.014094650745391846,0.09538528323173523,0.020538244396448135
1761299720175590000,3.74758984375,0.1737818866968155,-0.23716863989830017,0.16600348055362701
1761299720195711000,3.7677109375,0.30508407950401306,-0.36493319272994995,0.486604243516922
1761299720215832800,3.787832763671875,0.29398584365844727,-0.013205689378082752,0.5834720134735107
1761299720235954000,3.807953857421875,0.18818984925746918,0.4946294128894806,0.40322181582450867
1761299720256075800,3.82807568359375,0.06810346245765686,0.7774497866630554,0.1680435836315155
1761299720276196600,3.848196533203125,0.06731845438480377,0.594322681427002,0.030262550339102745
1761299720296318700,3.868318603515625,0.2305775284767151,0.23012717068195343,-0.06777003407478333
1761299720316439800,3.888439697265625,0.35127508640289307,0.1343662291765213,-0.021227190271019936
1761299720336562000,3.90856201171875,0.43403634428977966,0.3981316387653351,0.3007740080356598
1761299720356682800,3.928682861328125,0.5502243638038635,0.6207774877548218,0.7634738087654114
1761299720376804900,3.948804931640625,0.6757711172103882,0.5517070889472961,0.9627770185470581
1761299720396926000,3.968926025390625,0.8381080031394958,0.26660144329071045,0.8219379782676697
1761299720417047800,3.9890478515625,1.0326787233352661,-0.1034131795167923,0.5004797577857971
1761299720437167900,4.00916796875,1.0331884622573853,-0.4901121258735657,0.2036801427602768
1761299720457290000,4.0292900390625,0.6516491770744324,-0.7284687161445618,-0.11584808677434921
1761299720477410800,4.049410888671875,0.1035822182893753,-0.6467389464378357,-0.4414527118206024
1761299720497533000,4.069532958984375,-0.3256990313529968,-0.21788285672664642,-0.5614755749702454
1761299720517654000,4.089654052734375,-0.5101361870765686,0.22904066741466522,-0.41330742835998535
1761299720537775900,4.10977587890625,-0.371950626373291,0.37557345628738403,-0.0769302025437355
1761299720557897000,4.12989697265625,-0.13417275249958038,0.2983355224132538,0.2796352505683899
1761299720578018800,4.150018798828125,0.019130518659949303,0.01383189670741558,0.5704001784324646
1761299720598139600,4.1701396484375,0.16294783353805542,-0.355821430683136,0.6910104751586914
1761299720618262000,4.190261962890625,0.2811078131198883,-0.5692459940910339,0.7362244725227356
1761299720638383000,4.210383056640625,0.32409238815307617,-0.7080479860305786,0.7098127603530884
1761299720658505000,4.2305048828125,0.32694700360298157,-0.9283783435821533,0.7288364768028259
1761299720678627000,4.250626953125,0.3196460008621216,-0.86896151304245,0.8831576704978943
1761299720698748200,4.270748046875,0.2179293930530548,-0.46877235174179077,0.9126757383346558
1761299720718870000,4.2908701171875,-0.02870362251996994,-0.057648055255413055,0.6081578731536865
1761299720738991000,4.3109912109375,-0.5143688917160034,0.12105201184749603,0.10194063186645508
1761299720759113000,4.331113037109375,-1.067726731300354,0.005467863753437996,-0.33406391739845276
1761299720779234000,4.351234130859375,-1.4066483974456787,-0.3580041229724884,-0.532491147518158
1761299720799356000,4.37135595703125,-1.424443244934082,-0.7328744530677795,-0.5643237829208374
1761299720819479000,4.39147900390625,-1.3803198337554932,-0.81890869140625,-0.5805107355117798
1761299720839600000,4.41160009765625,-1.5915546417236328,-0.8441524505615234,-0.7318659424781799
1761299720859722200,4.43172216796875,-2.032299280166626,-0.9079786539077759,-0.9368693828582764
1761299720879843800,4.45184375,-2.4596779346466064,-0.9320859909057617,-1.0847610235214233
1761299720899965000,4.47196484375,-2.644918441772461,-0.8564653992652893,-0.9117047786712646
1761299720920087000,4.492087158203125,-2.6100401878356934,-0.6990496516227722,-0.4774293899536133
1761299720940207900,4.512207763671875,-2.541442394256592,-0.6347609758377075,-0.14783479273319244
1761299720960330000,4.532330078125,-2.6233906745910645,-0.9051390290260315,-0.23254993557929993
1761299720980451000,4.552451171875,-2.7450754642486572,-1.468531608581543,-0.5835779309272766
1761299721000573200,4.5725732421875,-2.8887953758239746,-1.8645578622817993,-0.888164758682251
1761299721020694000,4.592694091796875,-3.0041322708129883,-1.973585844039917,-1.02360999584198
1761299721040816000,4.612816162109375,-3.1222317218780518,-1.7800958156585693,-1.2160614728927612
1761299721060937000,4.63293701171875,-3.2763071060180664,-1.4706568717956543,-1.6231486797332764
1761299721081059000,4.65305908203125,-3.5795912742614746,-1.3038713932037354,-2.0353639125823975
1761299721101180200,4.67318017578125,-3.770380973815918,-1.091282606124878,-1.839694857597351
1761299721121302000,4.693302001953125,-3.5400307178497314,-0.9597545266151428,-1.1502386331558228
1761299721141423000,4.713423095703125,-3.0092921257019043,-0.9258841276168823,-0.5288012027740479
1761299721161545000,4.733544921875,-2.4649722576141357,-0.9136537313461304,-0.28768131136894226
1761299721181666000,4.753666015625,-2.1344106197357178,-1.0520906448364258,-0.20664840936660767
1761299721201788000,4.773787841796875,-1.921614408493042,-1.2065166234970093,-0.12149205803871155
1761299721221909000,4.793908935546875,-1.659151554107666,-0.9892545342445374,-0.14930842816829681
1761299721242031000,4.814031005859375,-1.4046591520309448,-0.7245613932609558,-0.09734086692333221
1761299721262153200,4.8341533203125,-1.1245132684707642,-0.7151415348052979,0.09955133497714996
1761299721282274000,4.854274169921875,-0.8489741086959839,-0.8848637342453003,0.20237518846988678
1761299721302396200,4.874396240234375,-0.6755866408348083,-0.7965933084487915,0.11109089851379395
1761299721322517200,4.894517333984375,-0.5939027070999146,-0.4785841405391693,-0.07537595927715302
1761299721342638800,4.914638916015625,-0.52760249376297,-0.35011884570121765,-0.22243674099445343
1761299721362760200,4.93476025390625,-0.4493008852005005,-0.4955669045448303,-0.30918261408805847
1761299721382882000,4.954882080078125,-0.29724976420402527,-0.5706908106803894,-0.26292580366134644
1761299721403003000,4.9750029296875,-0.0329546183347702,-0.5281134247779846,0.027659842744469643
1761299721423125000,4.995125,0.18097709119319916,-0.32930687069892883,0.2877582311630249
1761299721443246000,5.01524609375,0.1320214569568634,-0.13156244158744812,0.3241736888885498
1761299721463368000,5.035367919921875,0.12658262252807617,0.13239619135856628,0.4987785518169403
1761299721483489000,5.055489013671875,0.41640156507492065,0.5308314561843872,0.9280613660812378
1761299721503611100,5.075611083984375,0.8239368200302124,0.7229369282722473,1.461413860321045
1761299721523732000,5.09573193359375,1.0202629566192627,0.6151214838027954,1.848918080329895
1761299721543854000,5.11585400390625,1.0189948081970215,0.5755526423454285,1.836084246635437
1761299721563975200,5.13597509765625,0.9440802335739136,0.5865311026573181,1.5223051309585571
1761299721584097000,5.156096923828125,0.8855701684951782,0.5470080971717834,1.079277515411377
1761299721604218000,5.176218017578125,0.8314333558082581,0.4405820369720459,0.6616376042366028
1761299721624340500,5.196340576171875,0.7831704616546631,0.1577925682067871,0.3931342661380768
1761299721644462600,5.216462646484375,0.7338858246803284,0.034342698752880096,0.19951580464839935
1761299721664583700,5.236583740234375,0.6427704095840454,0.1456541121006012,0.14979487657546997
1761299721684705500,5.25670556640625,0.5253067016601562,0.34883418679237366,0.24715034663677216
1761299721704826600,5.27682666015625,0.4250670075416565,0.5068053007125854,0.29455676674842834
1761299721724948700,5.29694873046875,0.4330988824367523,0.6469079852104187,0.19409877061843872
1761299721745069600,5.317069580078125,0.47778695821762085,0.6851489543914795,0.015713822096586227
1761299721765191700,5.337191650390625,0.5090492963790894,0.5507361888885498,-0.21529346704483032
1761299721785312800,5.357312744140625,0.451875776052475,0.1289053112268448,-0.2185448706150055
1761299721805434400,5.377434326171875,0.4634597599506378,-0.5709788203239441,0.0427393838763237
1761299721825555500,5.397555419921875,0.46942904591560364,-0.9669617414474487,0.21972063183784485
1761299721845677600,5.417677490234375,0.33513396978378296,-0.6036490797996521,0.11841873824596405
1761299721865798400,5.43779833984375,0.22848092019557953,0.11456361413002014,-0.09583067148923874
1761299721885920500,5.45792041015625,0.214437335729599,0.33607566356658936,-0.35405176877975464
1761299721906041600,5.47804150390625,0.17329415678977966,0.08842218667268753,-0.4857102632522583
1761299721926163700,5.498163818359375,0.047014448791742325,-0.13795490562915802,-0.49998536705970764
1761299721946284500,5.518284423828125,0.02580779604613781,-0.014497100375592709,-0.7683245539665222
1761299721966406700,5.53840673828125,-0.015873903408646584,0.1753847748041153,-1.3610612154006958
1761299721986528500,5.558528564453125,-0.10311612486839294,0.044975362718105316,-1.7630085945129395
1761299722006649600,5.578649658203125,-0.25266826152801514,-0.20762166380882263,-1.7776074409484863
1761299722026771500,5.598771484375,-0.38352227210998535,-0.35805267095565796,-1.6839810609817505
1761299722046892500,5.618892578125,-0.24527475237846375,-0.3047165274620056,-1.4269369840621948
1761299722067014700,5.6390146484375,-0.1713629961013794,-0.05947854369878769,-0.8366736769676208
1761299722087135500,5.659135498046875,-0.23753659427165985,0.26077142357826233,0.00813163910061121
1761299722107257600,5.679257568359375,-0.4283042252063751,0.3033779561519623,0.6226897835731506
1761299722127378700,5.699378662109375,-0.6868434548377991,0.020790308713912964,0.6162369847297668
1761299722147500500,5.71950048828125,-0.8375047445297241,-0.3310915231704712,0.11723759025335312
1761299722167621600,5.73962158203125,-1.0535484552383423,-0.5368412137031555,-0.4504014253616333
1761299722187743700,5.75974365234375,-1.3794126510620117,-0.5164334774017334,-0.7527090311050415
1761299722207864600,5.779864501953125,-1.548560619354248,-0.2553408741950989,-0.7436996102333069
1761299722227986700,5.799986572265625,-1.5384052991867065,0.06085736304521561,-0.46296900510787964
1761299722248107800,5.820107666015625,-1.3411260843276978,0.2537519335746765,-0.06649491935968399
1761299722268229400,5.8402294921875,-1.050999641418457,0.2221984565258026,0.3025979697704315
1761299722288351500,5.8603515625,-0.8295848965644836,0.059800293296575546,0.5625863075256348
1761299722308472600,5.88047265625,-0.7094078063964844,-0.014728741720318794,0.6877391934394836
1761299722328594700,5.9005947265625,-0.632179319858551,-0.05127476900815964,0.6390056610107422
1761299722348715500,5.920715576171875,-0.5867804288864136,-0.12177334725856781,0.5616440773010254
1761299722368837600,5.940837646484375,-0.6083707213401794,-0.2603360116481781,0.4709561765193939
1761299722388958700,5.960958740234375,-0.7032893896102905,-0.27670562267303467,0.36062467098236084
1761299722409080600,5.98108056640625,-0.7715179920196533,-0.12910300493240356,0.17254288494586945
1761299722429201700,6.00120166015625,-0.7537200450897217,-0.03196973353624344,-0.06177317723631859
1761299722449323800,6.02132373046875,-0.6076506972312927,-0.1378108561038971,-0.15492741763591766
1761299722469444600,6.041444580078125,-0.4098179340362549,-0.27865535020828247,-0.19819115102291107
1761299722489566500,6.06156640625,-0.29554522037506104,-0.21537257730960846,-0.22696936130523682
1761299722509687600,6.0816875,-0.21158625185489655,-0.13103805482387543,-0.14012104272842407
1761299722529809400,6.101809326171875,-0.0529673732817173,-0.2472795993089676,-0.05568389967083931
1761299722549930500,6.121930419921875,0.09564459323883057,-0.4322962760925293,-0.06854433566331863
1761299722570052600,6.142052490234375,0.18986137211322784,-0.4710069000720978,-0.0877969041466713
1761299722590173400,6.16217333984375,0.2348639816045761,-0.005789156537503004,0.13210102915763855
1761299722610295600,6.182295654296875,0.32534319162368774,0.6035059690475464,0.7026560306549072
1761299722630417400,6.20241748046875,0.4972456991672516,0.8181526064872742,1.1904890537261963
1761299722650538500,6.22253857421875,0.7364626526832581,0.5340144038200378,1.2634555101394653
1761299722670660600,6.24266064453125,1.0025341510772705,0.20438383519649506,1.0801955461502075
1761299722690781400,6.262781494140625,1.1688405275344849,0.021198557689785957,0.7618739008903503
1761299722710903300,6.2829033203125,1.1205013990402222,0.09017093479633331,0.41806793212890625
1761299722731024400,6.3030244140625,0.8551761507987976,0.24627888202667236,0.11124550551176071
1761299722751146500,6.323146484375,0.5500745177268982,0.26786214113235474,-0.17426536977291107
1761299722771267300,6.343267333984375,0.3832457363605499,0.23947198688983917,-0.35073578357696533
1761299722791389400,6.363389404296875,0.41768401861190796,0.2577633261680603,-0.314935564994812
1761299722811510500,6.383510498046875,0.5968312621116638,0.4200713336467743,-0.10737977921962738
1761299722831632400,6.40363232421875,0.7918068766593933,0.5079817771911621,0.12215536832809448
1761299722851753500,6.42375341796875,0.837672233581543,0.25389936566352844,0.32644492387771606
1761299722871875600,6.44387548828125,0.8415274024009705,-0.08871514350175858,0.4806050956249237
1761299722891997700,6.463997802734375,0.886590838432312,-0.06590022146701813,0.515290379524231
1761299722912118500,6.484118408203125,0.8695142269134521,0.17755447328090668,0.3946065306663513
1761299722932240400,6.504240478515625,0.7953483462333679,0.30676528811454773,0.20420576632022858
1761299722952361500,6.524361572265625,0.6712857484817505,0.16860875487327576,0.15505686402320862
1761299722972483300,6.5444833984375,0.5479535460472107,-0.055313777178525925,0.147171750664711
1761299722992604400,6.5646044921875,0.42917400598526,-0.16104565560817719,0.11494358628988266
1761299723012726500,6.5847265625,0.295449435710907,-0.2133605182170868,-0.005277262534946203
1761299723032847400,6.604847412109375,0.1391151249408722,-0.10231100767850876,-0.3785184323787689
1761299723052969500,6.624969482421875,0.019946888089179993,0.09001539647579193,-0.7227177023887634
1761299723073090600,6.645090576171875,-0.12593974173069,0.12900035083293915,-0.782505214214325
1761299723093212400,6.66521240234375,-0.27166953682899475,-0.08639851957559586,-0.7670900225639343
1761299723113333500,6.68533349609375,-0.3972862958908081,-0.13763053715229034,-0.88231360912323
1761299723133455600,6.70545556640625,-0.5409696698188782,0.048004042357206345,-0.993333101272583
1761299723153577500,6.725577392578125,-0.6419324278831482,0.36932191252708435,-0.9164338111877441
1761299723173698300,6.7456982421875,-0.4699185788631439,0.5063410401344299,-0.48533114790916443
1761299723193820400,6.7658203125,-0.07664026319980621,0.3268761932849884,0.10468824207782745
1761299723213941500,6.78594140625,0.10735902190208435,-0.02937357872724533,0.4095478057861328
1761299723234063400,6.8060634765625,0.058523304760456085,-0.3097620904445648,0.39373770356178284
1761299723254184400,6.826184326171875,-0.21044450998306274,-0.44359660148620605,0.11242714524269104
1761299723274306600,6.846306640625,-0.5546507239341736,-0.334687203168869,-0.29708629846572876
1761299723294427400,6.866427490234375,-0.8632359504699707,-0.01814611256122589,-0.5874581933021545
1761299723314549500,6.886549560546875,-0.969967782497406,0.2973352372646332,-0.6025444269180298
1761299723334670600,6.906670654296875,-0.7940787076950073,0.3968532085418701,-0.33103707432746887
1761299723354792400,6.92679248046875,-0.522907555103302,0.29255029559135437,0.1311137080192566
1761299723374913500,6.94691357421875,-0.3516758382320404,0.18970637023448944,0.4976678788661957
1761299723395035400,6.967035400390625,-0.25912150740623474,0.2662562131881714,0.6401756405830383
1761299723415157500,6.987157470703125,-0.2417391538619995,0.3448958396911621,0.6720408797264099
1761299723435278300,7.0072783203125,-0.23927456140518188,0.2698216438293457,0.5364605784416199
1761299723455400400,7.027400390625,-0.23412427306175232,0.07358849048614502,0.30325523018836975
1761299723475521500,7.047521484375,-0.1712937355041504,-0.05587084963917732,0.12676872313022614
1761299723495643400,7.067643310546875,-0.03849709779024124,-0.14654259383678436,0.004816118162125349
1761299723515764500,7.087764404296875,0.1904269903898239,-0.209797665476799,-0.03941488265991211
1761299723535886600,7.107886474609375,0.4027399718761444,-0.38071274757385254,-0.044198520481586456
1761299723556007400,7.12800732421875,0.6005467772483826,-0.6386714577674866,-0.024306198582053185
1761299723576129500,7.148129638671875,0.7639986872673035,-0.7528296113014221,0.16333749890327454
1761299723596250600,7.168250732421875,0.7525942325592041,-0.4543798267841339,0.42780420184135437
1761299723616372200,7.188372314453125,0.5611996054649353,0.12736299633979797,0.5201848149299622
1761299723636494000,7.208494140625,0.3221190869808197,0.3929750621318817,0.4935879111289978
1761299723656615000,7.228614990234375,0.052707839757204056,0.12164289504289627,0.514350950717926
1761299723676737000,7.248737060546875,0.03479772433638573,-0.10097105801105499,0.595810055732727
1761299723696857900,7.26885791015625,0.24919462203979492,0.536331057548523,0.6057774424552917
1761299723716980000,7.28897998046875,0.32057005167007446,1.4355075359344482,0.5538766384124756
1761299723737101000,7.30910107421875,0.6444473266601562,1.5014338493347168,0.896429181098938
1761299723757223200,7.32922314453125,1.395344853401184,0.7382009029388428,1.5270158052444458
1761299723777344000,7.349343994140625,2.146134614944458,0.18773093819618225,1.9639523029327393
1761299723797466000,7.369466064453125,2.6814637184143066,0.29889512062072754,1.86004638671875
1761299723817587200,7.389587158203125,2.877758741378784,0.5943093299865723,1.269992709159851
1761299723837709000,7.409708984375,2.8578407764434814,0.7369322180747986,0.4580056071281433
1761299723857831000,7.429830810546875,2.736077308654785,0.834555983543396,-0.271453857421875
1761299723877952000,7.449951904296875,2.6341724395751953,0.8417541980743408,-0.6080901026725769
1761299723898074000,7.47007421875,2.5635130405426025,0.7116572260856628,-0.35318121314048767
1761299723918195000,7.49019482421875,2.500749111175537,0.7783660888671875,0.03308107331395149
1761299723938317000,7.510317138671875,2.3993117809295654,1.0695921182632446,0.3854331374168396
1761299723958438100,7.530438232421875,2.196582555770874,1.277795672416687,0.6152239441871643
1761299723978560000,7.55056005859375,1.9326056241989136,1.3179258108139038,0.6386796832084656
1761299723998681000,7.57068115234375,1.7588589191436768,1.2262307405471802,0.5544191598892212
1761299724018803200,7.59080322265625,1.7473347187042236,1.1378166675567627,0.5138000249862671
1761299724038924000,7.610924072265625,1.6618587970733643,1.04248046875,0.4475075602531433
1761299724059046100,7.631046142578125,1.4827526807785034,0.8612242937088013,0.2272801250219345
1761299724079167200,7.651167236328125,1.2666844129562378,0.725415050983429,0.004099981393665075
1761299724099288800,7.671288818359375,1.0444899797439575,0.7118430137634277,-0.06384889781475067
1761299724119411000,7.691410888671875,0.880028247833252,0.636370837688446,-0.010687064379453659
1761299724139532000,7.711531982421875,0.7543520331382751,0.3546782433986664,0.12058726698160172
1761299724159654100,7.731654052734375,0.5874252319335938,0.04348721355199814,0.26766884326934814
1761299724179775000,7.75177490234375,0.36320212483406067,-0.05878983810544014,0.25848886370658875
1761299724199897000,7.77189697265625,0.08940295875072479,0.11033309251070023,-0.04576260223984718
1761299724220018200,7.79201806640625,-0.12255322188138962,0.49213317036628723,-0.3416708707809448
1761299724240140000,7.81214013671875,-0.24794118106365204,0.7211052775382996,-0.1623138189315796
1761299724260261000,7.83226123046875,-0.31588828563690186,0.5745808482170105,0.29492491483688354
1761299724280383200,7.85238330078125,-0.3472770154476166,0.3205510973930359,0.46065717935562134
1761299724300504000,7.872504150390625,-0.28957727551460266,0.28337228298187256,0.17497879266738892
1761299724320626000,7.8926259765625,0.055087506771087646,0.3964795470237732,-0.23866207897663116
1761299724340748000,7.912748046875,0.4955502450466156,0.09628454595804214,-0.5045901536941528
1761299724360868900,7.932868896484375,0.6892220377922058,-0.30763256549835205,-0.575497567653656
1761299724380991000,7.952990966796875,0.42654240131378174,-0.2387111932039261,-0.5568857192993164
1761299724401112000,7.973112060546875,0.06529198586940765,0.31336459517478943,-0.5095658898353577
1761299724421234200,7.993234130859375,-0.03334500640630722,0.6980644464492798,-0.5465061664581299
1761299724441354000,8.01335400390625,0.13709792494773865,0.6939160227775574,-0.5400617718696594
1761299724461475000,8.03347509765625,0.385125070810318,0.7629539370536804,-0.41606953740119934
1761299724481597000,8.053596923828126,0.5009667277336121,0.6440980434417725,-0.18239760398864746
1761299724501718000,8.073718017578125,0.4889674782752991,0.4197368025779724,0.10986864566802979
1761299724521840000,8.093840087890625,0.5216721892356873,0.17671418190002441,0.29913026094436646
1761299724541961000,8.1139609375,0.6593372821807861,0.22920992970466614,0.39776507019996643
1761299724562083000,8.1340830078125,0.8351739645004272,0.6353722810745239,0.45592668652534485
1761299724582204200,8.1542041015625,0.9249567985534668,0.8510777950286865,0.4812302589416504
1761299724602326300,8.174326171875,0.7270251512527466,0.635769248008728,0.35765090584754944
1761299724622447000,8.194447021484375,0.5129764676094055,0.4148769676685333,0.09567692875862122
1761299724642569000,8.21456884765625,0.38646233081817627,0.35801345109939575,-0.06811226159334183
1761299724662691000,8.234691162109375,0.39060479402542114,0.6189946532249451,-0.19295406341552734
1761299724682812000,8.25481201171875,0.4288767874240875,0.8912272453308105,-0.18107496201992035
1761299724702934000,8.27493408203125,0.28775063157081604,0.8457208871841431,-0.13768574595451355
1761299724723055000,8.29505517578125,0.08469255268573761,0.7862962484359741,0.015217837877571583
1761299724743177000,8.315177001953124,0.051240574568510056,0.7827768921852112,0.20455212891101837
1761299724763298000,8.335298095703125,0.2618142068386078,0.9137711524963379,0.4385071098804474
1761299724783420200,8.355420166015625,0.4359166622161865,0.7743210196495056,0.6641185283660889
1761299724803541000,8.375541015625,0.350044846534729,0.07010571658611298,0.724739670753479
1761299724823663000,8.3956630859375,0.2817072570323944,-0.8950375914573669,-0.18827037513256073
1761299724843785000,8.415784912109375,0.3628702163696289,-0.31914833188056946,-0.8245245218276978
1761299724863906000,8.435906005859374,0.34807446599006653,0.40137529373168945,-0.7026788592338562
