time,seconds_elapsed,z,y,x
1761397157225171500,0.12217138671875,5.651846885681152,6.708278179168701,-1.4943177700042725
1761397157244548000,0.141548095703125,5.742774486541748,6.5150580406188965,-1.0911271572113037
1761397157263925000,0.160925048828125,5.990431308746338,6.269793510437012,-1.0001999139785767
1761397157283302000,0.180302001953125,6.6484575271606445,6.148955821990967,-1.542174220085144
1761397157302678500,0.199678466796875,6.9583282470703125,6.021538257598877,-2.0237298011779785
1761397157322055400,0.219055419921875,7.068996429443359,5.760122299194336,-2.1613171100616455
1761397157341432300,0.238432373046875,6.713063716888428,5.582455158233643,-1.552941918373108
1761397157360809000,0.25780908203125,5.2941203117370605,5.322834014892578,-0.8835497498512268
1761397157380185900,0.277185791015625,4.562514781951904,5.935994625091553,-1.4446666240692139
1761397157399562800,0.296562744140625,5.1667022705078125,5.7547383308410645,-1.3010972738265991
1761397157418939400,0.315939453125,7.627720355987549,5.715256690979004,-1.3627125024795532
1761397157438316300,0.33531640625,9.138788223266602,5.7786664962768555,-0.7908278703689575
1761397157457693200,0.354693115234375,10.2478609085083,5.617749214172363,-0.9583254456520081
1761397157477056300,0.37405615234375,8.68774127960205,5.435296535491943,-1.399801254272461
1761397157496446700,0.39344677734375,4.164109706878662,5.814558982849121,-0.5359922647476196
1761397157515823600,0.41282373046875,3.680161237716675,6.52044153213501,-0.4384847581386566
1761397157535186700,0.432186767578125,6.565905570983887,5.377270698547363,0.3732803463935852
1761397157554577200,0.4515771484375,6.857231616973877,4.307679176330566,1.0636097192764282
1761397157573953800,0.470953857421875,6.591628074645996,4.4614176750183105,0.664606511592865
1761397157593330700,0.49033056640625,6.802794933319092,4.043870449066162,1.3465609550476074
1761397157612707600,0.50970751953125,6.101099491119385,3.9451663494110107,1.6313068866729736
1761397157632084200,0.529084228515625,6.811768054962158,6.686742782592773,-0.3732803463935852
1761397157651447600,0.548447509765625,12.948760032653809,7.882555961608887,0.5659025311470032
1761397157670838000,0.567838134765625,18.781265258789062,7.989634990692139,1.954936146736145
1761397157690214700,0.587214599609375,17.11466407775879,9.804591178894043,2.3156540393829346
1761397157709578000,0.606577880859375,12.30509090423584,11.56570816040039,1.705484390258789
1761397157728968400,0.625968505859375,10.631311416625977,11.45683479309082,1.1497513055801392
1761397157748345000,0.645344970703125,10.238887786865234,10.978270530700684,1.6660027503967285
1761397157767708400,0.66470849609375,9.910472869873047,9.128020286560059,3.5874392986297607
1761397157787099000,0.684098876953125,11.323434829711914,6.263213157653809,4.695316314697266
1761397157806475500,0.7034755859375,11.56690502166748,3.7956149578094482,5.893522262573242
1761397157825838800,0.7228388671875,9.277571678161621,3.1513473987579346,6.45523738861084
1761397157845229000,0.74222900390625,5.1774702072143555,4.012165546417236,4.016951084136963
1761397157864606000,0.76160595703125,1.2029916048049927,3.091526746749878,3.08135724067688
1761397157883969300,0.78096923828125,-1.8149559497833252,2.2163519859313965,1.9812572002410889
1761397157903359500,0.800359375,-4.708476543426514,2.9593234062194824,-3.3098719120025635
1761397157922736400,0.819736328125,-5.267798900604248,1.0929217338562012,-0.7328019142150879
1761397157942099700,0.839099609375,-4.923232555389404,1.6612170934677124,-0.14117653667926788
1761397157961490000,0.858489990234375,-4.364508628845215,1.8598214387893677,-0.6083751320838928
1761397157980866800,0.87786669921875,-2.71645188331604,2.5465614795684814,-0.9990034699440002
1761397158000230100,0.897230224609375,2.30069899559021,3.504288673400879,-1.0390832424163818
1761397158019620400,0.916620361328125,9.93559741973877,6.005984783172607,-1.358525037765503
1761397158038997200,0.935997314453125,14.364114761352539,8.651249885559082,-0.064606212079525
1761397158058360600,0.955360595703125,18.452251434326172,12.41575813293457,0.1657029688358307
1761397158077750800,0.974750732421875,23.30010986328125,13.72523021697998,2.459223508834839
1761397158097127700,0.994127685546875,26.352754592895508,12.554542541503906,8.978468894958496
1761397158116491000,1.013490966796875,25.679174423217773,10.703095436096191,11.43529987335205
1761397158135881200,1.032881103515625,22.682762145996094,9.595816612243652,8.175676345825195
1761397158155258000,1.052258056640625,17.093727111816406,8.614161491394043,4.802993297576904
1761397158174621400,1.071621337890625,10.615757942199707,7.620542049407959,4.105485439300537
1761397158194011600,1.09101171875,4.981258392333984,6.538387775421143,3.827319860458374
1761397158213388500,1.110388427734375,1.74496591091156,5.178666591644287,3.552743434906006
1761397158232751900,1.129751953125,0.9565308690071106,3.726821184158325,3.9176487922668457
1761397158252142000,1.14914208984375,1.6217355728149414,2.792423963546753,4.0767717361450195
1761397158271519000,1.16851904296875,1.8550357818603516,1.6420745849609375,4.94775915145874
1761397158290882300,1.18788232421875,1.9052850008010864,0.9613165259361267,4.203591346740723
1761397158310272500,1.2072724609375,1.339382529258728,0.5395814776420593,2.3545374870300293
1761397158329649200,1.226649169921875,0.7471588850021362,0.5234299302101135,1.113858938217163
1761397158349012700,1.2460126953125,-0.46002015471458435,0.8225327730178833,0.28115665912628174
1761397158368403000,1.26540283203125,-2.557927370071411,1.0791629552841187,0.137587308883667
1761397158387779600,1.284779541015625,-2.3509483337402344,2.393420934677124,0.631106972694397
1761397158407143000,1.304142822265625,0.7615157961845398,6.252445697784424,-1.1276177167892456
1761397158426533400,1.323533447265625,7.909475326538086,11.554342269897461,-3.377469062805176
1761397158445910000,1.342909912109375,15.409777641296387,13.615758895874023,-0.33738797903060913
1761397158465273300,1.3622734375,19.173686981201172,14.979069709777832,1.7694923877716064
1761397158484663800,1.381663818359375,18.392431259155273,14.045270919799805,5.68893575668335
1761397158504040400,1.40104052734375,19.048662185668945,11.69013500213623,6.7692952156066895
1761397158523403800,1.42040380859375,18.39961051940918,8.84925651550293,3.3379876613616943
1761397158542794200,1.439794189453125,14.34736442565918,7.010372161865234,-1.0845468044281006
1761397158562171000,1.4591708984375,10.120443344116211,5.879763603210449,-3.0412776470184326
1761397158581534200,1.4785341796875,6.873383045196533,4.500301361083984,-2.6799614429473877
1761397158600924700,1.497924560546875,3.7986059188842773,3.0939197540283203,-1.550549030303955
1761397158620301300,1.51730126953125,0.714257538318634,2.1684954166412354,-0.43968117237091064
1761397158639664600,1.53666455078125,-1.7838492393493652,1.6893328428268433,0.9176474809646606
1761397158659054800,1.556054931640625,-3.442673683166504,1.877767562866211,1.6959130764007568
1761397158678431700,1.575431640625,-4.218546390533447,1.6450655460357666,2.5836503505706787
1761397158697795000,1.594795166015625,-4.630710124969482,1.6199408769607544,3.205185890197754
1761397158717185300,1.614185302734375,-5.481956481933594,1.734796404838562,2.2851455211639404
1761397158736562200,1.633562255859375,-5.3557353019714355,1.568495273590088,1.1982059478759766
1761397158755925500,1.652925537109375,-2.8695926666259766,2.3988046646118164,0.3032902777194977
1761397158775315700,1.672315673828125,0.7363911867141724,3.710669755935669,0.5264210104942322
1761397158794692600,1.691692626953125,9.328418731689453,6.131010055541992,1.0558329820632935
1761397158814056000,1.711055908203125,21.875782012939453,9.164510726928711,0.9541380405426025
1761397158833446100,1.730446044921875,28.543981552124023,12.121440887451172,1.8729819059371948
1761397158852823000,1.749822998046875,29.026134490966797,12.273386001586914,6.714260101318359
1761397158872186400,1.769186279296875,34.067813873291016,7.232306480407715,7.576274871826172
1761397158891576600,1.78857666015625,44.25465774536133,0.5078766345977783,6.208776473999023
1761397158910953500,1.807953369140625,43.177886962890625,-2.138585329055786,12.76929759979248
1761397158930316800,1.82731689453125,18.74357795715332,0.4695914387702942,17.105690002441406
1761397158949707000,1.84670703125,-5.717649936676025,2.8319056034088135,12.79023551940918
1761397158969084000,1.866083984375,-13.868202209472656,3.620340585708618,5.182853698730469
1761397158988447200,1.885447265625,-8.895915985107422,2.4430718421936035,3.7423746585845947
1761397159007837400,1.90483740234375,-5.031507968902588,1.0055837631225586,3.0203404426574707
1761397159027214300,1.92421435546875,-4.731208801269531,0.24466611444950104,1.1335997581481934
1761397159046577700,1.94357763671875,-5.24626350402832,0.3200400173664093,-0.49591249227523804
1761397159065967900,1.9629677734375,-5.144568920135498,0.7322037220001221,-0.1944168359041214
1761397159085344800,1.9823447265625,-6.035895347595215,1.1168500185012817,-0.04247260093688965
1761397159104721400,2.001721435546875,-6.613163471221924,1.7365909814834595,0.5724828243255615
1761397159124098300,2.021098388671875,-5.346164226531982,2.585444927215576,0.4737788736820221
1761397159143475000,2.040474853515625,-2.6458635330200195,4.29451847076416,0.22851456701755524
1761397159162838300,2.05983837890625,1.6378871202468872,7.133004188537598,1.1371889114379883
1761397159182228700,2.079228759765625,12.887144088745117,10.433902740478516,-0.97926265001297
1761397159201605400,2.09860546875,24.365514755249023,15.032310485839844,-3.6981074810028076
1761397159220968700,2.11796875,28.521249771118164,14.44188117980957,0.5623133182525635
1761397159240359200,2.137359130859375,32.799617767333984,9.897313117980957,4.314857482910156
1761397159259735800,2.15673583984375,34.70908737182617,5.1565327644348145,3.211168050765991
1761397159279099100,2.17609912109375,32.0213508605957,3.497110366821289,-0.9278169870376587
1761397159298489600,2.195489501953125,23.404796600341797,3.721437454223633,-2.338984251022339
1761397159317866200,2.2148662109375,14.173885345458984,3.2823543548583984,-1.435693621635437
1761397159337229600,2.2342294921875,5.626124382019043,2.589632272720337,-2.0853450298309326
1761397159356620000,2.2536201171875,-2.0554347038269043,2.246262311935425,-2.166102647781372
1761397159375996700,2.27299658203125,-7.168896675109863,1.0013962984085083,0.9505487680435181
1761397159395360000,2.292360107421875,-8.545966148376465,0.003589233849197626,4.599005222320557
1761397159414750200,2.311750244140625,-7.9585280418396,-0.22791635990142822,4.37228536605835
1761397159434127000,2.331127197265625,-6.733402729034424,-0.8123632669448853,1.805384635925293
1761397159453490400,2.350490478515625,-4.711467742919922,-0.8147560954093933,-0.6837490797042847
1761397159472880600,2.369880615234375,-2.8600213527679443,-0.07357929646968842,-2.5734808444976807
1761397159492257500,2.389257568359375,-1.2795618772506714,0.28893333673477173,-2.5489542484283447
1761397159511620900,2.408620849609375,0.5060819983482361,2.176870346069336,-2.977867841720581
1761397159531011000,2.428010986328125,4.040879249572754,4.12343168258667,-1.0923235416412354
1761397159550388000,2.447387939453125,9.163912773132324,8.446065902709961,-1.690529227256775
1761397159569751300,2.466751220703125,13.657633781433105,12.897314071655273,-4.5816569328308105
1761397159589141500,2.4861416015625,18.633508682250977,12.349357604980469,-3.032304525375366
1761397159608518400,2.505518310546875,28.301109313964844,9.851848602294922,-0.4372883439064026
1761397159627881700,2.5248818359375,33.6855583190918,6.538387775421143,0.14297115802764893
1761397159647272000,2.54427197265625,29.93720245361328,6.934998035430908,-1.415354609489441
1761397159666648800,2.56364892578125,19.14138412475586,7.369295597076416,1.5690934658050537
1761397159686012200,2.58301220703125,8.656036376953125,6.97268533706665,3.4959139823913574
1761397159705402400,2.60240234375,0.22372891008853912,6.366703033447266,1.2424731254577637
1761397159724779300,2.621779296875,-4.527220249176025,4.814957141876221,-0.4205385744571686
1761397159744142600,2.641142578125,-5.609374523162842,2.956930637359619,0.6849454641342163
1761397159763532800,2.66053271484375,-3.0484559535980225,1.4913266897201538,1.5074782371520996
1761397159782909700,2.67990966796875,0.7136593461036682,0.8805587291717529,0.7698906660079956
1761397159802273000,2.69927294921875,2.7020950317382812,0.4468596279621124,0.4145565330982208
1761397159821663200,2.718663330078125,2.705684185028076,0.2913261651992798,0.28235307335853577
1761397159841040100,2.7380400390625,0.7202396392822266,0.8895317912101746,0.3768695592880249
1761397159860416800,2.757416748046875,-0.4342973232269287,2.0135602951049805,0.9684949517250061
1761397159879793700,2.776793701171875,0.3475574851036072,3.266202926635742,1.8005990982055664
1761397159899170600,2.796170654296875,4.920241355895996,5.377869129180908,1.1784651279449463
1761397159918533600,2.81553369140625,10.533205032348633,9.015557289123535,0.6604190468788147
1761397159937924000,2.834924072265625,17.006986618041992,12.013166427612305,0.36670008301734924
1761397159957301000,2.854301025390625,20.339590072631836,12.528221130371094,-0.13878370821475983
1761397159976664000,2.8736640625,23.730220794677734,11.58006477355957,1.332203984260559
1761397159996054500,2.893054443359375,29.071598052978516,9.719047546386719,2.672184705734253
1761397160015431400,2.912431396484375,29.785856246948242,8.696115493774414,1.3651052713394165
1761397160034794500,2.93179443359375,21.455842971801758,8.028517723083496,4.149752616882324
1761397160054185000,2.95118505859375,10.171889305114746,7.573283672332764,7.1988067626953125
1761397160073561600,2.9705615234375,-0.4953143000602722,6.941578388214111,4.680361270904541
1761397160092925000,2.989925048828125,-5.386841773986816,6.026922225952148,2.017747640609741
1761397160112315400,3.0093154296875,-6.048457622528076,4.64805793762207,0.8662018179893494
1761397160131692000,3.028692138671875,-5.281557559967041,2.2881367206573486,0.4534398913383484
1761397160151055400,3.048055419921875,-2.8773691654205322,0.576670229434967,-0.4833501875400543
1761397160170445800,3.06744580078125,0.015553346835076809,0.2877369225025177,-1.1856436729431152
1761397160189822500,3.086822509765625,0.9595218896865845,0.5994020700454712,-0.388235479593277
1761397160209199400,3.106199462890625,-0.5670989751815796,1.4093725681304932,-0.08673982322216034
1761397160228576300,3.125576171875,-1.9567307233810425,2.5872395038604736,0.44446679949760437
1761397160247953000,3.144952880859375,1.2083754539489746,4.25084924697876,0.97148597240448
1761397160267316200,3.164316162109375,7.83111047744751,7.533802032470703,1.1509476900100708
1761397160286706400,3.18370654296875,13.843077659606934,12.317054748535156,1.5978072881698608
1761397160306083300,3.203083251953125,13.712668418884277,13.38126277923584,0.39900317788124084
1761397160325446700,3.22244677734375,14.252249717712402,11.503495216369629,1.3076776266098022
1761397160344836900,3.2418369140625,21.661027908325195,9.267401695251465,1.4656038284301758
1761397160364213800,3.2612138671875,26.38804817199707,6.884748935699463,-0.24586252868175507
1761397160383577000,3.2805771484375,23.790639877319336,6.626922130584717,-0.9266205430030823
1761397160402967300,3.29996728515625,14.93839168548584,6.417550563812256,2.699103832244873
1761397160422344200,3.31934423828125,5.088935375213623,6.363711833953857,3.3714871406555176
1761397160441707500,3.33870751953125,-3.067598581314087,6.568896293640137,1.454237937927246
1761397160461097700,3.35809765625,-7.060023307800293,6.0640106201171875,0.3678964674472809
1761397160480474600,3.377474609375,-6.68435001373291,5.132604598999023,-0.4911268353462219
1761397160499838000,3.396837890625,-3.9870407581329346,3.700500249862671,-1.5134602785110474
1761397160519228200,3.416228271484375,-0.4827519655227661,1.9776679277420044,-1.8131613731384277
1761397160538605000,3.43560498046875,2.493321180343628,0.8291130661964417,-1.2628121376037598
1761397160557968400,3.454968505859375,4.412364959716797,0.4815555512905121,-0.4989035129547119
1761397160577358600,3.474358642578125,4.310669898986816,1.1976077556610107,-0.4325026869773865
1761397160596735500,3.493735595703125,2.579462766647339,2.2791635990142822,0.33858439326286316
1761397160616098800,3.513098876953125,3.4654054641723633,3.865604877471924,1.5696916580200195
1761397160635489000,3.532489013671875,6.017350673675537,6.062216281890869,2.1361923217773438
1761397160654866000,3.551865966796875,9.807581901550293,9.751948356628418,0.23210379481315613
1761397160674229200,3.571229248046875,15.15195083618164,12.692129135131836,-1.4673985242843628
1761397160693619500,3.590619384765625,20.475980758666992,13.412368774414062,-1.196411371231079
1761397160712996000,3.60999609375,21.876380920410156,13.298111915588379,0.7405785918235779
1761397160732359400,3.629359375,18.94397735595703,12.07358455657959,1.8951154947280884
1761397160751750000,3.64875,17.760726928710938,10.190433502197266,3.270390272140503
1761397160771126500,3.66812646484375,14.767305374145508,7.864011764526367,3.4408788681030273
1761397160790489900,3.68748974609375,10.17009449005127,6.474380016326904,1.5074782371520996
1761397160809880300,3.70688037109375,5.936593055725098,5.164309501647949,0.9212366938591003
1761397160829257000,3.726257080078125,3.0652058124542236,4.1521453857421875,2.235494613647461
1761397160848620300,3.745620361328125,0.06281159073114395,3.129213809967041,3.026322364807129
1761397160868010800,3.7650107421875,-2.3982064723968506,1.9465612173080444,2.7864420413970947
1761397160887387400,3.784387451171875,-2.925823926925659,1.4291132688522339,2.1439690589904785
1761397160906750700,3.803750732421875,-2.6530420780181885,1.2263215780258179,1.2430713176727295
1761397160926141200,3.82314111328125,-2.8905298709869385,1.246660590171814,0.3326023519039154
1761397160945517800,3.842517822265625,-3.6119658946990967,1.3776676654815674,-0.25304099917411804
1761397160964894700,3.861894775390625,-3.308077335357666,1.5415760278701782,-0.8129615187644958
1761397160984271400,3.881271240234375,-0.584446907043457,2.1990039348602295,-0.048454657196998596
1761397161003648300,3.900648193359375,3.6885361671447754,4.070191383361816,1.8370895385742188
1761397161023011600,3.920011474609375,10.908280372619629,6.303891181945801,2.266003131866455
1761397161042401800,3.93940185546875,20.794824600219727,8.422137260437012,0.35473597049713135
1761397161061778700,3.95877880859375,26.4598331451416,9.232706069946289,1.7114664316177368
1761397161081142000,3.97814208984375,25.782066345214844,9.89133071899414,5.585446357727051
1761397161100532200,3.9975322265625,23.78106689453125,9.353543281555176,8.083553314208984
1761397161119909000,4.0169091796875,21.634706497192383,7.723433494567871,8.296514511108398
1761397161139272400,4.0362724609375,19.61336898803711,4.880161762237549,7.366902828216553
1761397161158662700,4.05566259765625,15.39661693572998,4.503890514373779,4.704289436340332
1761397161178039600,4.07503955078125,9.302696228027344,4.748556613922119,3.067598581314087
1761397161197403000,4.09440283203125,3.906282901763916,4.70608377456665,3.1387851238250732
1761397161216793000,4.11379296875,-0.27756741642951965,4.056432723999023,3.7160534858703613
1761397161236170000,4.133169921875,-3.5234313011169434,2.947359323501587,3.6329028606414795
1761397161255533300,4.152533203125,-5.480162143707275,2.101496458053589,3.004786968231201
1761397161274923500,4.171923583984375,-4.792823791503906,1.384247899055481,1.609771490097046
1761397161294300400,4.191300537109375,-3.160918712615967,1.0791629552841187,0.1459621787071228
1761397161313663700,4.210663818359375,-2.362314224243164,1.0887342691421509,-0.7501499056816101
1761397161333054000,4.230053955078125,-2.3922245502471924,0.9577272534370422,-1.0839486122131348
1761397161352430800,4.249430908203125,-2.3054845333099365,0.7334001660346985,-0.8255237936973572
1761397161371794200,4.268794189453125,-1.0911271572113037,0.8889335989952087,-0.012562318705022335
1761397161391184400,4.288184326171875,6.454638957977295,3.3367912769317627,-2.9461629390716553
1761397161410561300,4.307561279296875,19.09592056274414,6.119045734405518,-2.8492536544799805
1761397161429924600,4.326924560546875,29.90489959716797,6.260222434997559,5.142175674438477
1761397161449314800,4.346314697265625,36.821353912353516,2.3635106086730957,15.545570373535156
1761397161468691700,4.365691650390625,40.04747772216797,-1.1198409795761108,16.08216094970703
1761397161488054800,4.3850546875,33.73939895629883,1.3106685876846313,6.7896342277526855
1761397161507445200,4.4044453125,21.317058563232422,3.273381471633911,3.4235310554504395
1761397161526822000,4.42382177734375,8.711071014404297,5.699703693389893,2.617149829864502
1761397161546185200,4.443185302734375,-0.8111668825149536,6.811768054962158,2.6159534454345703
1761397161565575700,4.46257568359375,-5.245665550231934,5.898307800292969,3.4648072719573975
1761397161584952300,4.481952392578125,-5.023132801055908,4.715655326843262,4.701298236846924
1761397161604315600,4.501315673828125,-3.934398651123047,3.8943188190460205,6.168098449707031
1761397161623706000,4.5207060546875,-3.678964853286743,2.8109683990478516,6.468996047973633
1761397161643082800,4.540082763671875,-4.070191383361816,1.456630825996399,3.421138286590576
1761397161662446000,4.559446044921875,-4.464408874511719,0.4815555512905121,-0.4695914387702942
1761397161681836300,4.578836181640625,-3.5772697925567627,0.6095715761184692,-2.2408783435821533
1761397161701213200,4.598213134765625,-1.1353943347930908,0.5934200286865234,-1.4087743759155273
1761397161720576500,4.617576416015625,2.612962245941162,1.2149556875228882,-0.4055834412574768
1761397161739966700,4.636966796875,9.208778381347656,1.7072789669036865,1.4135600328445435
1761397161759343600,4.656343505859375,19.88555335998535,2.815753936767578,-0.32303106784820557
1761397161778707000,4.67570703125,25.693531036376953,3.950550079345703,-1.6444673538208008
1761397161798097200,4.69509716796875,29.51068115234375,5.103292465209961,-0.6825526356697083
1761397161817474000,4.71447412109375,33.64847183227539,3.4295129776000977,3.197409152984619
1761397161836837400,4.73383740234375,35.43351745605469,1.4069796800613403,5.505885124206543
1761397161856227600,4.7532275390625,30.40021324157715,1.6630117893218994,4.752145767211914
1761397161875604500,4.7726044921875,17.434104919433594,3.308675527572632,3.9044883251190186
1761397161894967800,4.7919677734375,5.979065418243408,5.065007209777832,4.292723655700684
1761397161914358000,4.81135791015625,0.8548358678817749,5.374279499053955,4.466801643371582
1761397161933735000,4.83073486328125,-0.1495514214038849,4.237689018249512,4.1144585609436035
1761397161953098200,4.85009814453125,-0.867398202419281,2.830111026763916,3.9110686779022217
1761397161972488400,4.869488525390625,-1.301695466041565,2.0404794216156006,3.8392839431762695
1761397161991865300,4.888865234375,-1.820937991142273,1.607378602027893,2.2504496574401855
1761397162011228700,4.908228759765625,-2.5160529613494873,0.7106683254241943,0.6173482537269592
1761397162030619000,4.927618896484375,-2.998206853866577,0.3242274820804596,-0.9218349456787109
1761397162049995800,4.946995849609375,-3.8009986877441406,0.4743770956993103,-1.856830358505249
1761397162069359000,4.966359130859375,-4.698307037353516,1.2640085220336914,-1.5858432054519653
1761397162088749300,4.985749267578125,-2.709871530532837,3.0993034839630127,-1.164108157157898
1761397162108126200,5.005126220703125,4.289134502410889,5.42871618270874,-1.1407781839370728
1761397162127489500,5.024489501953125,14.693127632141113,8.876773834228516,-0.5234299302101135
1761397162146879700,5.043879638671875,25.040889739990234,8.512466430664062,1.5553346872329712
1761397162166256600,5.063256591796875,27.194429397583008,12.112467765808105,-1.866999864578247
1761397162185620000,5.082619873046875,22.050458908081055,14.335400581359863,-4.019343852996826
1761397162205010200,5.10201025390625,21.0843563079834,12.600006103515625,0.6640082597732544
1761397162224386800,5.12138671875,23.434707641601562,7.196413993835449,6.891329288482666
1761397162243750100,5.140750244140625,20.09133529663086,4.908875465393066,7.254439830780029
1761397162263140600,5.160140625,13.226326942443848,4.575675010681152,4.440480709075928
1761397162282517200,5.179517333984375,8.044670104980469,3.827319860458374,2.5782663822174072
1761397162301880600,5.198880615234375,4.668995380401611,2.846860647201538,1.6959130764007568
1761397162321271000,5.21827099609375,2.2923240661621094,2.3090739250183105,1.5984054803848267
1761397162340647700,5.237647705078125,-0.4899304509162903,1.0755738019943237,2.9174489974975586
1761397162360011000,5.257010986328125,-0.9272187948226929,0.9672985672950745,2.5782663822174072
1761397162379401500,5.2764013671875,-0.23688943684101105,0.8147560954093933,1.2502498626708984
1761397162398778000,5.295778076171875,0.8847461938858032,0.664606511592865,-0.48574298620224
1761397162418141400,5.315141357421875,1.5750755071640015,0.6801598072052002,-2.0446670055389404
1761397162437532000,5.334531982421875,0.8075776696205139,1.0869396924972534,-2.3365912437438965
1761397162456908500,5.353908447265625,-0.3678964674472809,1.6145570278167725,-2.0853450298309326
1761397162476271900,5.37327197265625,-0.6939185857772827,2.8348965644836426,-2.1882362365722656
1761397162495662000,5.392662109375,0.37447673082351685,3.713660717010498,-1.810768485069275
1761397162515039000,5.4120390625,4.155136585235596,4.999803066253662,-0.6484549641609192
1761397162534402300,5.43140234375,10.39083194732666,8.26660442352295,-1.2598211765289307
1761397162553792500,5.45079248046875,15.777674674987793,12.189038276672363,-5.318646430969238
1761397162573169400,5.47016943359375,15.170495986938477,15.382858276367188,-5.298307418823242
1761397162592532700,5.48953271484375,8.134998321533203,17.73261070251465,-0.8919246196746826
1761397162611923000,5.5089228515625,11.540583610534668,13.424931526184082,3.393620729446411
1761397162631299800,5.5282998046875,23.989242553710938,9.125029563903809,2.5148565769195557
1761397162650663200,5.5476630859375,28.659435272216797,8.489136695861816,-0.3320041298866272
1761397162670053400,5.567053466796875,20.10569190979004,7.304090976715088,0.50907301902771
1761397162689430300,5.58643017578125,8.113463401794434,5.8719868659973145,0.6747759580612183
1761397162708793600,5.605793701171875,-0.6149554252624512,4.510470867156982,0.8584251403808594
1761397162728183800,5.625183837890625,-4.004388809204102,2.4843480587005615,2.132004976272583
1761397162747560700,5.644560791015625,-4.692923545837402,0.3433700501918793,3.0340991020202637
1761397162766924000,5.663924072265625,-2.5262224674224854,-1.2167502641677856,2.723032236099243
1761397162786314200,5.683314208984375,1.8340985774993896,-1.8185452222824097,0.6849454641342163
1761397162805691100,5.702691162109375,5.13021183013916,-0.4941178858280182,-1.7282161712646484
1761397162825054500,5.722054443359375,2.9006991386413574,1.4895321130752563,-2.289931297302246
1761397162844444700,5.741444580078125,-0.7549355626106262,3.0215368270874023,-1.674377679824829
1761397162863821600,5.760821533203125,-0.13639089465141296,5.316253662109375,-2.1230318546295166
1761397162883184600,5.7801845703125,0.6400800347328186,7.998608112335205,-2.076371908187866
1761397162902575000,5.7995751953125,4.910670280456543,10.176674842834473,0.8979067206382751
1761397162921952000,5.818951904296875,12.68734359741211,13.39262866973877,-0.8111668825149536
1761397162941315000,5.838315185546875,12.840484619140625,15.242878913879395,-4.220340728759766
1761397162960705500,5.85770556640625,7.144968509674072,15.504294395446777,-3.207578659057617
1761397162980082200,5.877082275390625,9.05264663696289,11.519646644592285,-0.7429714202880859
1761397162999445500,5.896445556640625,18.68016815185547,6.595815658569336,1.648654818534851
1761397163018836000,5.9158359375,22.35195541381836,5.356931686401367,1.196411371231079
1761397163038212600,5.935212646484375,16.79761505126953,5.385047435760498,-0.7896314859390259
1761397163057576000,5.954575927734375,12.135200500488281,4.656432628631592,-3.0173492431640625
1761397163076966400,5.97396630859375,7.761718273162842,3.8668015003204346,-3.0969107151031494
1761397163096343000,5.993343017578125,2.899502754211426,2.7218358516693115,-1.3525429964065552
1761397163115706400,6.012706298828125,-0.4450650215148926,2.2570300102233887,0.3320041298866272
1761397163135096800,6.032096923828125,-1.3926228284835815,1.583450436592102,2.8037898540496826
1761397163154473500,6.051473388671875,-0.7692924737930298,1.1802598237991333,4.118047714233398
1761397163173850400,6.070850341796875,0.12263216078281403,1.8592232465744019,3.326023578643799
1761397163193227300,6.090227294921875,1.2693923711776733,2.5046870708465576,1.6929219961166382
1761397163212604000,6.10960400390625,3.1100711822509766,3.0855448246002197,-0.5527420043945312
1761397163231967200,6.12896728515625,6.447460651397705,4.3549370765686035,-1.3848460912704468
1761397163251357400,6.148357421875,13.158729553222656,5.997011661529541,-1.415354609489441
1761397163270734300,6.167734375,17.27558135986328,8.22831916809082,-2.5459632873535156
1761397163290097700,6.18709765625,14.470595359802246,9.334999084472656,-4.452444553375244
1761397163309487900,6.20648779296875,8.326424598693848,10.26760196685791,-6.922435760498047
1761397163328864800,6.22586474609375,13.72223949432373,9.027522087097168,-8.227720260620117
1761397163348228000,6.24522802734375,26.541786193847656,7.325028419494629,-7.034300327301025
1761397163367618300,6.264618408203125,28.582265853881836,6.922435760498047,-3.490530014038086
1761397163386995200,6.2839951171875,18.275182723999023,6.832107067108154,1.3399807214736938
1761397163406358500,6.303358642578125,6.257829189300537,6.795018196105957,3.3056845664978027
1761397163425748700,6.322748779296875,-3.6293137073516846,5.406582832336426,3.3822548389434814
1761397163445125600,6.342125732421875,-5.936593055725098,2.3222343921661377,2.4149563312530518
1761397163464489000,6.361489013671875,1.2855439186096191,0.550349235534668,-0.010767702013254166
1761397163483879200,6.380879150390625,8.02791976928711,-0.19561325013637543,-1.552941918373108
1761397163503256000,6.400256103515625,7.898707389831543,-0.6969096064567566,-0.5587241053581238
1761397163522619400,6.419619384765625,4.064209461212158,-0.035892341285943985,0.8656035661697388
1761397163542009600,6.439009521484375,1.4679967164993286,1.2975081205368042,2.0207388401031494
1761397163561386200,6.45838623046875,0.98703932762146,2.922234535217285,2.4945175647735596
1761397163580749800,6.477749755859375,2.3162522315979004,5.478965759277344,1.1718848943710327
1761397163600140000,6.49714013671875,6.415157318115234,8.144570350646973,-0.17288143932819366
1761397163619516700,6.5165166015625,9.05563735961914,10.243075370788574,-0.43968117237091064
1761397163638880000,6.5358798828125,7.146762847900391,11.657233238220215,0.39840495586395264
1761397163658270500,6.5552705078125,3.6885361671447754,12.759726524353027,-0.38225340843200684
1761397163677647000,6.574647216796875,3.920639991760254,13.080365180969238,-2.7320053577423096
1761397163697010400,6.594010498046875,12.351750373840332,10.228120803833008,-2.3850460052490234
1761397163716401000,6.61340087890625,22.185054779052734,8.62313461303711,-1.7377874851226807
1761397163735777500,6.632777587890625,21.18186378479004,6.563512325286865,2.973680257797241
1761397163755140900,6.652140869140625,10.865209579467773,5.504090309143066,4.141377925872803
1761397163774531300,6.67153125,1.4769697189331055,5.671587944030762,1.3728820085525513
1761397163793908000,6.690907958984375,-1.7467604875564575,5.376074314117432,-1.2472587823867798
1761397163813271300,6.710271240234375,0.4013960063457489,4.347160339355469,-1.532004714012146
1761397163832661500,6.72966162109375,4.9190449714660645,2.8396823406219482,1.1234302520751953
1761397163852038400,6.749038330078125,7.256234645843506,1.716252088546753,3.11246395111084
1761397163871415300,6.768415283203125,7.331608772277832,1.2179467678070068,2.693121910095215
1761397163890792000,6.7877919921875,6.4289164543151855,1.9112670421600342,0.9565308690071106
1761397163910168800,6.8071689453125,4.483551502227783,3.466003656387329,0.5581258535385132
1761397163929532200,6.8265322265625,4.030709743499756,6.084349632263184,-0.008973085321485996
1761397163948922400,6.84592236328125,4.587639331817627,8.718847274780273,-0.18125630915164948
1761397163968299300,6.86529931640625,3.84765887260437,10.700702667236328,1.6157535314559937
1761397163987662600,6.88466259765625,3.4169507026672363,11.982657432556152,1.1240284442901611
1761397164007052800,6.904052734375,6.963712215423584,13.064811706542969,-2.5190439224243164
1761397164026429700,6.9234296875,13.580465316772461,11.262417793273926,-4.109673023223877
1761397164045793000,6.94279296875,18.634105682373047,9.934401512145996,-4.856233596801758
1761397164065183200,6.962183349609375,19.451852798461914,7.671389579772949,0.049651071429252625
1761397164084560100,6.98156005859375,14.192429542541504,5.656034469604492,2.974876642227173
1761397164103923500,7.00092333984375,6.445067882537842,4.577469825744629,1.40279221534729
1761397164123313700,7.020313720703125,1.2023934125900269,4.486542224884033,-0.9397810697555542
1761397164142690600,7.039690673828125,-1.0947163105010986,3.84765887260437,-1.057029366493225
1761397164162053600,7.0590537109375,-0.2632105052471161,2.713460922241211,0.6681957244873047
1761397164181444000,7.078444091796875,1.9818553924560547,1.7102699279785156,1.695314884185791
1761397164200821000,7.097821044921875,5.151747226715088,1.3184453248977661,1.5044872760772705
1761397164220184000,7.11718408203125,6.685546398162842,1.4003994464874268,0.3188436031341553
1761397164239574500,7.136574462890625,5.639883041381836,2.1475582122802734,-0.7585247755050659
1761397164258951400,7.155951416015625,3.975674867630005,3.8488552570343018,-0.7232306599617004
1761397164278314500,7.175314453125,4.064807415008545,5.949155330657959,0.29730820655822754
1761397164297705000,7.194705078125,4.918447017669678,8.458627700805664,1.6869399547576904
1761397164317081600,7.21408154296875,8.730213165283203,10.543972969055176,0.7310073375701904
1761397164336445000,7.23344482421875,9.932008743286133,11.392229080200195,-1.0199406147003174
1761397164355835400,7.25283544921875,9.79083251953125,12.918251037597656,-2.4987051486968994
1761397164375212000,7.2722119140625,11.657233238220215,11.790035247802734,-2.3976082801818848
1761397164394575400,7.291575439453125,14.55374526977539,9.616754531860352,-0.16031911969184875
1761397164413965800,7.3109658203125,13.99382495880127,6.337390899658203,3.9840497970581055
1761397164433342500,7.330342529296875,11.245070457458496,4.271786689758301,3.8638103008270264
1761397164452705800,7.349705810546875,8.201399803161621,3.9768712520599365,0.9750752449035645
1761397164472096000,7.369095947265625,6.043671607971191,4.428516387939453,-0.28953152894973755
1761397164491473000,7.388472900390625,3.720241069793701,4.19282341003418,1.4291132688522339
1761397164510836200,7.407836181640625,0.5563312768936157,3.4444682598114014,3.675973892211914
1761397164530226400,7.427226318359375,-2.0207388401031494,2.764308452606201,4.507479667663574
1761397164549603300,7.446603271484375,-2.9760732650756836,2.45204496383667,3.820739507675171
1761397164568980200,7.465980224609375,-1.7509479522705078,2.3467607498168945,2.593221426010132
1761397164588356900,7.48535693359375,1.7042878866195679,2.7038896083831787,1.4967105388641357
1761397164607733800,7.504733642578125,4.796412944793701,3.617349624633789,1.563111424446106
1761397164627097000,7.52409716796875,8.771489143371582,4.82751989364624,2.1062822341918945
1761397164646487300,7.5434873046875,14.143974304199219,7.94297456741333,0.7286145091056824
1761397164665864200,7.5628642578125,16.680965423583984,11.307283401489258,-0.2841476798057556
1761397164685227500,7.5822275390625,16.097116470336914,12.364911079406738,2.211566209793091
1761397164704617700,7.60161767578125,20.095521926879883,10.895119667053223,3.5264222621917725
1761397164723994600,7.62099462890625,27.49293327331543,9.110074043273926,3.0305099487304688
1761397164743358000,7.64035791015625,26.446672439575195,7.907082557678223,2.9826533794403076
1761397164762748200,7.659748046875,18.221942901611328,7.048058986663818,3.47019100189209
1761397164782125000,7.679125,9.023932456970215,7.018148899078369,3.5928232669830322
1761397164801488400,7.69848828125,2.8689942359924316,7.237092018127441,2.8420751094818115
1761397164820878600,7.717878662109375,0.25244277715682983,6.162116527557373,3.4133615493774414
1761397164840255500,7.73725537109375,-1.4021940231323242,4.386044025421143,3.1657042503356934
1761397164859618600,7.75661865234375,-2.538186550140381,3.747758388519287,0.7728816866874695
1761397164879009000,7.776009033203125,-1.933998942375183,3.19860577583313,-1.160519003868103
1761397164898385700,7.7953857421875,0.389431893825531,2.9718856811523438,-2.12542462348938
1761397164917762600,7.814762451171875,1.454237937927246,3.291327476501465,-1.8771693706512451
1761397164937139500,7.834139404296875,2.090728759765625,2.9461629390716553,0.5802595019340515
1761397164956516000,7.85351611328125,3.0514471530914307,3.6299118995666504,1.2191431522369385
1761397164975879400,7.87287939453125,5.629713535308838,4.673182487487793,0.363709032535553
1761397164995270000,7.892269775390625,9.735796928405762,7.3022966384887695,-2.038684844970703
1761397165014646500,7.911646484375,13.123435974121094,11.534601211547852,-5.387440204620361
1761397165034009900,7.931009765625,11.985648155212402,11.962318420410156,-5.5591254234313965
1761397165053400000,7.950400146484375,12.260823249816895,11.171490669250488,-2.021935224533081
1761397165072777000,7.96977685546875,19.408782958984375,6.004788398742676,3.1621150970458984
1761397165092140300,7.989140380859375,25.597219467163086,3.1064820289611816,3.1866414546966553
1761397165111530500,8.008530517578125,22.61875343322754,2.1774685382843018,2.664407968521118
1761397165130907400,8.027907470703125,12.820145606994629,2.324028968811035,2.7427730560302734
1761397165150270700,8.047270751953125,2.9826533794403076,3.180659532546997,1.4691931009292603
1761397165169661000,8.066660888671874,-3.699902057647705,3.678964853286743,-0.1453639715909958
1761397165189037800,8.086037841796875,-6.531209468841553,3.0143582820892334,0.3242274820804596
1761397165208401200,8.105401123046875,-4.898108005523682,0.7316055297851562,2.7762725353240967
1761397165227791400,8.124791259765624,0.06041877344250679,-0.1902294009923935,2.7391836643218994
1761397165247168300,8.144168212890625,3.2554352283477783,-0.50129634141922,2.623729944229126
1761397165266545000,8.163544921875,2.4185454845428467,-0.4588237404823303,1.8628123998641968
1761397165285921800,8.182921875,-0.7190431952476501,0.7316055297851562,0.22552353143692017
1761397165305298700,8.202298583984375,-2.9587252140045166,2.595614433288574,-1.3280165195465088
1761397165324662000,8.221662109375,-4.739583492279053,5.859424591064453,-2.7553353309631348
1761397165344052200,8.24105224609375,-2.0650060176849365,11.827722549438477,-4.163511276245117
1761397165363429000,8.26042919921875,9.0514497756958,16.48236083984375,-3.1956145763397217
1761397165382792400,8.27979248046875,21.431913375854492,13.959129333496094,3.4307093620300293
1761397165402182700,8.2991826171875,35.152957916259766,7.976474285125732,9.723833084106445
1761397165421559600,8.3185595703125,46.85445785522461,5.7134623527526855,5.714060306549072
1761397165440922600,8.337922607421875,38.904903411865234,8.376673698425293,1.332802176475525
1761397165460313000,8.35731298828125,18.309280395507812,8.547760963439941,3.4791641235351562
1761397165479689700,8.376689697265626,0.6999006271362305,8.919246673583984,2.613560438156128
1761397165499053000,8.396052978515625,-7.345367431640625,6.616154670715332,2.00518536567688
1761397165518443500,8.415443603515625,-8.380861282348633,1.7958134412765503,2.376671075820923
1761397165537820200,8.434820068359375,-7.021738052368164,-2.042872428894043,1.5619150400161743
1761397165557183500,8.45418359375,-4.555934429168701,-3.16331148147583,-0.8201399445533752
1761397165576574000,8.473573974609375,-2.194218397140503,-2.7517459392547607,-2.682354211807251
1761397165595950600,8.49295068359375,0.06520441919565201,-1.5499508380889893,-3.9188451766967773
1761397165615314000,8.51231396484375,0.6041877269744873,0.5838487148284912,-4.0558342933654785
1761397165634704100,8.5317041015625,-0.20578274130821228,1.7617156505584717,-0.6275177597999573
1761397165654081000,8.5510810546875,1.3399807214736938,3.4510483741760254,3.9284164905548096
1761397165673444400,8.5704443359375,9.675378799438477,6.267400741577148,2.9240293502807617
1761397165692834600,8.58983447265625,18.050256729125977,8.452646255493164,-1.3459627628326416
1761397165712211500,8.60921142578125,23.352153778076172,11.25045394897461,-1.8472590446472168
1761397165731574800,8.62857470703125,21.198015213012695,11.721839904785156,-2.5286152362823486
1761397165750965000,8.647965087890626,17.869600296020508,11.254042625427246,-1.6546368598937988
1761397165770342000,8.667341796875,20.763717651367188,8.583054542541504,1.6474584341049194
1761397165789705200,8.686705322265626,22.845474243164062,6.16391134262085,2.9150562286376953
1761397165809095400,8.706095458984375,20.247467041015625,4.861019134521484,2.4257240295410156
1761397165828472300,8.725472412109376,11.681161880493164,5.027320384979248,2.923431158065796
1761397165847835600,8.744835693359375,2.953939437866211,4.668995380401611,4.0079779624938965
1761397165867225900,8.764225830078125,-2.0279171466827393,3.565903902053833,4.1036906242370605
1761397165886602800,8.783602783203126,-3.2141590118408203,1.532004714012146,3.126222848892212
1761397165905966000,8.802966064453125,-2.9485557079315186,-0.4576273262500763,1.3824533224105835
1761397165925356300,8.822356201171875,-1.771286964416504,-0.6059823632240295,-1.4231312274932861
1761397165944733200,8.841733154296875,-0.2111666053533554,0.5682953596115112,-3.662813186645508
1761397165964109800,8.86110986328125,0.625723123550415,0.8165507316589355,-3.3792638778686523
1761397165983486700,8.88048681640625,0.9553344249725342,0.9936196208000183,-2.0344974994659424
1761397166002863600,8.899863525390625,0.5712863802909851,2.5010979175567627,-0.8590233325958252
1761397166022226700,8.919226806640625,1.3824533224105835,4.276572227478027,-0.11964113265275955
1761397166041617200,8.9386171875,6.067001819610596,6.215356826782227,-1.532004714012146
1761397166060993800,8.957993896484375,14.093725204467773,8.3359956741333,-1.2508480548858643
1761397166080357000,8.977357177734374,18.817157745361328,8.590831756591797,1.007378339767456
1761397166099747300,8.996747314453126,20.9647159576416,9.617950439453125,-1.9471594095230103
1761397166119124200,9.016124267578125,20.18046760559082,9.7064847946167,-3.6957144737243652
1761397166138487600,9.035487548828126,24.37030029296875,5.240880012512207,1.8023936748504639
1761397166157877800,9.054877685546876,28.77488899230957,0.737587571144104,3.569493293762207
1761397166177254700,9.074254638671874,25.713272094726562,-0.13639089465141296,2.321636199951172
1761397166196618000,9.093617919921876,15.66820240020752,0.07537391036748886,2.620140790939331
1761397166216008200,9.11300830078125,6.223731517791748,1.3010972738265991,2.6081767082214355
1761397166235385000,9.132385009765626,-0.15553347766399384,1.8035900592803955,2.9174489974975586
1761397166254748400,9.15174853515625,-4.100101470947266,1.6773686408996582,2.595614433288574
1761397166274138600,9.171138671875,-5.574678421020508,1.811964988708496,1.1419745683670044
1761397166293515500,9.190515625,-4.643272399902344,1.8149559497833252,0.4043870270252228
1761397166312878800,9.20987890625,-1.968694806098938,2.0757737159729004,0.06819544732570648
1761397166332269000,9.22926904296875,0.12203395366668701,2.3958137035369873,0.05742774158716202
1761397166351646000,9.24864599609375,-0.615553617477417,2.6081767082214355,0.0077766734175384045
1761397166371022600,9.268022705078126,-1.7216359376907349,3.3475589752197266,0.26081767678260803
1761397166390399500,9.2873994140625,0.6149554252624512,3.850649833679199,0.1417747437953949
1761397166409776400,9.3067763671875,6.807580471038818,5.7720866203308105,-0.019740786403417587
1761397166429139700,9.3261396484375,15.239887237548828,6.668796539306641,3.9936211109161377
1761397166448530000,9.345530029296874,24.832115173339844,9.261420249938965,2.5609183311462402
1761397166467906800,9.36490673828125,28.941787719726562,12.233903884887695,-1.6313068866729736
1761397166487270000,9.384269775390624,27.152555465698242,11.636296272277832,8.45444107055664
1761397166506660400,9.403660400390624,28.773693084716797,6.906284332275391,21.039491653442383
1761397166526037200,9.423037353515625,31.56252670288086,3.057429075241089,15.30329704284668
1761397166545400300,9.442400390625,27.264419555664062,3.989433526992798,4.237090587615967
1761397166564790800,9.461790771484376,17.484952926635742,2.479562520980835,1.8562321662902832
1761397166584167400,9.48116748046875,7.29392147064209,2.094916343688965,0.8823533654212952
1761397166603530800,9.50053076171875,-0.08673982322216034,1.201795220375061,1.3124631643295288
1761397166622921200,9.519921142578125,-3.920639991760254,-0.6011967062950134,2.999403238296509
1761397166642297900,9.5392978515625,-5.721837043762207,-1.8526428937911987,2.3856441974639893
1761397166661661200,9.5586611328125,-6.670591354370117,-2.7451658248901367,1.3471591472625732
1761397166681051400,9.578051513671875,-5.883352756500244,-2.03629207611084,-0.1950150430202484
1761397166700428300,9.59742822265625,-4.542175769805908,-1.2059825658798218,-1.534995675086975
1761397166719805200,9.61680517578125,-3.8488552570343018,-0.22851456701755524,-1.5990036725997925
1761397166739181800,9.636181884765625,-4.969294548034668,1.200000524520874,-0.3487538993358612
1761397166758558700,9.655558837890625,-6.628716945648193,3.0005996227264404,0.8063812255859375
1761397166777922000,9.674922119140625,-2.8773691654205322,6.498308181762695,0.41515472531318665
1761397166797312300,9.694312255859375,6.423532485961914,11.127821922302246,1.176072359085083
1761397166816689200,9.713689208984375,17.909679412841797,13.885549545288086,2.4089741706848145
1761397166836052500,9.733052490234375,24.390640258789062,11.80020523071289,2.407777786254883
1761397166855442700,9.752442626953124,26.725435256958008,8.760722160339355,2.169692039489746
1761397166874819600,9.771819580078125,26.930620193481445,5.434698581695557,2.2337000370025635
1761397166894183000,9.791182861328124,23.44009017944336,4.503890514373779,1.2065808773040771
1761397166913573000,9.810572998046876,18.13998794555664,4.875376224517822,0.11126625537872314
1761397166932950000,9.829949951171875,10.406984329223633,4.864608287811279,0.664606511592865
1761397166952313300,9.849313232421874,2.0404794216156006,4.623531341552734,1.3088740110397339
1761397166971703600,9.86870361328125,-2.709871530532837,4.5475592613220215,1.2855439186096191
1761397166991080400,9.88808056640625,-1.9669002294540405,3.6873397827148438,0.4504488706588745
1761397167010443800,9.90744384765625,1.3022937774658203,2.386840581893921,0.2638086974620819
1761397167029834000,9.926833984375,5.522036552429199,1.490728497505188,-0.14356936514377594
1761397167049210600,9.946210693359374,7.579864025115967,1.4087743759155273,-0.5545366406440735
1761397167068587500,9.96558740234375,6.3529438972473145,0.8644071817398071,-0.4372883439064026
1761397167087964400,9.98496435546875,5.7756757736206055,0.8781659007072449,-0.7836494445800781
1761397167107341000,10.004341064453126,5.577669620513916,2.0811574459075928,-0.5084748268127441
1761397167126704400,10.023704345703125,4.405186653137207,2.806781053543091,1.3357932567596436
1761397167146094800,10.0430947265625,5.835496425628662,4.864010334014893,-0.4941178858280182
1761397167165471500,10.062471435546875,7.566105365753174,7.010970115661621,-1.7724833488464355
1761397167184834800,10.081834716796875,10.01874828338623,8.954540252685547,0.34576287865638733
1761397167204225300,10.101225341796875,13.407583236694336,9.22851848602295,1.4943177700042725
1761397167223602000,10.120601806640625,17.0141658782959,9.781859397888184,-0.1052841991186142
1761397167242965200,10.13996533203125,17.622541427612305,10.148558616638184,-0.09511470049619675
1761397167262355500,10.15935546875,14.367703437805176,9.76989459991455,1.770688772201538
1761397167281732400,10.178732421875,14.287544250488281,9.20578670501709,1.4476577043533325
1761397167301095700,10.198095703125,14.254044532775879,7.878966808319092,1.1778669357299805
1761397167320486000,10.21748583984375,10.214361190795898,6.2189459800720215,1.2281162738800049
1761397167339862800,10.23686279296875,6.034100532531738,4.9190449714660645,0.052043892443180084
1761397167359226000,10.25622607421875,3.7465620040893555,4.231706619262695,-0.33080771565437317
1761397167378616300,10.2756162109375,1.7419748306274414,3.297907829284668,0.49172505736351013
1761397167397993200,10.2949931640625,1.8999011516571045,2.53399920463562,0.6113662123680115
1761397167417369900,10.314369873046875,3.119044303894043,2.038684844970703,-0.02153540402650833
1761397167436746800,10.333746826171875,3.7573297023773193,2.004587173461914,-1.1377872228622437
1761397167456123600,10.35312353515625,4.071985721588135,2.324627161026001,-1.5846468210220337
1761397167475500300,10.372500244140625,3.783052682876587,2.4161527156829834,-1.5469598770141602
1761397167494877200,10.391877197265625,3.631108283996582,2.9150562286376953,-0.2877369225025177
1761397167514254000,10.411254150390626,5.099104881286621,3.5234313011169434,0.48095735907554626
1761397167533617400,10.430617431640625,5.766104221343994,4.8777689933776855,-2.12542462348938
1761397167553007600,10.450007568359375,5.746363639831543,6.943971157073975,-3.463610887527466
1761397167572384300,10.46938427734375,6.873981475830078,8.636295318603516,-2.8600213527679443
1761397167591747600,10.48874755859375,6.759125709533691,9.881759643554688,-2.2755744457244873
1761397167611138000,10.508137939453125,4.278964996337891,10.479366302490234,-1.2251251935958862
1761397167630514700,10.5275146484375,5.819344520568848,10.374082565307617,-1.9938194751739502
1761397167649878000,10.5468779296875,11.109277725219727,9.67657470703125,-3.425325632095337
1761397167669268500,10.5662685546875,16.286149978637695,8.401200294494629,-2.6021945476531982
1761397167688645000,10.58564501953125,18.400806427001953,7.587042331695557,-0.9481559991836548
1761397167708022000,10.60502197265625,16.94597053527832,6.8380889892578125,-0.1746760457754135
