time,seconds_elapsed,z,y,x
1761397157224051500,0.121051513671875,0.05741964280605316,-0.25258535146713257,0.07269082218408585
1761397157243428000,0.140427978515625,0.11972606182098389,-0.042759306728839874,-0.05375456064939499
1761397157262805000,0.159804931640625,0.0725381150841713,0.07757759839296341,-0.13957859575748444
1761397157282182000,0.179181884765625,0.05925218388438225,0.14095300436019897,-0.1904316395521164
1761397157301558500,0.19855859375,0.12736165523529053,0.14660334587097168,-0.17592400312423706
1761397157320935400,0.217935302734375,0.24662958085536957,-0.12827792763710022,-0.05344913527369499
1761397157340312300,0.237312255859375,0.346808522939682,-0.4384356141090393,0.07421794533729553
1761397157359689000,0.25668896484375,0.38254308700561523,-0.1647760421037674,-0.10170606523752213
1761397157379065900,0.27606591796875,0.3830012381076813,0.24846212565898895,-0.5263976454734802
1761397157398442800,0.29544287109375,0.5464028716087341,0.6091674566268921,-0.8586985468864441
1761397157417819400,0.3148193359375,0.6206207871437073,0.7533273696899414,-0.9423846006393433
1761397157437196300,0.3341962890625,0.6331431865692139,0.6149705052375793,-0.411863774061203
1761397157456573200,0.3535732421875,0.40697699785232544,0.29030516743659973,0.21776704490184784
1761397157475936300,0.372936279296875,0.3504736125469208,-0.024586603045463562,0.6780404448509216
1761397157495326700,0.39232666015625,0.3695625960826874,-0.45324867963790894,0.3503209054470062
1761397157514703600,0.41170361328125,0.40544986724853516,-0.4822639226913452,-0.4946335554122925
1761397157534066700,0.431066650390625,0.49585527181625366,-0.40163207054138184,-0.8089144825935364
1761397157553457200,0.45045703125,0.38452833890914917,-0.5373928546905518,-0.7820371985435486
1761397157572833800,0.469833740234375,0.43889376521110535,-1.3113363981246948,-0.8712208867073059
1761397157592210700,0.489210693359375,0.5433486104011536,-1.3996037244796753,-0.624285876750946
1761397157611587600,0.508587646484375,0.27915719151496887,-0.3304683566093445,-0.01969982497394085
1761397157630964200,0.527964111328125,0.27808821201324463,0.28312769532203674,0.14889401197433472
1761397157650327600,0.54732763671875,0.6172611713409424,-0.3706315755844116,-0.07605048269033432
1761397157669718000,0.566718017578125,0.7065975666046143,-0.7989882230758667,0.4343124032020569
1761397157689094700,0.5860947265625,0.6739172339439392,-1.1416735649108887,1.099372386932373
1761397157708458000,0.6054580078125,0.8754968047142029,-0.4749337434768677,0.9567395448684692
1761397157727848400,0.624848388671875,1.2346750497817993,0.37979426980018616,0.20936790108680725
1761397157747225000,0.64422509765625,1.5602566003799438,0.3758237659931183,-0.5615213513374329
1761397157766588400,0.66358837890625,1.6407357454299927,-0.11911521852016449,-1.311947226524353
1761397157785979000,0.682978759765625,1.52711820602417,-0.4384356141090393,-1.7558804750442505
1761397157805355500,0.70235546875,1.391204595565796,-0.5978667736053467,-1.5947694778442383
1761397157824718800,0.72171875,0.8631271719932556,-0.7275190949440002,-0.8222004175186157
1761397157844109000,0.741109130859375,0.22540263831615448,-0.5934380888938904,0.3174878656864166
1761397157863486000,0.76048583984375,-0.1626380831003189,-0.8044858574867249,0.927724301815033
1761397157882849300,0.779849365234375,-0.5732801556587219,-1.278656005859375,1.068677306175232
1761397157902239500,0.799239501953125,-0.616802990436554,-1.2452120780944824,0.7924215793609619
1761397157921616400,0.818616455078125,-0.3558185398578644,-0.8412894010543823,0.22677704691886902
1761397157940979700,0.837979736328125,-0.571294903755188,-0.12110047042369843,-0.18905723094940186
1761397157960370000,0.857369873046875,-0.752105712890625,0.20814619958400726,-0.5592306852340698
1761397157979746800,0.876746826171875,-0.8622109293937683,0.14278554916381836,-1.0737167596817017
1761397157999110100,0.896110107421875,-0.9706363081932068,-0.420873761177063,-1.5710991621017456
1761397158018500400,0.915500244140625,-0.8139539957046509,-0.7279772162437439,-1.3734900951385498
1761397158037877200,0.934877197265625,-0.6000047326087952,-0.40331190824508667,-0.7101099491119385
1761397158057240600,0.954240478515625,-0.49952033162117004,-0.39643988013267517,-0.32817769050598145
1761397158076630800,0.973630859375,-0.15240639448165894,-0.9037485122680664,-0.2716743052005768
1761397158096007700,0.993007568359375,0.13530266284942627,-1.2398672103881836,-0.4422534108161926
1761397158115371000,1.01237109375,0.13957859575748444,0.014507622458040714,-0.51341712474823
1761397158134761200,1.03176123046875,0.24617144465446472,1.8583500385284424,-0.365286648273468
1761397158154138000,1.05113818359375,0.5854970812797546,2.514094591140747,0.040010496973991394
1761397158173501400,1.07050146484375,0.7791357040405273,1.9612778425216675,0.3443651497364044
1761397158192891600,1.0898916015625,0.731184184551239,0.9920159578323364,0.32787227630615234
1761397158212268500,1.1092685546875,0.7058340311050415,0.4037700295448303,0.04107947647571564
1761397158231632000,1.1286318359375,0.6526902914047241,0.2295258641242981,-0.27595025300979614
1761397158251022000,1.14802197265625,0.5680879354476929,0.4399627447128296,-0.3211529552936554
1761397158270399000,1.16739892578125,0.30221667885780334,0.6624638438224792,-0.06826218217611313
1761397158289762300,1.18676220703125,-0.11331216990947723,0.8428165316581726,0.34314343333244324
1761397158309152500,1.206152587890625,-0.33535513281822205,1.0579874515533447,0.869846522808075
1761397158328529200,1.225529052734375,-0.30939415097236633,1.1897777318954468,1.3821946382522583
1761397158347892700,1.244892822265625,-0.3336753249168396,0.9040539264678955,1.8575865030288696
1761397158367283000,1.264282958984375,-0.29229041934013367,0.41140562295913696,1.9741055965423584
1761397158386659600,1.28365966796875,-0.3796415627002716,-0.10002623498439789,1.5891191959381104
1761397158406023000,1.30302294921875,-0.6284091472625732,-0.8484668135643005,1.016755223274231
1761397158425413400,1.322413330078125,-0.6071822047233582,-1.7343480587005615,0.46989426016807556
1761397158444790000,1.3417900390625,-0.6584933400154114,-2.0611512660980225,0.3318427801132202
1761397158464153300,1.3611533203125,-0.6766660213470459,-2.1123099327087402,0.38849884271621704
1761397158483543800,1.380543701171875,-0.7441646456718445,-1.783521294593811,-0.25563958287239075
1761397158502920400,1.39992041015625,-1.0143119096755981,-0.7988355159759521,-1.265522837638855
1761397158522283800,1.41928369140625,-1.0263761281967163,0.7757760286331177,-1.5353646278381348
1761397158541674200,1.43867431640625,-0.6578825116157532,1.7633633613586426,-1.2258176803588867
1761397158561051000,1.45805078125,-0.12308572232723236,1.4507622718811035,-0.8214368224143982
1761397158580414200,1.477414306640625,0.381474107503891,0.33688226342201233,-0.33627140522003174
1761397158599804700,1.4968046875,0.8244910836219788,-0.9723161458969116,0.16172181069850922
1761397158619181300,1.516181396484375,1.2035218477249146,-1.7114412784576416,0.49829864501953125
1761397158638544600,1.535544677734375,1.4209834337234497,-1.688076376914978,0.6394043564796448
1761397158657934800,1.554934814453125,1.3595932722091675,-1.2186403274536133,0.5534276366233826
1761397158677311700,1.574311767578125,1.084712028503418,-0.6381826996803284,0.31977853178977966
1761397158696675000,1.593675048828125,0.5822901725769043,-0.19119518995285034,-0.017867282032966614
1761397158716065300,1.613065185546875,0.006108472589403391,0.10903623700141907,-0.4431696832180023
1761397158735442200,1.632442138671875,-0.37475478649139404,0.40697699785232544,-1.1190721988677979
1761397158754805500,1.651805419921875,-0.5761816501617432,0.5279247164726257,-1.7661120891571045
1761397158774195700,1.67119580078125,-0.6551336646080017,0.1579040139913559,-2.33160400390625
1761397158793572600,1.690572509765625,-0.7821899056434631,-0.694227933883667,-2.7011666297912598
1761397158812936000,1.70993603515625,-0.6232169270515442,-1.1891669034957886,-2.0923044681549072
1761397158832326100,1.729326171875,-0.18065807223320007,-0.9141329526901245,-0.7974610924720764
1761397158851703000,1.748703125,0.3313846290111542,-0.9429954290390015,-0.6091674566268921
1761397158871066400,1.76806640625,0.6394043564796448,-1.8085659742355347,-1.431978702545166
1761397158890456600,1.78745654296875,1.9212673902511597,-1.8165069818496704,-0.8402203917503357
1761397158909833500,1.80683349609375,2.8561689853668213,-0.44393324851989746,2.690324068069458
1761397158929196800,1.82619677734375,1.9635685682296753,0.5577035546302795,5.728830814361572
1761397158948587000,1.8455869140625,0.26694026589393616,0.904817521572113,4.816378116607666
1761397158967964000,1.8649638671875,-0.476308137178421,2.4574384689331055,1.7900879383087158
1761397158987327200,1.8843271484375,-0.5703786015510559,3.5705549716949463,-0.43767204880714417
1761397159006717400,1.903717529296875,-0.9738432168960571,3.4522032737731934,-0.9655967950820923
1761397159026094300,1.92309423828125,-1.333632230758667,2.6773436069488525,-0.7429429888725281
1761397159045457700,1.942457763671875,-1.4078502655029297,1.5486505031585693,-0.499673068523407
1761397159064848000,1.961847900390625,-1.345391035079956,0.6435275673866272,-0.24449162185192108
1761397159084224800,1.981224853515625,-1.2499462366104126,0.23425991833209991,-0.03894151374697685
1761397159103601400,2.000601318359375,-1.2384928464889526,0.33260634541511536,-0.16462333500385284
1761397159122978300,2.019978271484375,-1.2678134441375732,0.49524441361427307,-0.4558447599411011
1761397159142355000,2.03935498046875,-1.225359559059143,0.42667680978775024,-0.7229377031326294
1761397159161718300,2.05871826171875,-1.2559019327163696,0.026571854948997498,-1.081810474395752
1761397159181108700,2.078108642578125,-1.735569715499878,-1.339435338973999,-1.4839006662368774
1761397159200485400,2.0974853515625,-1.772067904472351,-1.8652220964431763,-0.932305634021759
1761397159219848700,2.1168486328125,-1.5037531852722168,-1.2749909162521362,-0.5790832042694092
1761397159239239200,2.1362392578125,-1.8530051708221436,-0.5164713859558105,-1.3003411293029785
1761397159258615800,2.15561572265625,-1.8343743085861206,1.1038010120391846,-1.4243431091308594
1761397159277979100,2.174979248046875,-1.3049224615097046,2.6426780223846436,-0.4416425824165344
1761397159297369600,2.19436962890625,-0.6490252017974854,2.8457846641540527,1.0648595094680786
1761397159316746200,2.213746337890625,-0.38666632771492004,1.5382660627365112,2.3331310749053955
1761397159336109600,2.233109619140625,-0.30313295125961304,-0.14675605297088623,3.1368534564971924
1761397159355500000,2.2525,0.09559759497642517,-1.1719105243682861,3.2034356594085693
1761397159374876700,2.271876708984375,0.5132644176483154,-0.9643751382827759,2.5388338565826416
1761397159394240000,2.291239990234375,0.28251686692237854,-0.30191126465797424,1.5353646278381348
1761397159413630200,2.310630126953125,-0.44484952092170715,0.03268032893538475,0.7024743556976318
1761397159433007000,2.330007080078125,-0.9779664874076843,-0.12064233422279358,0.12278030067682266
1761397159452370400,2.349370361328125,-1.1541959047317505,-0.45889899134635925,-0.16065283119678497
1761397159471760600,2.3687607421875,-0.9500201940536499,-0.946049690246582,-0.09009996801614761
1761397159491137500,2.388137451171875,-0.61970454454422,-1.7348061800003052,0.045202698558568954
1761397159510500900,2.4075009765625,-0.26312246918678284,-2.149876832962036,0.1623326539993286
1761397159529891000,2.42689111328125,-0.10644013434648514,-2.4023096561431885,0.16737215220928192
1761397159549268000,2.44626806640625,-0.41445985436439514,-2.43300461769104,-0.17775654792785645
1761397159568631300,2.46563134765625,-0.23090025782585144,-0.7333221435546875,-0.6665870547294617
1761397159588021500,2.485021484375,0.10903623700141907,0.2411319613456726,-1.8778971433639526
1761397159607398400,2.5043984375,-0.04856235533952713,-0.2698417901992798,-2.9410767555236816
1761397159626761700,2.52376171875,-0.07971556484699249,-0.38132140040397644,-2.3936049938201904
1761397159646152000,2.54315185546875,0.4862344264984131,0.3542914092540741,-0.5810684561729431
1761397159665528800,2.56252880859375,0.9141329526901245,0.7120952010154724,1.143964171409607
1761397159684892200,2.58189208984375,0.5147915482521057,0.4938700199127197,1.9113410711288452
1761397159704282400,2.601282470703125,0.04062134400010109,0.2348707765340805,1.8071916103363037
1761397159723659300,2.6206591796875,0.0925433561205864,0.3352024257183075,0.9631534218788147
1761397159743022600,2.640022705078125,0.24678228795528412,0.4937172830104828,-0.1366770714521408
1761397159762412800,2.659412841796875,0.09895725548267365,0.3310792148113251,-0.9927794933319092
1761397159781789700,2.678789794921875,0.00259610079228878,0.012675080448389053,-1.0899041891098022
1761397159801153000,2.698153076171875,0.07391251623630524,-0.15652960538864136,-0.4886777997016907
1761397159820543200,2.717543212890625,0.19211146235466003,-0.21975229680538177,0.3578037917613983
1761397159839920000,2.736920166015625,0.26968905329704285,-0.3264978528022766,0.8988617658615112
1761397159859296800,2.756296875,0.2736595869064331,-0.4947862923145294,0.8693883419036865
1761397159878673700,2.775673583984375,0.10292776674032211,-0.8797727823257446,0.3071034550666809
1761397159898050600,2.795050537109375,-0.08429691940546036,-1.1939009428024292,-0.31886225938796997
1761397159917413600,2.81441357421875,-0.05467082932591438,-0.996749997138977,-0.49677154421806335
1761397159936804000,2.83380419921875,-0.10369132459163666,-0.6676560640335083,-0.5140279531478882
1761397159956181000,2.853180908203125,-0.07559234648942947,-0.9246700406074524,-0.6792621612548828
1761397159975544000,2.8725439453125,0.20570281147956848,-0.918561577796936,-1.3252331018447876
1761397159994934500,2.8919345703125,0.5433486104011536,-0.06245913356542587,-1.1728267669677734
1761397160014311400,2.9113115234375,0.9536852836608887,0.4359922409057617,0.27350685000419617
1761397160033674500,2.930674560546875,1.4510676860809326,0.41858309507369995,2.1159749031066895
1761397160053065000,2.95006494140625,1.0633323192596436,0.20677179098129272,3.213209390640259
1761397160072441600,2.969441650390625,0.33199548721313477,0.16141638159751892,3.0165164470672607
1761397160091805000,2.988804931640625,0.011453386396169662,0.5305208563804626,1.861709713935852
1761397160111195400,3.0081953125,-0.19394400715827942,0.7624900937080383,0.7137750387191772
1761397160130572000,3.027572021484375,-0.4378247857093811,0.5150969624519348,-0.21959958970546722
1761397160149935400,3.046935302734375,-0.5891621708869934,0.2286095917224884,-0.7482879161834717
1761397160169325800,3.066325927734375,-0.45294323563575745,0.07681404054164886,-0.6139014959335327
1761397160188702500,3.085702392578125,-0.33688226342201233,-0.18279604613780975,0.06917845457792282
1761397160208079400,3.105079345703125,-0.37536564469337463,-0.5325061082839966,0.7359182238578796
1761397160227456300,3.124456298828125,-0.45385950803756714,-1.0645540952682495,0.7727217674255371
1761397160246833000,3.1438330078125,-0.6233696341514587,-1.7059437036514282,0.19226416945457458
1761397160266196200,3.1631962890625,-0.6534538269042969,-2.0113673210144043,-0.3903313875198364
1761397160285586400,3.18258642578125,-0.6024481058120728,-0.4856235682964325,-0.333064466714859
1761397160304963300,3.20196337890625,-0.645207405090332,0.9115368127822876,-0.111632339656353
1761397160324326700,3.22132666015625,-0.7055285573005676,-0.1319430023431778,-1.5167337656021118
1761397160343716900,3.240716796875,-0.6149705052375793,-0.07345438003540039,-2.296633005142212
1761397160363093800,3.26009375,-0.21837788820266724,1.082115888595581,-1.414416790008545
1761397160382457000,3.27945703125,0.4999784827232361,1.6147747039794922,0.5468609929084778
1761397160401847300,3.298847412109375,0.7922688722610474,1.1593880653381348,2.204547643661499
1761397160421224200,3.31822412109375,0.44103172421455383,0.2982461750507355,2.8676223754882812
1761397160440587500,3.33758740234375,0.2217375487089157,-0.06200099736452103,2.449955701828003
1761397160459977700,3.356977783203125,0.2214321345090866,0.36513394117355347,1.295912504196167
1761397160479354600,3.376354736328125,0.1901262104511261,0.735460102558136,-0.023975754156708717
1761397160498718000,3.395718017578125,0.14339639246463776,0.5444176197052002,-1.009730577468872
1761397160518108200,3.415108154296875,0.21440738439559937,-0.016492875292897224,-1.4791666269302368
1761397160537485000,3.434485107421875,0.3596363365650177,-0.546097457408905,-1.40449059009552
1761397160556848400,3.453848388671875,0.43263256549835205,-0.7351546883583069,-0.8217422962188721
1761397160576238600,3.473238525390625,0.47554460167884827,-0.7997517585754395,-0.0910162404179573
1761397160595615500,3.492615478515625,0.5442649126052856,-0.6897992491722107,0.23212195932865143
1761397160614978800,3.511978759765625,0.5292991399765015,-0.36757734417915344,0.11315945535898209
1761397160634369000,3.531369140625,0.36162158846855164,0.06154286116361618,-0.07834116369485855
1761397160653746000,3.550745849609375,0.35230615735054016,0.8154810667037964,-0.3465031087398529
1761397160673109200,3.570109130859375,0.5836645364761353,1.5207042694091797,-0.6203153729438782
1761397160692499500,3.58949951171875,0.80937260389328,0.931389331817627,-0.8582404255867004
1761397160711876000,3.6088759765625,0.9536852836608887,0.28755635023117065,-0.6166502833366394
1761397160731239400,3.628239501953125,1.0057599544525146,-0.22036315500736237,-0.6835380792617798
1761397160750630000,3.6476298828125,1.1842801570892334,-0.28969430923461914,-0.9152019023895264
1761397160770006500,3.667006591796875,1.1943590641021729,0.47264307737350464,-0.6502469182014465
1761397160789369900,3.686369873046875,1.22627592086792,1.12655508518219,-0.23471805453300476
1761397160808760300,3.70576025390625,1.352568507194519,1.1438114643096924,0.029473381116986275
1761397160828137000,3.725136962890625,1.376697063446045,0.7253811359405518,0.24052110314369202
1761397160847500300,3.744500244140625,1.1402990818023682,0.3202366828918457,0.4161396920681
1761397160866890800,3.763890869140625,0.8515210747718811,0.26373329758644104,0.3361186981201172
1761397160886267400,3.783267333984375,0.5963396430015564,0.4230117201805115,0.12018419802188873
1761397160905630700,3.802630615234375,0.4324798583984375,0.6308525204658508,0.07055285573005676
1761397160925021200,3.822021240234375,0.3248180150985718,0.5554128885269165,0.111021488904953
1761397160944397800,3.841397705078125,0.2586938142776489,0.2779355049133301,0.04153761267662048
1761397160963774700,3.860774658203125,0.23868857324123383,-0.12461283802986145,-0.2933593988418579
1761397160983151400,3.8801513671875,0.3046600818634033,-0.5172349214553833,-0.7246175408363342
1761397161002528300,3.8995283203125,0.24052110314369202,-0.9081771373748779,-1.1170868873596191
1761397161021891600,3.9188916015625,-0.034818295389413834,-1.1856545209884644,-1.589577317237854
1761397161041281800,3.93828173828125,0.12812520563602448,-0.9213103652000427,-1.697849988937378
1761397161060658700,3.95765869140625,0.8556442856788635,-0.0525328628718853,-0.9837695360183716
1761397161080022000,3.97702197265625,1.2951488494873047,0.04443913698196411,-0.7284353375434875
1761397161099412200,3.996412109375,1.1822948455810547,-0.04352286830544472,-1.0682191848754883
1761397161118789000,4.0157890625,0.9998042583465576,0.5169295072555542,-1.5037531852722168
1761397161138152400,4.03515234375,0.846023440361023,1.7033475637435913,-1.3919682502746582
1761397161157542700,4.054542724609375,0.6820109486579895,2.372225284576416,-0.5787777900695801
1761397161176919600,4.07391943359375,0.5642701387405396,1.9511988162994385,0.23028941452503204
1761397161196283000,4.093282958984375,0.4825693368911743,0.9701781868934631,0.6381826996803284
1761397161215673000,4.112673095703125,0.33627140522003174,0.23502348363399506,0.7637118101119995
1761397161235050000,4.132050048828125,0.091321662068367,-0.07528692483901978,0.6042806506156921
1761397161254413300,4.151413330078125,-0.21990501880645752,0.056961506605148315,0.18035265803337097
1761397161273803500,4.170803466796875,-0.5138752460479736,0.2883199155330658,-0.24159009754657745
1761397161293180400,4.190180419921875,-0.6670452356338501,0.20234315097332,-0.3381039500236511
1761397161312543700,4.209543701171875,-0.6833853721618652,-0.12262758612632751,-0.12048961967229843
1761397161331934000,4.228933837890625,-0.7317950129508972,-0.7252284288406372,0.09452861547470093
1761397161351310800,4.248310791015625,-0.7556180357933044,-1.4432793855667114,0.0778830274939537
1761397161370674200,4.267674072265625,-0.8406785130500793,-1.7183133363723755,-0.34757208824157715
1761397161390064400,4.287064453125,-0.6418477296829224,-1.6276025772094727,-1.0653176307678223
1761397161409441300,4.306441162109375,0.3901786804199219,-1.589271903038025,-1.4510676860809326
1761397161428804600,4.3258046875,1.1855018138885498,-1.9595980644226074,-1.554606318473816
1761397161448194800,4.34519482421875,1.2102410793304443,-2.296327590942383,-2.048018217086792
1761397161467571700,4.36457177734375,0.9891144037246704,0.19837264716625214,-1.6247010231018066
1761397161486934800,4.383934814453125,1.1853491067886353,2.858154296875,0.10827267915010452
1761397161506325200,4.4033251953125,1.440835952758789,2.6571855545043945,1.660282850265503
1761397161525702000,4.422701904296875,1.2607887983322144,0.8021951913833618,2.2697556018829346
1761397161545065200,4.442065185546875,1.0098832845687866,-0.5497625470161438,1.789476990699768
1761397161564455700,4.46145556640625,0.8409839868545532,-0.3852919042110443,0.7098045349121094
1761397161583832300,4.480832275390625,0.5485408306121826,0.14400723576545715,-0.197609081864357
1761397161603195600,4.500195556640625,-0.13377554714679718,0.22586077451705933,-0.5212054252624512
1761397161622586000,4.519586181640625,-1.1884033679962158,0.19928891956806183,-0.434617817401886
1761397161641962800,4.538962646484375,-2.143004894256592,0.05757235363125801,-0.38223767280578613
1761397161661326000,4.558326171875,-2.3878018856048584,0.1766875684261322,-0.5103628635406494
1761397161680716300,4.57771630859375,-2.0545847415924072,0.49112120270729065,-0.7117897868156433
1761397161700093200,4.59709326171875,-1.606986403465271,0.7870767116546631,-0.7756233215332031
1761397161719456500,4.61645654296875,-1.4023525714874268,0.3239017724990845,-0.7707365155220032
1761397161738846700,4.6358466796875,-1.3760861158370972,-0.7036960124969482,-0.846023440361023
1761397161758223600,4.6552236328125,-1.4590086936950684,-1.3849434852600098,-0.5494571328163147
1761397161777587000,4.6745869140625,-0.844649076461792,-0.9005415439605713,0.12033691257238388
1761397161796977200,4.69397705078125,-0.0859767496585846,-0.32787227630615234,0.15836215019226074
1761397161816354000,4.71335400390625,0.3865135908126831,-0.3826957941055298,-0.24601873755455017
1761397161835717400,4.73271728515625,0.8102889060974121,0.13591352105140686,-0.05864133685827255
1761397161855107600,4.752107666015625,1.1774080991744995,1.1607625484466553,1.123958945274353
1761397161874484500,4.771484375,1.4073920249938965,1.7447324991226196,2.109560966491699
1761397161893847800,4.790847900390625,1.1920684576034546,1.5773603916168213,1.9351640939712524
1761397161913238000,4.810238037109375,0.6468872427940369,0.8945857882499695,0.9823951125144958
1761397161932615000,4.829614990234375,0.10277505218982697,0.399952232837677,0.2648022770881653
1761397161951978200,4.848978271484375,-0.2921377122402191,0.3970507085323334,0.10277505218982697
1761397161971368400,4.868368408203125,-0.7035433053970337,0.504865288734436,0.23273280262947083
1761397161990745300,4.887745361328125,-1.0963181257247925,0.5799994468688965,0.5716003179550171
1761397162010108700,4.907108642578125,-1.2833900451660156,0.3561239540576935,0.8800781965255737
1761397162029499000,4.926498779296875,-1.2278029918670654,-0.0009162708884105086,1.0976924896240234
1761397162048875800,4.945875732421875,-0.985602080821991,-0.31092125177383423,1.0938746929168701
1761397162068239000,4.965239013671875,-0.669030487537384,-0.2933593988418579,0.6282563805580139
1761397162087629300,4.98462939453125,-0.476308137178421,0.13896775245666504,-0.13408097624778748
1761397162107006200,5.004006103515625,-0.2360924631357193,-0.14431266486644745,-0.8141067028045654
1761397162126369500,5.02336962890625,0.0459662564098835,-0.6146650314331055,-0.9718579649925232
1761397162145759700,5.042759765625,-0.01847812905907631,0.1901262104511261,0.21959958970546722
1761397162165136600,5.06213671875,-0.2560977041721344,0.5957288146018982,1.6724997758865356
1761397162184500000,5.0815,0.01175880990922451,0.025502873584628105,1.7842848300933838
1761397162203890200,5.10089013671875,0.4228590130805969,-0.8820634484291077,0.30038413405418396
1761397162223266800,5.120266845703125,0.45950984954833984,-0.3361186981201172,-0.4653128981590271
1761397162242630100,5.139630126953125,0.07513421028852463,1.142589807510376,-0.01252236869186163
1761397162262020600,5.1590205078125,-0.32695600390434265,1.6300458908081055,0.49982577562332153
1761397162281397200,5.178397216796875,-0.5702258944511414,0.6803311109542847,0.8054021000862122
1761397162300760600,5.197760498046875,-0.7006418108940125,-0.506239652633667,1.016755223274231
1761397162320151000,5.217151123046875,-0.7650861740112305,-1.1074661016464233,1.1531269550323486
1761397162339527700,5.236527587890625,-0.8212841153144836,-0.7824953198432922,1.0677610635757446
1761397162358891000,5.25589111328125,-1.0321791172027588,-0.1882936656475067,0.7667660117149353
1761397162378281500,5.275281494140625,-1.2400199174880981,0.024128466844558716,0.6126797795295715
1761397162397658000,5.294658203125,-1.3478344678878784,-0.31504446268081665,0.70797199010849
1761397162417021400,5.314021484375,-1.2852226495742798,-0.9695672988891602,0.9923213720321655
1761397162436412000,5.333411865234375,-1.1305255889892578,-1.5049749612808228,1.2693406343460083
1761397162455788500,5.35278857421875,-0.9599464535713196,-1.6251591444015503,1.2481136322021484
1761397162475152000,5.37215185546875,-0.823116660118103,-1.7056382894515991,0.9071081876754761
1761397162494542000,5.3915419921875,-0.6613948941230774,-1.5043641328811646,0.337798535823822
1761397162513919000,5.4109189453125,-0.536629319190979,-1.0983033180236816,-0.04413371533155441
1761397162533282300,5.4302822265625,-0.7153021693229675,-0.6012263894081116,0.03588727489113808
1761397162552672500,5.449672607421875,-0.6749862432479858,-0.24540787935256958,0.695907711982727
1761397162572049400,5.46904931640625,-0.2805316150188446,-1.0188932418823242,1.2549856901168823
1761397162591412700,5.488412841796875,-0.1713426560163498,-2.424452781677246,-0.2748812735080719
1761397162610803000,5.507802978515625,-0.19684553146362305,-1.5278817415237427,-3.1887753009796143
1761397162630179800,5.527179931640625,-0.13347013294696808,0.7415685653686523,-4.00761604309082
1761397162649543200,5.546543212890625,0.23563432693481445,1.7172443866729736,-1.8320835828781128
1761397162668933400,5.565933349609375,0.4900522232055664,0.6568135023117065,0.990183413028717
1761397162688310300,5.585310302734375,0.35352784395217896,-0.9335273504257202,2.534252643585205
1761397162707673600,5.604673583984375,0.25380703806877136,-1.8229209184646606,2.589381456375122
1761397162727063800,5.624063720703125,0.072232685983181,-1.434574842453003,1.7871863842010498
1761397162746440700,5.643440673828125,-0.22555534541606903,-0.2420482337474823,0.7023216485977173
1761397162765804000,5.662803955078125,-0.6134433746337891,0.940857470035553,-0.2238755226135254
1761397162785194200,5.6821943359375,-0.9495620727539062,1.3113363981246948,-0.5037962794303894
1761397162804571100,5.701571044921875,-1.0075925588607788,0.7499676942825317,0.1519482582807541
1761397162823934500,5.7209345703125,-0.8118160367012024,-0.14370182156562805,1.041494607925415
1761397162843324700,5.74032470703125,-0.587940514087677,-0.47172680497169495,1.0334008932113647
1761397162862701600,5.75970166015625,-0.4240806996822357,-0.3142809271812439,0.441795289516449
1761397162882064600,5.779064697265625,-0.03894151374697685,-0.111021488904953,-0.20661908388137817
1761397162901455000,5.798455078125,0.09315420687198639,0.517998456954956,-0.9820896983146667
1761397162920832000,5.81783203125,-0.39888325333595276,1.0468394756317139,-0.9190196990966797
1761397162940195000,5.837195068359375,-0.6461237072944641,0.660936713218689,-0.2713688910007477
1761397162959585500,5.85658544921875,-0.39735615253448486,-0.5248705148696899,-1.3059914112091064
1761397162978962200,5.875962158203125,0.051463883370161057,-0.7676823139190674,-3.983335018157959
1761397162998325500,5.895325439453125,0.5218162536621094,1.2326897382736206,-5.082096576690674
1761397163017716000,5.914716064453125,0.46928340196609497,2.904578685760498,-3.613772392272949
1761397163037092600,5.934092529296875,0.1772984117269516,2.708343982696533,-1.7957382202148438
1761397163056456000,5.9534560546875,0.1319430023431778,1.1555702686309814,-0.561826765537262
1761397163075846400,5.972846435546875,0.4694361090660095,-0.5173876285552979,0.37414395809173584
1761397163095223000,5.99222314453125,0.8457180261611938,-1.0937219858169556,0.8655705451965332
1761397163114586400,6.01158642578125,1.0790616273880005,-0.5141806602478027,0.7982246279716492
1761397163133976800,6.030976806640625,1.0002623796463013,0.4161396920681,0.41827765107154846
1761397163153353500,6.050353515625,0.4747810363769531,1.0845593214035034,0.12827792763710022
1761397163172730400,6.06973046875,-0.17531315982341766,1.0941801071166992,0.03527642786502838
1761397163192107300,6.089107177734375,-0.7111788988113403,0.3877353072166443,0.05894676223397255
1761397163211484000,6.10848388671875,-0.897334635257721,-0.8820634484291077,0.02626643143594265
1761397163230847200,6.12784716796875,-0.8591566681861877,-1.7766492366790771,-0.006261184345930815
1761397163250237400,6.147237548828125,-0.8738170266151428,-1.4028106927871704,0.33886751532554626
1761397163269614300,6.1666142578125,-0.9599464535713196,0.1620272397994995,1.3211098909378052
1761397163288977700,6.185977783203125,-1.1522105932235718,0.746913492679596,1.7564913034439087
1761397163308368000,6.205367919921875,-1.1218210458755493,0.04550812020897865,0.20509196817874908
1761397163327744800,6.224744873046875,-0.47768256068229675,-0.3990359604358673,-2.4548423290252686
1761397163347108000,6.244108154296875,0.4459185004234314,0.038483377546072006,-2.7211718559265137
1761397163366498300,6.263498291015625,1.1995513439178467,-0.028251685202121735,-0.39384377002716064
1761397163385875200,6.282875244140625,1.388761281967163,-0.7191199064254761,2.123915910720825
1761397163405238500,6.302238525390625,1.03828763961792,-1.7398457527160645,3.213972806930542
1761397163424628700,6.321628662109375,0.601073682308197,-1.9890713691711426,2.5180652141571045
1761397163444005600,6.341005615234375,0.26190075278282166,-0.5717530250549316,0.6655181050300598
1761397163463369000,6.360368896484375,0.17943638563156128,0.5662553906440735,-0.6306998133659363
1761397163482759200,6.37975927734375,0.3390202224254608,0.3384093940258026,-0.2345653474330902
1761397163502136000,6.399135986328125,0.49112120270729065,-0.43354883790016174,1.113574504852295
1761397163521499400,6.41849951171875,0.42102646827697754,-0.7178982496261597,1.9444795846939087
1761397163540889600,6.4378896484375,0.2476985603570938,-0.5978667736053467,1.971204161643982
1761397163560266200,6.457266357421875,-0.07437065243721008,-0.4888305068016052,1.5420838594436646
1761397163579629600,6.476629638671875,-0.3042019307613373,-0.0925433561205864,0.9333745837211609
1761397163599020000,6.49602001953125,-0.27350685000419617,0.26663482189178467,0.6273401379585266
1761397163618396700,6.515396728515625,-0.22250111401081085,0.14186927676200867,0.8477032780647278
1761397163637760000,6.534760009765625,-0.39827242493629456,-0.08658760040998459,1.0445488691329956
1761397163657150500,6.554150390625,-0.7409577369689941,-0.6061131954193115,0.09834641218185425
1761397163676527000,6.573527099609375,-0.5520532131195068,-0.7583668828010559,-1.9114937782287598
1761397163695890400,6.592890380859375,0.0009162708884105086,-0.2113531529903412,-3.500307559967041
1761397163715281000,6.612281005859375,0.5908420085906982,-0.12797249853610992,-2.904120683670044
1761397163734657500,6.631657470703125,0.8545753359794617,-0.4280512034893036,-0.5175403356552124
1761397163754020900,6.651020751953125,0.3223746418952942,-0.5790832042694092,1.2791141271591187
1761397163773411300,6.670411376953125,-0.15912571549415588,-0.517998456954956,1.407239317893982
1761397163792788000,6.6897880859375,-0.12858334183692932,-0.38254308700561523,0.3423798978328705
1761397163812151300,6.7091513671875,0.312142938375473,-0.23425991833209991,-0.6914790868759155
1761397163831541500,6.72854150390625,0.5928272604942322,0.16599774360656738,-0.8533536195755005
1761397163850918400,6.74791845703125,0.33627140522003174,0.2852656841278076,-0.14278554916381836
1761397163870295300,6.76729541015625,-0.16645587980747223,-0.06184828653931618,0.7111788988113403
1761397163889672000,6.786671875,-0.4031592011451721,-0.30068957805633545,1.4047960042953491
1761397163909048800,6.806048828125,-0.342074453830719,0.0261137206107378,1.7293086051940918
1761397163928412200,6.825412109375,-0.24510246515274048,0.5525113344192505,1.5932424068450928
1761397163947802400,6.84480224609375,-0.12430741637945175,0.49203747510910034,1.356539011001587
1761397163967179300,6.86417919921875,-0.23884128034114838,0.4683671295642853,0.8984035849571228
1761397163986542600,6.88354248046875,-0.752105712890625,0.23899398744106293,-0.1820324808359146
1761397164005932800,6.902932861328125,-0.9940012097358704,-0.023364907130599022,-1.6770811080932617
1761397164025309700,6.922309814453125,-0.5563291311264038,0.27091076970100403,-2.406890869140625
1761397164044673000,6.941673095703125,0.20249587297439575,0.3962871730327606,-2.1704931259155273
1761397164064063200,6.961063232421875,0.8050966858863831,-0.016034740954637527,-1.0705097913742065
1761397164083440000,6.980440185546875,0.5923691391944885,-0.13896775245666504,0.3503209054470062
1761397164102803500,6.999803466796875,0.2522799074649811,0.06139015033841133,1.0744802951812744
1761397164122193700,7.019193603515625,0.17118994891643524,0.08383878320455551,0.9428427219390869
1761397164141570600,7.038570556640625,0.423164427280426,0.17027367651462555,0.3083251416683197
1761397164160933600,7.05793359375,0.5112791657447815,0.25060009956359863,-0.3449759781360626
1761397164180324000,7.077323974609375,0.35291701555252075,0.4581354558467865,-0.6685723066329956
1761397164199701000,7.096700927734375,0.11483928561210632,0.7444701194763184,-0.3833066523075104
1761397164219064000,7.11606396484375,-0.023212196305394173,0.6139014959335327,0.40758782625198364
1761397164238454500,7.13545458984375,-0.02626643143594265,-0.03436015918850899,1.1798515319824219
1761397164257831400,7.15483154296875,0.11239589750766754,-0.5543438792228699,1.4991718530654907
1761397164277194500,7.174194580078125,0.18081079423427582,-0.8872556686401367,1.289040446281433
1761397164296585000,7.1935849609375,0.12705622613430023,-0.8341119289398193,0.6427640318870544
1761397164315961600,7.212961669921875,0.004581354558467865,0.1620272397994995,0.09040539711713791
1761397164335325000,7.232324951171875,0.04016320779919624,0.38636088371276855,-0.25090551376342773
1761397164354715400,7.25171533203125,0.1954711228609085,-0.27442312240600586,-1.022558331489563
1761397164374092000,7.271092041015625,0.6151232123374939,-0.587329626083374,-1.857433795928955
1761397164393455400,7.290455322265625,1.1477819681167603,-0.7427902817726135,-2.025111436843872
1761397164412845800,7.309845703125,1.236812949180603,-0.6517740488052368,-1.5743061304092407
1761397164432222500,7.329222412109375,0.8458707332611084,-0.19211146235466003,-0.9645278453826904
1761397164451585800,7.348585693359375,0.69651859998703,0.12278030067682266,-0.40071579813957214
1761397164470976000,7.36797607421875,0.9707890152931213,-0.06810946762561798,0.16431790590286255
1761397164490353000,7.387352783203125,1.2421579360961914,-0.5445703268051147,0.7785248160362244
1761397164509716200,7.40671630859375,1.0757020711898804,-0.8968765139579773,1.057529330253601
1761397164529106400,7.4261064453125,0.6430694460868835,-0.6659762263298035,0.8313631415367126
1761397164548483300,7.4454833984375,0.20967331528663635,0.002748812548816204,0.2658712565898895
1761397164567860200,7.464860107421875,-0.08918370306491852,0.5977140665054321,-0.4237752854824066
1761397164587236900,7.48423681640625,-0.21333840489387512,0.7339329719543457,-0.855491578578949
1761397164606613800,7.50361376953125,-0.17974179983139038,0.4237752854824066,-0.9177979826927185
1761397164625977000,7.52297705078125,-0.18615570664405823,0.02901524491608143,-0.8458707332611084
1761397164645367300,7.5423671875,-0.14889401197433472,-0.03542914241552353,-0.573585569858551
1761397164664744200,7.561744140625,0.03008422814309597,0.10246963053941727,-0.1963873952627182
1761397164684107500,7.581107421875,0.07452336698770523,-0.7374453544616699,-0.99736088514328
1761397164703497700,7.600497802734375,0.2041756957769394,-0.4202629029750824,-2.426896095275879
1761397164722874600,7.61987451171875,0.5754181146621704,0.9877400398254395,-2.43636417388916
1761397164742238000,7.639238037109375,0.8212841153144836,1.4240376949310303,-1.1375503540039062
1761397164761628200,7.658628173828125,0.772416353225708,1.483747959136963,0.07055285573005676
1761397164781005000,7.678005126953125,0.38880428671836853,1.573542594909668,0.7026270627975464
1761397164800368400,7.697368408203125,-0.024128466844558716,1.4309097528457642,0.6981984376907349
1761397164819758600,7.716758544921875,-0.42362257838249207,1.0217947959899902,0.5369347333908081
1761397164839135500,7.736135498046875,-0.9643751382827759,0.6940752267837524,0.46332764625549316
1761397164858498600,7.75549853515625,-1.2664390802383423,0.8264763355255127,0.26251161098480225
1761397164877889000,7.774888916015625,-1.101052165031433,1.2855280637741089,0.0850604772567749
1761397164897265700,7.794265625,-0.7718055248260498,1.0779926776885986,0.18722468614578247
1761397164916642600,7.813642578125,-0.3364241421222687,0.3110739588737488,0.5120427012443542
1761397164936019500,7.83301953125,-0.1050657257437706,-0.252432644367218,0.7974610924720764
1761397164955396000,7.85239599609375,-0.19623468816280365,-0.6888830065727234,0.9814788103103638
1761397164974759400,7.871759521484375,-0.312142938375473,-0.6833853721618652,1.0056072473526
1761397164994150000,7.89114990234375,-0.3324536085128784,-0.27289602160453796,1.2746855020523071
1761397165013526500,7.910526611328125,-0.37689274549484253,-0.4103366434574127,1.5988926887512207
1761397165032889900,7.929889892578125,-0.27625566720962524,-1.6303513050079346,0.8419002294540405
1761397165052280000,7.949280029296875,0.31825143098831177,-1.8255170583724976,-1.3299671411514282
1761397165071657000,7.968656982421875,0.6591041684150696,-0.25777754187583923,-2.950086832046509
1761397165091020300,7.988020263671875,0.601073682308197,1.2106993198394775,-2.4249110221862793
1761397165110410500,8.007410400390626,0.6229115128517151,1.6524945497512817,-0.3167243003845215
1761397165129787400,8.026787353515624,0.4253024160861969,1.2965233325958252,1.658908486366272
1761397165149150700,8.046150634765626,0.18905723094940186,0.3578037917613983,2.3974227905273438
1761397165168541000,8.065541015625,0.27564483880996704,-0.2985515892505646,1.9423415660858154
1761397165187917800,8.084917724609374,0.6371136903762817,-0.09330692142248154,0.8845068216323853
1761397165207281200,8.10428125,0.735460102558136,0.765238881111145,-0.16630317270755768
1761397165226671400,8.12367138671875,0.4008685052394867,1.3000357151031494,-0.6041279435157776
1761397165246048300,8.14304833984375,0.09987352788448334,1.2997303009033203,-0.15927842259407043
1761397165265425000,8.1624248046875,-0.1498102843761444,1.0596672296524048,0.6720846891403198
1761397165284801800,8.1818017578125,-0.28816720843315125,0.32008397579193115,1.1891669034957886
1761397165304178700,8.2011787109375,-0.30725616216659546,-0.6664343476295471,1.0811996459960938
1761397165323542000,8.2205419921875,-0.10720369219779968,-1.4583978652954102,0.3912476599216461
1761397165342932200,8.23993212890625,0.18111620843410492,-1.540556788444519,-1.180156946182251
1761397165362309000,8.25930908203125,0.545181155204773,-1.4533582925796509,-2.673067569732666
1761397165381672400,8.27867236328125,0.3730749487876892,-2.426438093185425,-3.96012282371521
1761397165401062700,8.298062744140625,-0.033596597611904144,-2.3878018856048584,-4.769953727722168
1761397165420439600,8.317439453125,-0.2993151545524597,0.10903623700141907,-2.9239730834960938
1761397165439802600,8.336802734375,0.36574479937553406,1.2847645282745361,0.731184184551239
1761397165459193000,8.356193115234374,0.5361711978912354,0.7837170362472534,3.1461687088012695
1761397165478569700,8.37556982421875,0.22402822971343994,0.08903098851442337,3.361645221710205
1761397165497933000,8.39493310546875,0.006261184345930815,-0.032069481909275055,2.1703402996063232
1761397165517323500,8.414323486328126,-0.3698680102825165,0.43080002069473267,0.8504521250724792
1761397165536700200,8.4337001953125,-0.8958075046539307,0.6621584296226501,-0.18661384284496307
1761397165556063500,8.4530634765625,-1.1809204816818237,0.6812474131584167,-0.7808154821395874
1761397165575454000,8.472453857421876,-1.1102149486541748,0.6024481058120728,-0.8791618943214417
1761397165594830600,8.49183056640625,-0.7740961909294128,0.25777754187583923,-0.5108210444450378
1761397165614194000,8.51119384765625,-0.19394400715827942,-0.48760882019996643,0.028557108715176582
1761397165633584000,8.530584228515625,0.24449162185192108,-1.3421841859817505,0.06810946762561798
1761397165652961000,8.5499609375,0.14935214817523956,-1.3012573719024658,-0.47019967436790466
1761397165672324400,8.569324462890625,-0.41507071256637573,-0.20035789906978607,-0.8054021000862122
1761397165691714600,8.588714599609375,-0.37735089659690857,0.7195780873298645,-0.32787227630615234
1761397165711091500,8.608091552734376,-0.19944162666797638,0.2038702666759491,0.5095993280410767
1761397165730454800,8.627454833984375,-0.3310792148113251,-1.0587509870529175,0.781884491443634
1761397165749845000,8.646844970703125,0.03588727489113808,-1.4767231941223145,-0.32222193479537964
1761397165769222000,8.666221923828125,0.5404471158981323,-0.5722111463546753,-1.6485240459442139
1761397165788585200,8.685585205078125,0.8023478984832764,0.6019899845123291,-1.6996824741363525
1761397165807975400,8.704975341796874,0.8409839868545532,1.0462286472320557,-0.5981721878051758
1761397165827352300,8.724352294921875,0.7246175408363342,0.9637642502784729,0.7716528177261353
1761397165846715600,8.743715576171875,0.3927747905254364,0.6520794630050659,1.1334271430969238
1761397165866105900,8.76310595703125,-0.12110047042369843,0.6270347237586975,0.7084301114082336
1761397165885482800,8.782482666015625,-0.6646018028259277,0.9947647452354431,0.023212196305394173
1761397165904846000,8.80184619140625,-1.0605835914611816,1.3620367050170898,-0.483485609292984
1761397165924236300,8.821236328125,-1.165496587753296,1.3718101978302002,-0.7759287357330322
1761397165943613200,8.84061328125,-0.826018214225769,0.9578084945678711,-0.7667660117149353
1761397165962989800,8.85998974609375,-0.2473931461572647,0.4149180054664612,-0.49921491742134094
1761397165982366700,8.87936669921875,0.16126367449760437,-0.09773556143045425,-0.19256959855556488
1761397166001743600,8.89874365234375,0.3831539452075958,-0.5341859459877014,-0.10720369219779968
1761397166021106700,8.918106689453126,0.4217900335788727,-0.828003466129303,-0.49356457591056824
1761397166040497200,8.9374970703125,0.4011739492416382,-1.657381296157837,-1.1989405155181885
1761397166059873800,8.956873779296876,0.642916738986969,-1.336228370666504,-1.1343433856964111
1761397166079237000,8.976237060546875,0.48272204399108887,-0.20020519196987152,-0.44423866271972656
1761397166098627600,8.995627685546875,0.12720894813537598,-0.22998400032520294,-0.19394400715827942
1761397166118004200,9.015004150390626,0.6096255779266357,-1.2902621030807495,-1.1041064262390137
1761397166137367600,9.034367431640625,1.2357439994812012,-1.7477867603302002,-2.3794028759002686
1761397166156757800,9.0537578125,1.365243673324585,-1.0518789291381836,-2.1136841773986816
1761397166176134700,9.073134765625,1.5489559173583984,-0.1841704547405243,-0.2948864996433258
1761397166195498000,9.092498046875,1.5243693590164185,0.15301723778247833,1.4037270545959473
1761397166214888200,9.11188818359375,1.3376027345657349,0.1388150453567505,2.0901665687561035
1761397166234265000,9.13126513671875,1.0810469388961792,-0.09422318637371063,1.9198929071426392
1761397166253628400,9.15062841796875,0.6804838180541992,-0.14645062386989594,1.2899566888809204
1761397166273018600,9.1700185546875,0.3965925872325897,0.15454435348510742,0.45233240723609924
1761397166292395500,9.1893955078125,0.324054479598999,0.4984513521194458,-0.36971530318260193
1761397166311758800,9.2087587890625,0.2510582208633423,0.6788040399551392,-0.7725690603256226
1761397166331149000,9.228149169921876,0.22540263831615448,0.638640820980072,-0.5467082858085632
1761397166350526000,9.24752587890625,0.1119377613067627,0.2805316150188446,-0.11621369421482086
1761397166369902600,9.266902587890625,0.07391251623630524,-0.23166382312774658,-0.1450762301683426
1761397166389279500,9.286279541015626,0.01038440316915512,-0.5674771070480347,-0.5926745533943176
1761397166408656400,9.305656494140624,0.22127941250801086,-0.8035695552825928,-0.9999569654464722
1761397166428019700,9.325019775390626,0.24220094084739685,-0.6038225293159485,-0.8008207678794861
1761397166447410000,9.344409912109375,-0.24678228795528412,-0.2864873707294464,0.017409147694706917
1761397166466786800,9.363786865234376,0.13927318155765533,-0.9184088706970215,0.9562813639640808
1761397166486150000,9.38314990234375,0.7249229550361633,-3.2422244548797607,0.337798535823822
1761397166505540400,9.402540283203125,0.14904673397541046,-2.6220619678497314,-1.216196894645691
1761397166524917200,9.421917236328126,-1.009730577468872,1.2126845121383667,-1.2297883033752441
1761397166544280300,9.4412802734375,-0.961778998374939,2.9959003925323486,0.3292466700077057
1761397166563670800,9.4606708984375,-0.5709894895553589,2.2144739627838135,1.9919729232788086
1761397166583047400,9.48004736328125,-0.30435463786125183,0.8667922616004944,2.947338104248047
1761397166602410800,9.49941064453125,0.05543438717722893,0.19715094566345215,3.0585122108459473
1761397166621801200,9.51880126953125,0.07406523078680038,0.11682453751564026,2.7010138034820557
1761397166641177900,9.538177734375,-0.2211267054080963,0.4369085133075714,2.1830153465270996
1761397166660541200,9.557541259765625,-0.4558447599411011,0.9506310224533081,1.5772075653076172
1761397166679931400,9.576931396484374,-0.6836907863616943,0.9402466416358948,0.9885035753250122
1761397166699308300,9.596308349609375,-0.7264500856399536,0.5442649126052856,0.7298097610473633
1761397166718685200,9.615685302734375,-0.6128324866294861,-0.10873081535100937,0.754396378993988
1761397166738061800,9.635061767578126,-0.5548020005226135,-0.69651859998703,0.751494824886322
1761397166757438700,9.654438720703125,-0.6578825116157532,-0.8402203917503357,0.20555010437965393
1761397166776802000,9.673802001953124,-0.7846332788467407,-1.1230427026748657,-0.8921424150466919
1761397166796192300,9.693192138671876,-0.9483403563499451,-1.8751484155654907,-2.126512050628662
1761397166815569200,9.712569091796874,-1.2490298748016357,-1.4367127418518066,-2.302436113357544
1761397166834932500,9.731932373046876,-1.4014363288879395,-1.203063726425171,-1.9941108226776123
1761397166854322700,9.75132275390625,-1.2189457416534424,-1.167176365852356,-2.048476219177246
1761397166873699600,9.770699462890626,-0.7522584199905396,-0.10017894953489304,-1.6903671026229858
1761397166893063000,9.79006298828125,-0.33596599102020264,0.9341381788253784,-0.7322531342506409
1761397166912453000,9.809453125,-0.14935214817523956,1.045770525932312,0.5653391480445862
1761397166931830000,9.828830078125,-0.22433365881443024,-0.1244601309299469,1.6179816722869873
1761397166951193300,9.848193359375,-0.46012070775032043,-1.2140588760375977,1.6711254119873047
1761397166970583600,9.86758349609375,-0.6551336646080017,-1.0204203128814697,0.694227933883667
1761397166989960400,9.88696044921875,-0.6297835111618042,-0.03405473381280899,-0.4811949133872986
1761397167009323800,9.90632373046875,-0.48394373059272766,0.8591566681861877,-1.125333309173584
1761397167028714000,9.9257138671875,-0.42194274067878723,0.9072608947753906,-1.0679137706756592
1761397167048090600,9.945090576171875,-0.4136963188648224,0.3967452943325043,-0.293664813041687
1761397167067467500,9.964467529296876,-0.37704548239707947,0.24281178414821625,0.5405998229980469
1761397167086844400,9.983844482421874,-0.2942756712436676,0.3527642786502838,1.0286667346954346
1761397167106221000,10.003220947265625,-0.12278030067682266,0.3205420970916748,1.365549087524414
1761397167125584400,10.02258447265625,-0.1763821393251419,0.35887277126312256,1.4296879768371582
1761397167144974800,10.041974853515624,-0.3646758198738098,0.22463907301425934,1.177560806274414
1761397167164351500,10.0613515625,-0.1963873952627182,-0.22158484160900116,0.8681666851043701
1761397167183714800,10.08071484375,0.02626643143594265,-0.0859767496585846,0.4640912115573883
1761397167203105300,10.100105224609376,-0.058183200657367706,0.15546062588691711,-0.03268032893538475
1761397167222482000,10.11948193359375,-0.11835165321826935,0.27747735381126404,-0.31855684518814087
1761397167241845200,10.13884521484375,-0.0198525357991457,0.21333840489387512,-0.21242213249206543
1761397167261235500,10.1582353515625,-0.12904147803783417,-0.14858859777450562,-0.457830011844635
1761397167280612400,10.1776123046875,-0.28969430923461914,0.11560284346342087,-0.9152019023895264
1761397167299975700,10.1969755859375,-0.26373329758644104,0.49325916171073914,-0.5761816501617432
1761397167319366000,10.216365966796875,-0.4077405333518982,0.30603447556495667,-0.008246437646448612
1761397167338742800,10.23574267578125,-0.5493044257164001,-0.0781884491443634,0.21181128919124603
1761397167358106000,10.255106201171875,-0.5407525300979614,-0.30435463786125183,0.26251161098480225
1761397167377496300,10.274496337890625,-0.5963396430015564,-0.4524851143360138,0.16691401600837708
1761397167396873200,10.293873291015625,-0.7569924592971802,-0.3834593594074249,0.006719320081174374
1761397167416249900,10.313249755859376,-0.844649076461792,-0.2910687327384949,0.07024743407964706
1761397167435626800,10.332626708984375,-0.7166765332221985,-0.19455485045909882,0.30313295125961304
1761397167455003600,10.352003662109375,-0.4468347728252411,0.15622419118881226,0.6221479177474976
1761397167474380300,10.37138037109375,-0.19531841576099396,0.21898874640464783,0.841747522354126
1761397167493757200,10.390757080078124,-0.009009997360408306,0.3107685446739197,0.846939742565155
1761397167513134000,10.410134033203125,-0.1763821393251419,0.5708367824554443,0.876413106918335
1761397167532497400,10.429497314453124,-0.28969430923461914,0.33031564950942993,0.9675820469856262
1761397167551887600,10.4488876953125,0.04428642615675926,0.3898732662200928,0.9423846006393433
1761397167571264300,10.46826416015625,0.2654131352901459,0.5816792845726013,0.7835643291473389
1761397167590627600,10.487627685546874,0.1185043677687645,0.10720369219779968,0.5925218462944031
1761397167610018000,10.50701806640625,-0.09269607067108154,0.07040014863014221,-0.0853659063577652
1761397167629394700,10.526394775390624,-0.18798823654651642,0.44255882501602173,-1.2313153743743896
1761397167648758000,10.545758056640626,-0.08063183724880219,0.2483094036579132,-2.209587335586548
1761397167668148500,10.5651484375,0.14996300637722015,-0.0525328628718853,-2.1743109226226807
1761397167687525000,10.584525146484374,0.197609081864357,-0.44607120752334595,-1.361273169517517
1761397167706902000,10.603902099609375,0.19318044185638428,-0.6226060390472412,-0.21226942539215088
