time,seconds_elapsed,z,y,x
1761397157224051500,0.121051513671875,0.0587940476834774,-0.2498365342617035,0.07727217674255371
1761397157243428000,0.140427978515625,0.12110047042369843,-0.040010496973991394,-0.049173206090927124
1761397157262805000,0.159804931640625,0.07391251623630524,0.08032641559839249,-0.13499724864959717
1761397157282182000,0.179181884765625,0.06062658876180649,0.1438545286655426,-0.18585027754306793
1761397157301558500,0.19855859375,0.12873606383800507,0.14935214817523956,-0.17118994891643524
1761397157320935400,0.217935302734375,0.2480039894580841,-0.12552911043167114,-0.04886778071522713
1761397157340312300,0.237312255859375,0.34818294644355774,-0.43568679690361023,0.0787992998957634
1761397157359689000,0.25668896484375,0.3837648034095764,-0.1620272397994995,-0.09712471067905426
1761397157379065900,0.27606591796875,0.3843756318092346,0.2513636350631714,-0.5218162536621094
1761397157398442800,0.29544287109375,0.5477772951126099,0.6119162440299988,-0.8541171550750732
1761397157417819400,0.3148193359375,0.621995210647583,0.7560762166976929,-0.9376505613327026
1761397157437196300,0.3341962890625,0.6345176100730896,0.617719292640686,-0.40712970495224
1761397157456573200,0.3535732421875,0.40819868445396423,0.2930539846420288,0.2223484069108963
1761397157475936300,0.372936279296875,0.3518480062484741,-0.021685076877474785,0.6826218366622925
1761397157495326700,0.39232666015625,0.37078428268432617,-0.45049986243247986,0.3549022674560547
1761397157514703600,0.41170361328125,0.40667155385017395,-0.47951510548591614,-0.4900522232055664
1761397157534066700,0.431066650390625,0.497229665517807,-0.39888325333595276,-0.8043331503868103
1761397157553457200,0.45045703125,0.38575005531311035,-0.5346440672874451,-0.7774558663368225
1761397157572833800,0.469833740234375,0.44011545181274414,-1.3085875511169434,-0.8666395545005798
1761397157592210700,0.489210693359375,0.5445703268051147,-1.3967022895812988,-0.61970454454422
1761397157611587600,0.508587646484375,0.2805316150188446,-0.3277195692062378,-0.01511846948415041
1761397157630964200,0.527964111328125,0.2793098986148834,0.2858765125274658,0.15347537398338318
1761397157650327600,0.54732763671875,0.6186355352401733,-0.367730051279068,-0.07146912813186646
1761397157669718000,0.566718017578125,0.70797199010849,-0.7962393760681152,0.4390464723110199
1761397157689094700,0.5860947265625,0.6751389503479004,-1.1389247179031372,1.1039537191390991
1761397157708458000,0.6054580078125,0.8767185211181641,-0.4721849262714386,0.9614735841751099
1761397157727848400,0.624848388671875,1.2360494136810303,0.38254308700561523,0.21394924819469452
1761397157747225000,0.64422509765625,1.5616309642791748,0.37857258319854736,-0.556939959526062
1761397157766588400,0.66358837890625,1.6421101093292236,-0.11636640131473541,-1.307365894317627
1761397157785979000,0.682978759765625,1.5284925699234009,-0.43568679690361023,-1.7512991428375244
1761397157805355500,0.70235546875,1.3924263715744019,-0.5951179265975952,-1.5901881456375122
1761397157824718800,0.72171875,0.8645015954971313,-0.7247702479362488,-0.8176190853118896
1761397157844109000,0.741109130859375,0.22662433981895447,-0.5906893014907837,0.32222193479537964
1761397157863486000,0.76048583984375,-0.16141638159751892,-0.8017370104789734,0.932305634021759
1761397157882849300,0.779849365234375,-0.5720584392547607,-1.2759071588516235,1.073258638381958
1761397157902239500,0.799239501953125,-0.615428626537323,-1.2424633502960205,0.7970029711723328
1761397157921616400,0.818616455078125,-0.35444411635398865,-0.8385405540466309,0.2313583940267563
1761397157940979700,0.837979736328125,-0.5699204802513123,-0.11835165321826935,-0.1844758689403534
1761397157960370000,0.857369873046875,-0.7507312893867493,0.21089501678943634,-0.554649293422699
1761397157979746800,0.876746826171875,-0.8608365058898926,0.145687073469162,-1.0691354274749756
1761397157999110100,0.896110107421875,-0.9694145917892456,-0.41797223687171936,-1.5665178298950195
1761397158018500400,0.915500244140625,-0.8127322793006897,-0.7252284288406372,-1.3687559366226196
1761397158037877200,0.934877197265625,-0.598783016204834,-0.4005630910396576,-0.7053758502006531
1761397158057240600,0.954240478515625,-0.49829864501953125,-0.3936910629272461,-0.323596328496933
1761397158076630800,0.973630859375,-0.1510319858789444,-0.9009997248649597,-0.2670929729938507
1761397158096007700,0.993007568359375,0.13652436435222626,-1.2371183633804321,-0.43767204880714417
1761397158115371000,1.01237109375,0.14095300436019897,0.01725643500685692,-0.5088357925415039
1761397158134761200,1.03176123046875,0.2473931461572647,1.8610988855361938,-0.36070531606674194
1761397158154138000,1.05113818359375,0.5868715047836304,2.516843318939209,0.04459185153245926
1761397158173501400,1.07050146484375,0.7805100679397583,1.964026689529419,0.3489464819431305
1761397158192891600,1.0898916015625,0.7324058413505554,0.9949174523353577,0.33260634541511536
1761397158212268500,1.1092685546875,0.7070556879043579,0.40667155385017395,0.0456608310341835
1761397158231632000,1.1286318359375,0.6540647149085999,0.23227466642856598,-0.2713688910007477
1761397158251022000,1.14802197265625,0.569309651851654,0.44271156191825867,-0.31657159328460693
1761397158270399000,1.16739892578125,0.3035911023616791,0.6652126908302307,-0.06368082761764526
1761397158289762300,1.18676220703125,-0.1119377613067627,0.8457180261611938,0.3477247953414917
1761397158309152500,1.206152587890625,-0.3339807391166687,1.0608890056610107,0.874427855014801
1761397158328529200,1.225529052734375,-0.3080197274684906,1.1925265789031982,1.3867759704589844
1761397158347892700,1.244892822265625,-0.3324536085128784,0.906802773475647,1.8621678352355957
1761397158367283000,1.264282958984375,-0.2910687327384949,0.4143071472644806,1.9786869287490845
1761397158386659600,1.28365966796875,-0.3784198760986328,-0.09712471067905426,1.5937005281448364
1761397158406023000,1.30302294921875,-0.6270347237586975,-0.8455653190612793,1.0213366746902466
1761397158425413400,1.322413330078125,-0.6058077812194824,-1.73159921169281,0.474475622177124
1761397158444790000,1.3417900390625,-0.6571189165115356,-2.0584025382995605,0.3364241421222687
1761397158464153300,1.3611533203125,-0.6752916574478149,-2.109408378601074,0.3930802047252655
1761397158483543800,1.380543701171875,-0.7429429888725281,-1.7807724475860596,-0.2510582208633423
1761397158502920400,1.39992041015625,-1.0129374265670776,-0.7960866689682007,-1.260941505432129
1761397158522283800,1.41928369140625,-1.0250016450881958,0.7785248160362244,-1.5307831764221191
1761397158541674200,1.43867431640625,-0.656660795211792,1.766264796257019,-1.2212363481521606
1761397158561051000,1.45805078125,-0.12186402827501297,1.4535109996795654,-0.8168554902076721
1761397158580414200,1.477414306640625,0.3826957941055298,0.33978378772735596,-0.33169007301330566
1761397158599804700,1.4968046875,0.8258655071258545,-0.9695672988891602,0.16630317270755768
1761397158619181300,1.516181396484375,1.204743504524231,-1.7086925506591797,0.5028799772262573
1761397158638544600,1.535544677734375,1.4223577976226807,-1.6853275299072266,0.6439857482910156
1761397158657934800,1.554934814453125,1.3609676361083984,-1.2157387733459473,0.5580089688301086
1761397158677311700,1.574311767578125,1.086086392402649,-0.6354338526725769,0.3243598937988281
1761397158696675000,1.593675048828125,0.5836645364761353,-0.18844637274742126,-0.013285927474498749
1761397158716065300,1.613065185546875,0.007330167107284069,0.11178504675626755,-0.4384356141090393
1761397158735442200,1.632442138671875,-0.3733803927898407,0.40972578525543213,-1.1144908666610718
1761397158754805500,1.651805419921875,-0.5748072862625122,0.5306735634803772,-1.7615307569503784
1761397158774195700,1.67119580078125,-0.6537593007087708,0.16065283119678497,-2.3270225524902344
1761397158793572600,1.690572509765625,-0.7809682488441467,-0.6914790868759155,-2.696432590484619
1761397158812936000,1.70993603515625,-0.621995210647583,-1.1862653493881226,-2.0875704288482666
1761397158832326100,1.729326171875,-0.17928366363048553,-0.9112313985824585,-0.7928797602653503
1761397158851703000,1.748703125,0.33260634541511536,-0.9402466416358948,-0.6044333577156067
1761397158871066400,1.76806640625,0.640626072883606,-1.8058172464370728,-1.42739737033844
1761397158890456600,1.78745654296875,1.922489047050476,-1.8137582540512085,-0.8356390595436096
1761397158909833500,1.80683349609375,2.857390880584717,-0.4411844313144684,2.6949052810668945
1761397158929196800,1.82619677734375,1.9647902250289917,0.5604523420333862,5.733412265777588
1761397158948587000,1.8455869140625,0.2683146595954895,0.9075663089752197,4.820959091186523
1761397158967964000,1.8649638671875,-0.4750864505767822,2.4601874351501465,1.794669270515442
1761397158987327200,1.8843271484375,-0.569004237651825,3.573303699493408,-0.4330907166004181
1761397159006717400,1.903717529296875,-0.9724688529968262,3.4549520015716553,-0.9610154628753662
1761397159026094300,1.92309423828125,-1.332257866859436,2.6800923347473145,-0.7382088899612427
1761397159045457700,1.942457763671875,-1.4064757823944092,1.5513993501663208,-0.49493899941444397
1761397159064848000,1.961847900390625,-1.3441693782806396,0.6462764143943787,-0.23991025984287262
1761397159084224800,1.981224853515625,-1.248571753501892,0.237008735537529,-0.03436015918850899
1761397159103601400,2.000601318359375,-1.2372710704803467,0.33535513281822205,-0.16004198789596558
1761397159122978300,2.019978271484375,-1.2664390802383423,0.49799323081970215,-0.4512633979320526
1761397159142355000,2.03935498046875,-1.2241379022598267,0.4294256269931793,-0.7183563709259033
1761397159161718300,2.05871826171875,-1.2546802759170532,0.029473381116986275,-1.0772291421890259
1761397159181108700,2.078108642578125,-1.7343480587005615,-1.336533784866333,-1.4791666269302368
1761397159200485400,2.0974853515625,-1.7706935405731201,-1.8624732494354248,-0.927724301815033
1761397159219848700,2.1168486328125,-1.5023788213729858,-1.2722420692443848,-0.5745018720626831
1761397159239239200,2.1362392578125,-1.8516308069229126,-0.5137225389480591,-1.2957597970962524
1761397159258615800,2.15561572265625,-1.8331526517868042,1.106549859046936,-1.4197617769241333
1761397159277979100,2.174979248046875,-1.3035480976104736,2.6455795764923096,-0.43706122040748596
1761397159297369600,2.19436962890625,-0.647803544998169,2.8485333919525146,1.0694408416748047
1761397159316746200,2.213746337890625,-0.38544461131095886,1.5410149097442627,2.337865114212036
1761397159336109600,2.233109619140625,-0.30191126465797424,-0.14400723576545715,3.141434669494629
1761397159355500000,2.2525,0.09681928902864456,-1.1691616773605347,3.208017110824585
1761397159374876700,2.271876708984375,0.5144860744476318,-0.9614735841751099,2.5434153079986572
1761397159394240000,2.291239990234375,0.28373855352401733,-0.29916244745254517,1.5400986671447754
1761397159413630200,2.310630126953125,-0.4434750974178314,0.03542914241552353,0.7070556879043579
1761397159433007000,2.330007080078125,-0.9767447710037231,-0.1178935244679451,0.12736165523529053
1761397159452370400,2.349370361328125,-1.1528215408325195,-0.45615020394325256,-0.1560714691877365
1761397159471760600,2.3687607421875,-0.9487984776496887,-0.9431481957435608,-0.08551861345767975
1761397159491137500,2.388137451171875,-0.6183301210403442,-1.7320574522018433,0.04978405311703682
1761397159510500900,2.4075009765625,-0.2617480456829071,-2.147128105163574,0.16691401600837708
1761397159529891000,2.42689111328125,-0.10521844029426575,-2.3995606899261475,0.1719534993171692
1761397159549268000,2.44626806640625,-0.4130854606628418,-2.430255889892578,-0.17317520081996918
1761397159568631300,2.46563134765625,-0.22967857122421265,-0.730573296546936,-0.6620057225227356
1761397159588021500,2.485021484375,0.11025793105363846,0.2438807636499405,-1.8733158111572266
1761397159607398400,2.5043984375,-0.04718795046210289,-0.26694026589393616,-2.936495542526245
1761397159626761700,2.52376171875,-0.0784938707947731,-0.37857258319854736,-2.389023542404175
1761397159646152000,2.54315185546875,0.48760882019996643,0.3570402264595032,-0.5763344168663025
1761397159665528800,2.56252880859375,0.9155073165893555,0.7148439884185791,1.148545503616333
1761397159684892200,2.58189208984375,0.5161659121513367,0.49677154421806335,1.9159224033355713
1761397159704282400,2.601282470703125,0.04199574887752533,0.2376195788383484,1.8117729425430298
1761397159723659300,2.6206591796875,0.09391776472330093,0.3379512429237366,0.9677347540855408
1761397159743022600,2.640022705078125,0.2480039894580841,0.49646610021591187,-0.13209572434425354
1761397159762412800,2.659412841796875,0.10033166408538818,0.3339807391166687,-0.9881981611251831
1761397159781789700,2.678789794921875,0.003970507066696882,0.015423892997205257,-1.0853228569030762
1761397159801153000,2.698153076171875,0.07528692483901978,-0.15378080308437347,-0.4840964674949646
1761397159820543200,2.717543212890625,0.19333316385746002,-0.2170034945011139,0.3623851239681244
1761397159839920000,2.736920166015625,0.2710634768009186,-0.32374903559684753,0.9034430980682373
1761397159859296800,2.756296875,0.2748812735080719,-0.49203747510910034,0.8739697337150574
1761397159878673700,2.775673583984375,0.10430216789245605,-0.8768712282180786,0.3118375241756439
1761397159898050600,2.795050537109375,-0.08292251825332642,-1.1911520957946777,-0.31412819027900696
1761397159917413600,2.81441357421875,-0.05344913527369499,-0.9940012097358704,-0.4921901822090149
1761397159936804000,2.83380419921875,-0.10246963053941727,-0.6649072170257568,-0.5092939138412476
1761397159956181000,2.853180908203125,-0.07421794533729553,-0.9217684864997864,-0.674680769443512
1761397159975544000,2.8725439453125,0.20707722008228302,-0.9158127307891846,-1.3206517696380615
1761397159994934500,2.8919345703125,0.5445703268051147,-0.059710320085287094,-1.1682454347610474
1761397160014311400,2.9113115234375,0.9550597071647644,0.4387410581111908,0.27808821201324463
1761397160033674500,2.930674560546875,1.4524420499801636,0.42133188247680664,2.120556354522705
1761397160053065000,2.95006494140625,1.0645540952682495,0.2095206081867218,3.2177906036376953
1761397160072441600,2.969441650390625,0.3333698809146881,0.164165198802948,3.0210978984832764
1761397160091805000,2.988804931640625,0.012675080448389053,0.5332696437835693,1.8664437532424927
1761397160111195400,3.0081953125,-0.19256959855556488,0.765238881111145,0.7185090780258179
1761397160130572000,3.027572021484375,-0.4366030693054199,0.5178457498550415,-0.21501824259757996
1761397160149935400,3.046935302734375,-0.5877877473831177,0.2313583940267563,-0.7437065243721008
1761397160169325800,3.066325927734375,-0.45172154903411865,0.07956285774707794,-0.6093201637268066
1761397160188702500,3.085702392578125,-0.335507869720459,-0.17989452183246613,0.07375980913639069
1761397160208079400,3.105079345703125,-0.37414395809173584,-0.5297572612762451,0.740652322769165
1761397160227456300,3.124456298828125,-0.45263782143592834,-1.061805248260498,0.7774558663368225
1761397160246833000,3.1438330078125,-0.6221479177474976,-1.7031948566436768,0.1969982385635376
1761397160266196200,3.1631962890625,-0.6522321701049805,-2.0086185932159424,-0.3855973184108734
1761397160285586400,3.18258642578125,-0.6012263894081116,-0.4828747510910034,-0.328330397605896
1761397160304963300,3.20196337890625,-0.6439857482910156,0.9142856597900391,-0.10705098509788513
1761397160324326700,3.22132666015625,-0.7041541934013367,-0.1291942000389099,-1.5121524333953857
1761397160343716900,3.240716796875,-0.6137487888336182,-0.07070557028055191,-2.2920515537261963
1761397160363093800,3.26009375,-0.21715620160102844,1.0848647356033325,-1.4096827507019043
1761397160382457000,3.27945703125,0.5012001991271973,1.6176762580871582,0.5514423847198486
1761397160401847300,3.298847412109375,0.7934905886650085,1.1622896194458008,2.2092819213867188
1761397160421224200,3.31822412109375,0.4424061179161072,0.3011476993560791,2.872203826904297
1761397160440587500,3.33758740234375,0.22311195731163025,-0.05925218388438225,2.4545369148254395
1761397160459977700,3.356977783203125,0.22280654311180115,0.3680354654788971,1.3006465435028076
1761397160479354600,3.376354736328125,0.1913478970527649,0.7382088899612427,-0.019394399598240852
1761397160498718000,3.395718017578125,0.1447708010673523,0.5471664071083069,-1.0051491260528564
1761397160518108200,3.415108154296875,0.21562908589839935,-0.013591351918876171,-1.4745852947235107
1761397160537485000,3.434485107421875,0.36101073026657104,-0.543195903301239,-1.3997565507888794
1761397160556848400,3.453848388671875,0.43385425209999084,-0.7324058413505554,-0.8171609044075012
1761397160576238600,3.473238525390625,0.47676628828048706,-0.7968502640724182,-0.08643488585948944
1761397160595615500,3.492615478515625,0.5454866290092468,-0.687050461769104,0.2367033064365387
1761397160614978800,3.511978759765625,0.5305208563804626,-0.3646758198738098,0.11774080991744995
1761397160634369000,3.531369140625,0.36284327507019043,0.06444438546895981,-0.07375980913639069
1761397160653746000,3.550745849609375,0.3536805510520935,0.8183826208114624,-0.34192174673080444
1761397160673109200,3.570109130859375,0.585038959980011,1.5234531164169312,-0.6157340407371521
1761397160692499500,3.58949951171875,0.8105943202972412,0.9341381788253784,-0.8536590337753296
1761397160711876000,3.6088759765625,0.9550597071647644,0.29030516743659973,-0.6119162440299988
1761397160731239400,3.628239501953125,1.0071344375610352,-0.2176143378019333,-0.6789567470550537
1761397160750630000,3.6476298828125,1.1855018138885498,-0.28694549202919006,-0.9106205701828003
1761397160770006500,3.667006591796875,1.1957335472106934,0.47554460167884827,-0.6456655263900757
1761397160789369900,3.686369873046875,1.2276502847671509,1.129456639289856,-0.22998400032520294
1761397160808760300,3.70576025390625,1.353790283203125,1.1467130184173584,0.03405473381280899
1761397160828137000,3.725136962890625,1.3780714273452759,0.7281299233436584,0.24510246515274048
1761397160847500300,3.744500244140625,1.1415208578109741,0.3229855000972748,0.42072105407714844
1761397160866890800,3.763890869140625,0.8527427911758423,0.2664821147918701,0.34070006012916565
1761397160886267400,3.783267333984375,0.5975613594055176,0.42576053738594055,0.1247655525803566
1761397160905630700,3.802630615234375,0.43385425209999084,0.6336013078689575,0.07513421028852463
1761397160925021200,3.822021240234375,0.3261924386024475,0.5581616759300232,0.11560284346342087
1761397160944397800,3.841397705078125,0.2599155008792877,0.28068432211875916,0.04611896723508835
1761397160963774700,3.860774658203125,0.24006296694278717,-0.12186402827501297,-0.2886253297328949
1761397160983151400,3.8801513671875,0.30603447556495667,-0.5144860744476318,-0.7198835015296936
1761397161002528300,3.8995283203125,0.241742804646492,-0.9054283499717712,-1.112505555152893
1761397161021891600,3.9188916015625,-0.033443886786699295,-1.182905673980713,-1.5848431587219238
1761397161041281800,3.93828173828125,0.129499614238739,-0.918561577796936,-1.6932686567306519
1761397161060658700,3.95765869140625,0.8568660020828247,-0.04978405311703682,-0.9791881442070007
1761397161080022000,3.97702197265625,1.2965233325958252,0.04718795046210289,-0.7238540053367615
1761397161099412200,3.996412109375,1.1836693286895752,-0.04062134400010109,-1.0636377334594727
1761397161118789000,4.0157890625,1.0011786222457886,0.5196782946586609,-1.4990191459655762
1761397161138152400,4.03515234375,0.8473978638648987,1.7060964107513428,-1.3873867988586426
1761397161157542700,4.054542724609375,0.6832326650619507,2.374974250793457,-0.5740436911582947
1761397161176919600,4.07391943359375,0.5654918551445007,1.9541003704071045,0.23502348363399506
1761397161196283000,4.093282958984375,0.48394373059272766,0.9729269742965698,0.6427640318870544
1761397161215673000,4.112673095703125,0.3374931216239929,0.23792500793933868,0.7682931423187256
1761397161235050000,4.132050048828125,0.09269607067108154,-0.0725381150841713,0.6088619828224182
1761397161254413300,4.151413330078125,-0.21868331730365753,0.059710320085287094,0.18493400514125824
1761397161273803500,4.170803466796875,-0.5125008225440979,0.2910687327384949,-0.237008735537529
1761397161293180400,4.190180419921875,-0.6656708121299744,0.20509196817874908,-0.3333698809146881
1761397161312543700,4.209543701171875,-0.682163655757904,-0.11987877637147903,-0.11590826511383057
1761397161331934000,4.228933837890625,-0.730573296546936,-0.7224795818328857,0.09910997003316879
1761397161351310800,4.248310791015625,-0.7542436718940735,-1.44053053855896,0.08246438205242157
1761397161370674200,4.267674072265625,-0.8394568562507629,-1.715564489364624,-0.3429907262325287
1761397161390064400,4.287064453125,-0.640626072883606,-1.6248537302017212,-1.0607362985610962
1761397161409441300,4.306441162109375,0.39140036702156067,-1.5865230560302734,-1.4464863538742065
1761397161428804600,4.3258046875,1.1868761777877808,-1.956849217414856,-1.5498721599578857
1761397161448194800,4.34519482421875,1.2116155624389648,-2.293578863143921,-2.0434367656707764
1761397161467571700,4.36457177734375,0.9904888272285461,0.2011214643716812,-1.6201196908950806
1761397161486934800,4.383934814453125,1.1867234706878662,2.860903024673462,0.11285403370857239
1761397161506325200,4.4033251953125,1.4420576095581055,2.6599342823028564,1.6650168895721436
1761397161525702000,4.422701904296875,1.2620104551315308,0.8049439787864685,2.27433705329895
1761397161545065200,4.442065185546875,1.011104941368103,-0.5470137000083923,1.7940584421157837
1761397161564455700,4.46145556640625,0.8422056436538696,-0.38254308700561523,0.71453857421875
1761397161583832300,4.480832275390625,0.5497625470161438,0.14675605297088623,-0.19302773475646973
1761397161603195600,4.500195556640625,-0.13240113854408264,0.2286095917224884,-0.5166240930557251
1761397161622586000,4.519586181640625,-1.1871815919876099,0.2020377367734909,-0.429883748292923
1761397161641962800,4.538962646484375,-2.1417832374572754,0.06032116711139679,-0.37765631079673767
1761397161661326000,4.558326171875,-2.386427640914917,0.17958909273147583,-0.5057815313339233
1761397161680716300,4.57771630859375,-2.0532102584838867,0.4938700199127197,-0.7072083950042725
1761397161700093200,4.59709326171875,-1.60561203956604,0.7898254990577698,-0.7710419297218323
1761397161719456500,4.61645654296875,-1.4011309146881104,0.32665055990219116,-0.7661551833152771
1761397161738846700,4.6358466796875,-1.3747117519378662,-0.7009472250938416,-0.8414421081542969
1761397161758223600,4.6552236328125,-1.4576343297958374,-1.3820419311523438,-0.5448757410049438
1761397161777587000,4.6745869140625,-0.8432746529579163,-0.8977927565574646,0.12491826713085175
1761397161796977200,4.69397705078125,-0.08460234850645065,-0.32512345910072327,0.1629435122013092
1761397161816354000,4.71335400390625,0.3877353072166443,-0.3799470067024231,-0.2414373755455017
1761397161835717400,4.73271728515625,0.8115105628967285,0.13866232335567474,-0.05390727147459984
1761397161855107600,4.752107666015625,1.1787824630737305,1.1636639833450317,1.128540277481079
1761397161874484500,4.771484375,1.4086138010025024,1.747481346130371,2.11429500579834
1761397161893847800,4.790847900390625,1.193290114402771,1.5802618265151978,1.939898133277893
1761397161913238000,4.810238037109375,0.6482616662979126,0.8974873423576355,0.9869764447212219
1761397161932615000,4.829614990234375,0.10399674624204636,0.40285375714302063,0.26938363909721375
1761397161951978200,4.848978271484375,-0.29091599583625793,0.39979952573776245,0.10735640674829483
1761397161971368400,4.868368408203125,-0.7021689414978027,0.5077667832374573,0.23746687173843384
1761397161990745300,4.887745361328125,-1.095096468925476,0.582748293876648,0.5761816501617432
1761397162010108700,4.907108642578125,-1.2821683883666992,0.35887277126312256,0.8846595287322998
1761397162029499000,4.926498779296875,-1.226581335067749,0.001985253533348441,1.1022738218307495
1761397162048875800,4.945875732421875,-0.9842276573181152,-0.30817243456840515,1.0984560251235962
1761397162068239000,4.965239013671875,-0.6678087711334229,-0.29061058163642883,0.6329904794692993
1761397162087629300,4.98462939453125,-0.4750864505767822,0.14171656966209412,-0.129499614238739
1761397162107006200,5.004006103515625,-0.23471805453300476,-0.14156384766101837,-0.8095253109931946
1761397162126369500,5.02336962890625,0.04734066128730774,-0.6119162440299988,-0.9672766327857971
1761397162145759700,5.042759765625,-0.01710372418165207,0.19287502765655518,0.22433365881443024
1761397162165136600,5.06213671875,-0.25472331047058105,0.5986303091049194,1.6772338151931763
1761397162184500000,5.0815,0.013133215717971325,0.028404397889971733,1.7888661623001099
1761397162203890200,5.10089013671875,0.42423340678215027,-0.8791618943214417,0.305118203163147
1761397162223266800,5.120266845703125,0.4608842432498932,-0.3333698809146881,-0.46073153614997864
1761397162242630100,5.139630126953125,0.07650861889123917,1.1453386545181274,-0.007788302376866341
1761397162262020600,5.1590205078125,-0.3255815804004669,1.632794737815857,0.5045598149299622
1761397162281397200,5.178397216796875,-0.5688515305519104,0.6830799579620361,0.8101361989974976
1761397162300760600,5.197760498046875,-0.6994200944900513,-0.5034908652305603,1.0214893817901611
1761397162320151000,5.217151123046875,-0.7638645172119141,-1.1047172546386719,1.1577082872390747
1761397162339527700,5.236527587890625,-0.8199097514152527,-0.779593825340271,1.0724951028823853
1761397162358891000,5.25589111328125,-1.0308047533035278,-0.18554484844207764,0.7713474035263062
1761397162378281500,5.275281494140625,-1.2386455535888672,0.026877280324697495,0.6172611713409424
1761397162397658000,5.294658203125,-1.3464601039886475,-0.312142938375473,0.7125533223152161
1761397162417021400,5.314021484375,-1.2840009927749634,-0.9668185114860535,0.9970554113388062
1761397162436412000,5.333411865234375,-1.1291511058807373,-1.5022261142730713,1.2739219665527344
1761397162455788500,5.35278857421875,-0.9587247967720032,-1.6222575902938843,1.2526949644088745
1761397162475152000,5.37215185546875,-0.8218950033187866,-1.7028894424438477,0.9118422269821167
1761397162494542000,5.3915419921875,-0.6601731777191162,-1.5014625787734985,0.3423798978328705
1761397162513919000,5.4109189453125,-0.5354076027870178,-1.0955545902252197,-0.03955236077308655
1761397162533282300,5.4302822265625,-0.7139277458190918,-0.5984776020050049,0.04046862944960594
1761397162552672500,5.449672607421875,-0.6737645268440247,-0.2426590770483017,0.7004891037940979
1761397162572049400,5.46904931640625,-0.27915719151496887,-1.0161443948745728,1.2595670223236084
1761397162591412700,5.488412841796875,-0.16996824741363525,-2.421704053878784,-0.27029991149902344
1761397162610803000,5.507802978515625,-0.1954711228609085,-1.5249801874160767,-3.1840412616729736
1761397162630179800,5.527179931640625,-0.13209572434425354,0.7444701194763184,-4.003034591674805
1761397162649543200,5.546543212890625,0.237008735537529,1.7201459407806396,-1.8273495435714722
1761397162668933400,5.565933349609375,0.4912739098072052,0.659562349319458,0.9947647452354431
1761397162688310300,5.585310302734375,0.35474956035614014,-0.9307785034179688,2.5389866828918457
1761397162707673600,5.604673583984375,0.25502872467041016,-1.8201720714569092,2.5941154956817627
1761397162727063800,5.624063720703125,0.07345438003540039,-1.4318259954452515,1.7917677164077759
1761397162746440700,5.643440673828125,-0.2241809368133545,-0.23929941654205322,0.7069029808044434
1761397162765804000,5.662803955078125,-0.6122216582298279,0.9436063170433044,-0.21929416060447693
1761397162785194200,5.6821943359375,-0.9481876492500305,1.3142378330230713,-0.4990622103214264
1761397162804571100,5.701571044921875,-1.0063709020614624,0.7527165412902832,0.15652960538864136
1761397162823934500,5.7209345703125,-0.8105943202972412,-0.14080029726028442,1.0460759401321411
1761397162843324700,5.74032470703125,-0.5865660905838013,-0.46897798776626587,1.0379822254180908
1761397162862701600,5.75970166015625,-0.4227063059806824,-0.31137940287590027,0.44637662172317505
1761397162882064600,5.779064697265625,-0.037567105144262314,-0.10827267915010452,-0.2020377367734909
1761397162901455000,5.798455078125,0.09437590092420578,0.5207473039627075,-0.9775083065032959
1761397162920832000,5.81783203125,-0.3975088596343994,1.0495883226394653,-0.9144383668899536
1761397162940195000,5.837195068359375,-0.6449019908905029,0.6636855602264404,-0.2667875289916992
1761397162959585500,5.85658544921875,-0.39598172903060913,-0.5221216678619385,-1.3014100790023804
1761397162978962200,5.875962158203125,0.05268557742238045,-0.7647807598114014,-3.9787535667419434
1761397162998325500,5.895325439453125,0.5230379700660706,1.2355912923812866,-5.077515125274658
1761397163017716000,5.914716064453125,0.47050508856773376,2.90732741355896,-3.6090383529663086
1761397163037092600,5.934092529296875,0.17867282032966614,2.711092948913574,-1.7910041809082031
1761397163056456000,5.9534560546875,0.13331741094589233,1.158319115638733,-0.5572454333305359
1761397163075846400,5.972846435546875,0.47081053256988525,-0.5144860744476318,0.3787252902984619
1761397163095223000,5.99222314453125,0.846939742565155,-1.0909732580184937,0.870151937007904
1761397163114586400,6.01158642578125,1.080436110496521,-0.511431872844696,0.80280601978302
1761397163133976800,6.030976806640625,1.0016367435455322,0.41888850927352905,0.4228590130805969
1761397163153353500,6.050353515625,0.47615543007850647,1.0873081684112549,0.1328592747449875
1761397163172730400,6.06973046875,-0.17393875122070312,1.0969289541244507,0.039857782423496246
1761397163192107300,6.089107177734375,-0.7099572420120239,0.3906368315219879,0.06352811306715012
1761397163211484000,6.10848388671875,-0.8959602117538452,-0.8793146014213562,0.030847785994410515
1761397163230847200,6.12784716796875,-0.857782244682312,-1.7739003896713257,-0.0016798300202935934
1761397163250237400,6.147237548828125,-0.8724426031112671,-1.4000619649887085,0.3434488773345947
1761397163269614300,6.1666142578125,-0.9585720896720886,0.1647760421037674,1.3256912231445312
1761397163288977700,6.185977783203125,-1.1509889364242554,0.7496622800827026,1.7610726356506348
1761397163308368000,6.205367919921875,-1.1204465627670288,0.04825693368911743,0.2098260372877121
1761397163327744800,6.224744873046875,-0.476308137178421,-0.3962871730327606,-2.450261116027832
1761397163347108000,6.244108154296875,0.44729289412498474,0.041232191026210785,-2.716590404510498
1761397163366498300,6.263498291015625,1.2009257078170776,-0.025350160896778107,-0.38910970091819763
1761397163385875200,6.282875244140625,1.3899829387664795,-0.7163711190223694,2.128497362136841
1761397163405238500,6.302238525390625,1.0396620035171509,-1.737096905708313,3.2185542583465576
1761397163424628700,6.321628662109375,0.6022953987121582,-1.9863225221633911,2.522646427154541
1761397163444005600,6.341005615234375,0.26312246918678284,-0.569004237651825,0.6700994372367859
1761397163463369000,6.360368896484375,0.18081079423427582,0.5691569447517395,-0.6261184215545654
1761397163482759200,6.37975927734375,0.34039464592933655,0.34131091833114624,-0.22998400032520294
1761397163502136000,6.399135986328125,0.49234288930892944,-0.43080002069473267,1.118308663368225
1761397163521499400,6.41849951171875,0.42224815487861633,-0.7151494026184082,1.9490609169006348
1761397163540889600,6.4378896484375,0.2489202618598938,-0.5951179265975952,1.9759382009506226
1761397163560266200,6.457266357421875,-0.07299624383449554,-0.48608171939849854,1.5468180179595947
1761397163579629600,6.476629638671875,-0.30282753705978394,-0.08964183181524277,0.9379559755325317
1761397163599020000,6.49602001953125,-0.2721324563026428,0.26938363909721375,0.6319214701652527
1761397163618396700,6.515396728515625,-0.2211267054080963,0.14461809396743774,0.8524373769760132
1761397163637760000,6.534760009765625,-0.3970507085323334,-0.08383878320455551,1.0491302013397217
1761397163657150500,6.554150390625,-0.7395833134651184,-0.6033644080162048,0.10292776674032211
1761397163676527000,6.573527099609375,-0.5506787896156311,-0.7556180357933044,-1.9069124460220337
1761397163695890400,6.592890380859375,0.0021379655227065086,-0.2086043357849121,-3.4957261085510254
1761397163715281000,6.612281005859375,0.592216432094574,-0.12522368133068085,-2.899386405944824
1761397163734657500,6.631657470703125,0.8559496998786926,-0.4253024160861969,-0.5128062963485718
1761397163754020900,6.651020751953125,0.32374903559684753,-0.5763344168663025,1.2836954593658447
1761397163773411300,6.670411376953125,-0.15775130689144135,-0.5152496695518494,1.4118207693099976
1761397163792788000,6.6897880859375,-0.12720894813537598,-0.37979426980018616,0.34696123003959656
1761397163812151300,6.7091513671875,0.31351736187934875,-0.2313583940267563,-0.6868977546691895
1761397163831541500,6.72854150390625,0.5940489768981934,0.16874656081199646,-0.8487722873687744
1761397163850918400,6.74791845703125,0.33764582872390747,0.2880144715309143,-0.1382041871547699
1761397163870295300,6.76729541015625,-0.1650814712047577,-0.0590994730591774,0.7159129977226257
1761397163889672000,6.786671875,-0.4017847776412964,-0.29778802394866943,1.4093773365020752
1761397163909048800,6.806048828125,-0.34070006012916565,0.02886253222823143,1.7340426445007324
1761397163928412200,6.825412109375,-0.24372805655002594,0.5554128885269165,1.5978237390518188
1761397163947802400,6.84480224609375,-0.12308572232723236,0.4947862923145294,1.3611204624176025
1761397163967179300,6.86417919921875,-0.23746687173843384,0.47111594676971436,0.9029849767684937
1761397163986542600,6.88354248046875,-0.7507312893867493,0.24189551174640656,-0.17745113372802734
1761397164005932800,6.902932861328125,-0.9927794933319092,-0.020463382825255394,-1.672347068786621
1761397164025309700,6.922309814453125,-0.5549547076225281,0.27381229400634766,-2.4023096561431885
1761397164044673000,6.941673095703125,0.2038702666759491,0.3990359604358673,-2.1659116744995117
1761397164064063200,6.961063232421875,0.8063184022903442,-0.013285927474498749,-1.065775752067566
1761397164083440000,6.980440185546875,0.5935907959938049,-0.1360662281513214,0.3549022674560547
1761397164102803500,6.999803466796875,0.25350162386894226,0.06429167091846466,1.0792144536972046
1761397164122193700,7.019193603515625,0.17241163551807404,0.08658760040998459,0.9474241137504578
1761397164141570600,7.038570556640625,0.42453885078430176,0.17302247881889343,0.31290650367736816
1761397164160933600,7.05793359375,0.5126535892486572,0.25350162386894226,-0.3402419090270996
1761397164180324000,7.077323974609375,0.35413870215415955,0.4608842432498932,-0.6639909744262695
1761397164199701000,7.096700927734375,0.11621369421482086,0.7473716139793396,-0.3787252902984619
1761397164219064000,7.11606396484375,-0.021990500390529633,0.6166502833366394,0.41232189536094666
1761397164238454500,7.13545458984375,-0.02504473738372326,-0.03145863488316536,1.184432864189148
1761397164257831400,7.15483154296875,0.11361759155988693,-0.5515950918197632,1.5037531852722168
1761397164277194500,7.174194580078125,0.18218518793582916,-0.8843541145324707,1.2936217784881592
1761397164296585000,7.1935849609375,0.12843063473701477,-0.8313631415367126,0.6473453640937805
1761397164315961600,7.212961669921875,0.005803049076348543,0.1647760421037674,0.09498675167560577
1761397164335325000,7.232324951171875,0.04153761267662048,0.38910970091819763,-0.24632415175437927
1761397164354715400,7.25171533203125,0.19684553146362305,-0.2716743052005768,-1.0178242921829224
1761397164374092000,7.271092041015625,0.6163448691368103,-0.5844281315803528,-1.852852463722229
1761397164393455400,7.290455322265625,1.1491564512252808,-0.7400414347648621,-2.0205299854278564
1761397164412845800,7.309845703125,1.2381874322891235,-0.6490252017974854,-1.5697247982025146
1761397164432222500,7.329222412109375,0.8472451567649841,-0.1892099380493164,-0.9599464535713196
1761397164451585800,7.348585693359375,0.6977402567863464,0.12552911043167114,-0.39598172903060913
1761397164470976000,7.36797607421875,0.9721634387969971,-0.0653606578707695,0.168899267911911
1761397164490353000,7.387352783203125,1.2435322999954224,-0.5418215394020081,0.7831062078475952
1761397164509716200,7.40671630859375,1.0769237279891968,-0.8941276669502258,1.0622633695602417
1761397164529106400,7.4261064453125,0.6442911624908447,-0.6632274389266968,0.8359444737434387
1761397164548483300,7.4454833984375,0.2110477238893509,0.005497625097632408,0.270452618598938
1761397164567860200,7.464860107421875,-0.08780929446220398,0.6004628539085388,-0.41919392347335815
1761397164587236900,7.48423681640625,-0.21211670339107513,0.7366818189620972,-0.8507575392723083
1761397164606613800,7.50361376953125,-0.17836740612983704,0.4265241026878357,-0.9132166504859924
1761397164625977000,7.52297705078125,-0.18493400514125824,0.031916771084070206,-0.8412894010543823
1761397164645367300,7.5423671875,-0.14767232537269592,-0.03268032893538475,-0.569004237651825
1761397164664744200,7.561744140625,0.03145863488316536,0.10521844029426575,-0.19180603325366974
1761397164684107500,7.581107421875,0.07574506103992462,-0.7346965670585632,-0.9927794933319092
1761397164703497700,7.600497802734375,0.20539739727973938,-0.4175141155719757,-2.4223148822784424
1761397164722874600,7.61987451171875,0.5766398310661316,0.9906415343284607,-2.4317829608917236
1761397164742238000,7.639238037109375,0.8226585388183594,1.4267865419387817,-1.1329689025878906
1761397164761628200,7.658628173828125,0.7736380696296692,1.4864968061447144,0.07513421028852463
1761397164781005000,7.678005126953125,0.3900259733200073,1.5762913227081299,0.7072083950042725
1761397164800368400,7.697368408203125,-0.022754060104489326,1.433658480644226,0.7029324769973755
1761397164819758600,7.716758544921875,-0.42224815487861633,1.0245435237884521,0.5415160655975342
1761397164839135500,7.736135498046875,-0.9631534218788147,0.6969767212867737,0.4679090082645416
1761397164858498600,7.75549853515625,-1.2650647163391113,0.8292251825332642,0.2670929729938507
1761397164877889000,7.774888916015625,-1.0996778011322021,1.2882769107818604,0.08964183181524277
1761397164897265700,7.794265625,-0.7705838084220886,1.08074152469635,0.19180603325366974
1761397164916642600,7.813642578125,-0.33504971861839294,0.31382277607917786,0.5166240930557251
1761397164936019500,7.83301953125,-0.10384403169155121,-0.24968381226062775,0.8020424246788025
1761397164955396000,7.85239599609375,-0.1948602795600891,-0.6859814524650574,0.9860602021217346
1761397164974759400,7.871759521484375,-0.3107685446739197,-0.6806365847587585,1.0101886987686157
1761397164994150000,7.89114990234375,-0.3310792148113251,-0.2701472043991089,1.2794195413589478
1761397165013526500,7.910526611328125,-0.37567105889320374,-0.40758782625198364,1.6036267280578613
1761397165032889900,7.929889892578125,-0.2748812735080719,-1.6274497509002686,0.8466343283653259
1761397165052280000,7.949280029296875,0.3196258246898651,-1.822768211364746,-1.3253858089447021
1761397165071657000,7.968656982421875,0.6604785919189453,-0.25502872467041016,-2.945505380630493
1761397165091020300,7.988020263671875,0.6022953987121582,1.213600754737854,-2.4203295707702637
1761397165110410500,8.007410400390626,0.624285876750946,1.6552433967590332,-0.312142938375473
1761397165129787400,8.026787353515624,0.42667680978775024,1.299272060394287,1.663489818572998
1761397165149150700,8.046150634765626,0.1904316395521164,0.36070531606674194,2.4020042419433594
1761397165168541000,8.065541015625,0.27686652541160583,-0.2958027720451355,1.947075605392456
1761397165187917800,8.084917724609374,0.6384881138801575,-0.09055810421705246,0.8890882134437561
1761397165207281200,8.10428125,0.7366818189620972,0.768140435218811,-0.16172181069850922
1761397165226671400,8.12367138671875,0.4022429287433624,1.3029371500015259,-0.5995466113090515
1761397165246048300,8.14304833984375,0.10109522193670273,1.3026317358016968,-0.15469707548618317
1761397165265425000,8.1624248046875,-0.14843589067459106,1.0624160766601562,0.6766660213470459
1761397165284801800,8.1818017578125,-0.2867927849292755,0.32283276319503784,1.1937482357025146
1761397165304178700,8.2011787109375,-0.30603447556495667,-0.6636855602264404,1.0857809782028198
1761397165323542000,8.2205419921875,-0.10598199814558029,-1.4556490182876587,0.3958290219306946
1761397165342932200,8.23993212890625,0.18249061703681946,-1.537655234336853,-1.1755754947662354
1761397165362309000,8.25930908203125,0.5464028716087341,-1.4504568576812744,-2.6684863567352295
1761397165381672400,8.27867236328125,0.3742966651916504,-2.423689126968384,-3.9555413722991943
1761397165401062700,8.298062744140625,-0.032222192734479904,-2.3850531578063965,-4.765372276306152
1761397165420439600,8.317439453125,-0.29794076085090637,0.11178504675626755,-2.9193918704986572
1761397165439802600,8.336802734375,0.3671191930770874,1.287513256072998,0.7357655167579651
1761397165459193000,8.356193115234374,0.5373928546905518,0.7864658236503601,3.150750160217285
1761397165478569700,8.37556982421875,0.22540263831615448,0.09177979826927185,3.3662264347076416
1761397165497933000,8.39493310546875,0.007635590620338917,-0.029167955741286278,2.174921751022339
1761397165517323500,8.414323486328126,-0.36849361658096313,0.43354883790016174,0.8550334572792053
1761397165536700200,8.4337001953125,-0.8945857882499695,0.6649072170257568,-0.1820324808359146
1761397165556063500,8.4530634765625,-1.1796988248825073,0.6839962005615234,-0.7762341499328613
1761397165575454000,8.472453857421876,-1.1088404655456543,0.6051968932151794,-0.8745805621147156
1761397165594830600,8.49183056640625,-0.7728744745254517,0.2605263590812683,-0.506239652633667
1761397165614194000,8.51119384765625,-0.19256959855556488,-0.48486000299453735,0.0331384651362896
1761397165633584000,8.530584228515625,0.24586601555347443,-1.339435338973999,0.07269082218408585
1761397165652961000,8.5499609375,0.15057384967803955,-1.2985085248947144,-0.46546560525894165
1761397165672324400,8.569324462890625,-0.4136963188648224,-0.19745637476444244,-0.8008207678794861
1761397165691714600,8.588714599609375,-0.3761292099952698,0.7223268747329712,-0.32313820719718933
1761397165711091500,8.608091552734376,-0.19821994006633759,0.20677179098129272,0.5141806602478027
1761397165730454800,8.627454833984375,-0.32970482110977173,-1.056002140045166,0.7864658236503601
1761397165749845000,8.646844970703125,0.037261683493852615,-1.4739744663238525,-0.3174878656864166
1761397165769222000,8.666221923828125,0.5418215394020081,-0.5694623589515686,-1.6439427137374878
1761397165788585200,8.685585205078125,0.8037222623825073,0.6048914790153503,-1.694948434829712
1761397165807975400,8.704975341796874,0.8423583507537842,1.0489774942398071,-0.5934380888938904
1761397165827352300,8.724352294921875,0.7258392572402954,0.9665130972862244,0.7762341499328613
1761397165846715600,8.743715576171875,0.3939964771270752,0.6548282504081726,1.13800847530365
1761397165866105900,8.76310595703125,-0.11972606182098389,0.6297835111618042,0.7131641507148743
1761397165885482800,8.782482666015625,-0.6633801460266113,0.9976662993431091,0.027793550863862038
1761397165904846000,8.80184619140625,-1.0593618154525757,1.3647854328155518,-0.47890424728393555
1761397165924236300,8.821236328125,-1.1641221046447754,1.3745590448379517,-0.7711946368217468
1761397165943613200,8.84061328125,-0.8247964978218079,0.9605573415756226,-0.7621846795082092
1761397165962989800,8.85998974609375,-0.24601873755455017,0.41766682267189026,-0.49448084831237793
1761397165982366700,8.87936669921875,0.1626380831003189,-0.09483403712511063,-0.18798823654651642
1761397166001743600,8.89874365234375,0.38452833890914917,-0.5312843918800354,-0.10246963053941727
1761397166021106700,8.918106689453126,0.423164427280426,-0.8252546191215515,-0.48898324370384216
1761397166040497200,8.9374970703125,0.40254834294319153,-1.654479742050171,-1.1943590641021729
1761397166059873800,8.956873779296876,0.6442911624908447,-1.3334795236587524,-1.129762053489685
1761397166079237000,8.976237060546875,0.48394373059272766,-0.19745637476444244,-0.4396573007106781
1761397166098627600,8.995627685546875,0.12858334183692932,-0.22723518311977386,-0.18936264514923096
1761397166118004200,9.015004150390626,0.6108472347259521,-1.287513256072998,-1.0995250940322876
1761397166137367600,9.034367431640625,1.2371183633804321,-1.7450379133224487,-2.374668836593628
1761397166156757800,9.0537578125,1.3664653301239014,-1.0491302013397217,-2.109102964401245
1761397166176134700,9.073134765625,1.550330400466919,-0.18142163753509521,-0.29030516743659973
1761397166195498000,9.092498046875,1.5257437229156494,0.15591876208782196,1.4083083868026733
1761397166214888200,9.11188818359375,1.3389772176742554,0.14156384766101837,2.094748020172119
1761397166234265000,9.13126513671875,1.0824213027954102,-0.09147437661886215,1.9244742393493652
1761397166253628400,9.15062841796875,0.681858241558075,-0.1435490995645523,1.2945380210876465
1761397166273018600,9.1700185546875,0.3978142738342285,0.1572931706905365,0.4569137394428253
1761397166292395500,9.1893955078125,0.32542887330055237,0.5013529062271118,-0.36513394117355347
1761397166311758800,9.2087587890625,0.252432644367218,0.6815528273582458,-0.7679877281188965
1761397166331149000,9.228149169921876,0.22677704691886902,0.6415423154830933,-0.5421269536018372
1761397166350526000,9.24752587890625,0.11315945535898209,0.28343313932418823,-0.111632339656353
1761397166369902600,9.266902587890625,0.07513421028852463,-0.2289150059223175,-0.14034216105937958
1761397166389279500,9.286279541015626,0.011606098152697086,-0.564728319644928,-0.5880932211875916
1761397166408656400,9.305656494140624,0.22250111401081085,-0.8008207678794861,-0.9953756332397461
1761397166428019700,9.325019775390626,0.2435753494501114,-0.601073682308197,-0.7962393760681152
1761397166447410000,9.344409912109375,-0.24540787935256958,-0.28373855352401733,0.021990500390529633
1761397166466786800,9.363786865234376,0.14064757525920868,-0.91566002368927,0.9608627557754517
1761397166486150000,9.38314990234375,0.7262973785400391,-3.239475727081299,0.3423798978328705
1761397166505540400,9.402540283203125,0.150421142578125,-2.6193130016326904,-1.2116155624389648
1761397166524917200,9.421917236328126,-1.0083560943603516,1.2154333591461182,-1.2252068519592285
1761397166544280300,9.4412802734375,-0.9605573415756226,2.9988019466400146,0.33382803201675415
1761397166563670800,9.4606708984375,-0.5696150660514832,2.2173755168914795,1.9965542554855347
1761397166583047400,9.48004736328125,-0.30313295125961304,0.8696937561035156,2.9519193172454834
1761397166602410800,9.49941064453125,0.05665608495473862,0.19989976286888123,3.063093662261963
1761397166621801200,9.51880126953125,0.07543963938951492,0.11957334727048874,2.7055952548980713
1761397166641177900,9.538177734375,-0.21990501880645752,0.4396573007106781,2.1875967979431152
1761397166660541200,9.557541259765625,-0.4546230733394623,0.9533798694610596,1.5817890167236328
1761397166679931400,9.576931396484374,-0.6823163628578186,0.9429954290390015,0.9930849075317383
1761397166699308300,9.596308349609375,-0.7250757217407227,0.5470137000083923,0.7345438003540039
1761397166718685200,9.615685302734375,-0.6116108298301697,-0.10598199814558029,0.7591304183006287
1761397166738061800,9.635061767578126,-0.5534276366233826,-0.6937697529792786,0.7560762166976929
1761397166757438700,9.654438720703125,-0.6565080881118774,-0.837471604347229,0.2101314514875412
1761397166776802000,9.673802001953124,-0.7832589149475098,-1.1201411485671997,-0.8875610828399658
1761397166796192300,9.693192138671876,-0.9471186995506287,-1.8722468614578247,-2.1219305992126465
1761397166815569200,9.712569091796874,-1.2476555109024048,-1.4338111877441406,-2.2977020740509033
1761397166834932500,9.731932373046876,-1.4000619649887085,-1.2003148794174194,-1.9895294904708862
1761397166854322700,9.75132275390625,-1.2175712585449219,-1.164427638053894,-2.0438950061798096
1761397166873699600,9.770699462890626,-0.7508839964866638,-0.09743013978004456,-1.6857857704162598
1761397166893063000,9.79006298828125,-0.3345915973186493,0.9368869662284851,-0.7276718020439148
1761397166912453000,9.809453125,-0.14797775447368622,1.048672080039978,0.5699204802513123
1761397166931830000,9.828830078125,-0.22311195731163025,-0.12171131372451782,1.6225630044937134
1761397166951193300,9.848193359375,-0.4587462842464447,-1.2113101482391357,1.6757067441940308
1761397166970583600,9.86758349609375,-0.6537593007087708,-1.0175188779830933,0.6988092660903931
1761397166989960400,9.88696044921875,-0.6284091472625732,-0.031153209507465363,-0.47646087408065796
1761397167009323800,9.90632373046875,-0.4825693368911743,0.8619054555892944,-1.120751976966858
1761397167028714000,9.9257138671875,-0.42072105407714844,0.9100096821784973,-1.0633323192596436
1761397167048090600,9.945090576171875,-0.41232189536094666,0.39949411153793335,-0.28908345103263855
1761397167067467500,9.964467529296876,-0.3758237659931183,0.24571330845355988,0.545181155204773
1761397167086844400,9.983844482421874,-0.29290124773979187,0.35566580295562744,1.0332481861114502
1761397167106221000,10.003220947265625,-0.12140589207410812,0.3232909142971039,1.3701304197311401
1761397167125584400,10.02258447265625,-0.1751604527235031,0.36162158846855164,1.4342693090438843
1761397167144974800,10.041974853515624,-0.363454133272171,0.22738789021968842,1.1821421384811401
1761397167164351500,10.0613515625,-0.1951656937599182,-0.21883602440357208,0.8729007244110107
1761397167183714800,10.08071484375,0.02764083817601204,-0.08322793990373611,0.4688252806663513
1761397167203105300,10.100105224609376,-0.056808795779943466,0.1582094430923462,-0.028098974376916885
1761397167222482000,10.11948193359375,-0.11712995916604996,0.2802261710166931,-0.31382277607917786
1761397167241845200,10.13884521484375,-0.01847812905907631,0.21623992919921875,-0.20768806338310242
1761397167261235500,10.1582353515625,-0.12781979143619537,-0.14583978056907654,-0.45324867963790894
1761397167280612400,10.1776123046875,-0.28847262263298035,0.11835165321826935,-0.9106205701828003
1761397167299975700,10.1969755859375,-0.26251161098480225,0.4960079789161682,-0.5714476108551025
1761397167319366000,10.216365966796875,-0.40636613965034485,0.3089359998703003,-0.0036650835536420345
1761397167338742800,10.23574267578125,-0.548082709312439,-0.07543963938951492,0.2163926362991333
1761397167358106000,10.255106201171875,-0.5393781065940857,-0.30160582065582275,0.2670929729938507
1761397167377496300,10.274496337890625,-0.5949652194976807,-0.44958359003067017,0.17149536311626434
1761397167396873200,10.293873291015625,-0.7556180357933044,-0.3805578351020813,0.011300674639642239
1761397167416249900,10.313249755859376,-0.8434273600578308,-0.2883199155330658,0.07482878863811493
1761397167435626800,10.332626708984375,-0.7153021693229675,-0.19180603325366974,0.3077143132686615
1761397167455003600,10.352003662109375,-0.44546034932136536,0.15897299349308014,0.6267293095588684
1761397167474380300,10.37138037109375,-0.19394400715827942,0.2217375487089157,0.846328854560852
1761397167493757200,10.390757080078124,-0.007635590620338917,0.3136700689792633,0.8516737818717957
1761397167513134000,10.410134033203125,-0.1751604527235031,0.573585569858551,0.880994439125061
1761397167532497400,10.429497314453124,-0.2883199155330658,0.33321717381477356,0.9721634387969971
1761397167551887600,10.4488876953125,0.0456608310341835,0.3927747905254364,0.9471186995506287
1761397167571264300,10.46826416015625,0.26663482189178467,0.5845808386802673,0.7881456613540649
1761397167590627600,10.487627685546874,0.11987877637147903,0.10995250940322876,0.5971031785011292
1761397167610018000,10.50701806640625,-0.091321662068367,0.07314895838499069,-0.08063183724880219
1761397167629394700,10.526394775390624,-0.18661384284496307,0.4453076422214508,-1.2267340421676636
1761397167648758000,10.545758056640626,-0.07925742864608765,0.2510582208633423,-2.2050058841705322
1761397167668148500,10.5651484375,0.15118469297885895,-0.04978405311703682,-2.169729471206665
1761397167687525000,10.584525146484374,0.19883078336715698,-0.4431696832180023,-1.3566917181015015
1761397167706902000,10.603902099609375,0.19440214335918427,-0.6198572516441345,-0.20768806338310242
