time,seconds_elapsed,z,y,x
1761299104104060700,0.058060791015625,0.1581752598285675,-0.2179456502199173,0.28485623002052307
1761299104124183600,0.07818359375,0.04054795950651169,0.04424549266695976,0.28967761993408203
1761299104144306700,0.098306640625,-0.04863891005516052,0.18546652793884277,0.3043721318244934
1761299104164429600,0.1184296875,-0.03747839853167534,0.20933032035827637,0.3179183006286621
1761299104184553700,0.1385537109375,-0.009818808175623417,0.16239343583583832,0.2875976860523224
1761299104204676600,0.158676513671875,0.0076155755668878555,0.07655682414770126,0.21588702499866486
1761299104224799700,0.1787998046875,0.0025992451701313257,0.03718705102801323,0.184944286942482
1761299104244922600,0.198922607421875,-0.05037049576640129,0.052320461720228195,0.17706452310085297
1761299104265046500,0.219046630859375,-0.08978554606437683,0.08108686655759811,0.15907540917396545
1761299104285169700,0.239169677734375,-0.08260166645050049,0.05152231454849243,0.09879182279109955
1761299104305292500,0.25929248046875,-0.07543031126260757,-0.06776200234889984,0.010932542383670807
1761299104325415700,0.279415771484375,-0.06443784385919571,-0.2247209995985031,-0.03316434472799301
1761299104345539600,0.29953955078125,-0.056109607219696045,-0.1493322253227234,-0.029701435938477516
1761299104365662500,0.319662353515625,-0.04836487025022507,-0.07754406332969666,-0.07983224838972092
1761299104385785600,0.33978564453125,-0.029271602630615234,0.028079304844141006,-0.12450597435235977
1761299104405908500,0.359908447265625,0.024872859939932823,-0.012461196631193161,-0.10376367717981339
1761299104426032600,0.38003271484375,0.08889418840408325,-0.12462688237428665,-0.019282618537545204
1761299104446155500,0.400155517578125,0.11173798143863678,-0.08631624281406403,0.0846022367477417
1761299104466278700,0.420278564453125,0.08505044877529144,-0.0014391721924766898,0.1460472196340561
1761299104486401500,0.440401611328125,0.05952138453722,0.15066353976726532,0.08305466920137405
1761299104506524700,0.460524658203125,0.09501492977142334,0.17893379926681519,-0.047680437564849854
1761299104526648600,0.480648681640625,0.09176081418991089,0.010762632824480534,-0.1308078169822693
1761299104546771500,0.500771484375,0.036495693027973175,-0.14149853587150574,-0.12402127683162689
1761299104566894600,0.52089453125,-0.016020778566598892,-0.14308765530586243,-0.11087964475154877
1761299104587017500,0.541017578125,-0.02353515289723873,-0.06746319681406021,-0.11842011660337448
1761299104607141400,0.561141357421875,-0.02046159841120243,-0.0444532185792923,-0.1081637516617775
1761299104627264500,0.581264404296875,-0.05600468069314957,-0.040707483887672424,-0.06868132948875427
1761299104647387400,0.601387451171875,-0.07908709347248077,-0.053158827126026154,-0.04146594926714897
1761299104667510500,0.621510498046875,-0.08363151550292969,-0.05578843131661415,0.009886186569929123
1761299104687634400,0.641634521484375,-0.11354227364063263,-0.07343906164169312,0.021584121510386467
1761299104707757600,0.661757568359375,-0.12321434170007706,-0.014966699294745922,-0.002770220162346959
1761299104727880400,0.68188037109375,-0.10069438815116882,-0.019170764833688736,0.006500776391476393
1761299104748003600,0.702003662109375,-0.07396530359983444,-0.06761952489614487,0.0768609568476677
1761299104768126500,0.72212646484375,-0.0654439851641655,-0.0952833741903305,0.10851742327213287
1761299104788250600,0.742250732421875,-0.07070719450712204,-0.038719963282346725,0.10231625288724899
1761299104808373500,0.76237353515625,-0.061166416853666306,0.01943548396229744,0.04469823092222214
1761299104828496400,0.782496337890625,-0.021618742495775223,0.048102814704179764,0.022403042763471603
1761299104848619500,0.80261962890625,0.008934905752539635,-0.013719274662435055,0.057967428117990494
1761299104868743700,0.82274365234375,0.05511731281876564,-0.07027682662010193,0.11731650680303574
1761299104888866600,0.842866455078125,0.059174906462430954,-0.015660718083381653,0.12619654834270477
1761299104908989700,0.86298974609375,0.027284352108836174,0.0009326389990746975,0.09403808414936066
1761299104929112600,0.883112548828125,-0.044494763016700745,-0.014208762906491756,0.021576398983597755
1761299104949236700,0.90323681640625,-0.09503570199012756,-0.0007720504072494805,-0.06726346164941788
1761299104969359600,0.923359619140625,-0.07660822570323944,-0.020075706765055656,-0.08138114213943481
1761299104989482800,0.943482666015625,-0.05883295461535454,-0.061158694326877594,0.018607506528496742
1761299105009605600,0.963605712890625,-0.07258152216672897,-0.07761596143245697,0.12783785164356232
1761299105029728800,0.983728759765625,-0.11952320486307144,-0.0387660376727581,0.10093460232019424
1761299105049852700,1.003852783203125,-0.15480396151542664,0.045463088899850845,-0.04048963636159897
1761299105069975600,1.0239755859375,-0.139682799577713,0.11733035743236542,-0.1383506804704666
1761299105090098700,1.0440986328125,-0.12943415343761444,0.12716513872146606,-0.11660384386777878
1761299105110221600,1.0642216796875,-0.08983827382326126,0.08662410825490952,-0.017405888065695763
1761299105130345500,1.084345458984375,-0.04404762014746666,0.04547454044222832,0.05475512519478798
1761299105150468600,1.104468505859375,-0.03459712490439415,0.03275341913104057,0.02015453577041626
1761299105170591500,1.124591552734375,-0.04674673080444336,0.02672242373228073,-0.07634643465280533
1761299105190714600,1.144714599609375,-0.06926669180393219,0.06337684392929077,-0.1271374523639679
1761299105210838500,1.164838623046875,-0.07737308740615845,0.12523621320724487,-0.11632341146469116
1761299105230961700,1.184961669921875,-0.05197371914982796,0.1162847951054573,-0.07466624677181244
1761299105251084500,1.20508447265625,0.007336209993809462,0.1252463310956955,-0.008105064742267132
1761299105271207700,1.225207763671875,0.04518026113510132,0.14515505731105804,0.02785932831466198
1761299105291330600,1.24533056640625,0.029514748603105545,0.12382926791906357,-0.0021899172570556402
1761299105311454500,1.265454345703125,0.003238936420530081,0.023572437465190887,-0.031982701271772385
1761299105331577600,1.28557763671875,0.013787983916699886,-0.04074876010417938,-0.01561438012868166
1761299105351700500,1.305700439453125,0.03401389345526695,-0.011660916730761528,0.03910106420516968
1761299105371823600,1.32582373046875,0.03669995814561844,0.022672023624181747,0.0740707665681839
1761299105391947500,1.345947509765625,0.04387611150741577,0.06713163107633591,0.08069537580013275
1761299105412070400,1.3660703125,0.02196628600358963,0.08950937539339066,0.03801875561475754
1761299105432193500,1.386193603515625,-0.013601829297840595,0.07634616643190384,-0.01902082934975624
1761299105452316400,1.40631640625,-0.03332759812474251,0.02605983056128025,-0.038837675005197525
1761299105472440600,1.426440673828125,-0.019706860184669495,0.02081926167011261,0.005816876422613859
1761299105492563500,1.4465634765625,0.006945257540792227,0.054847802966833115,0.028304342180490494
1761299105512686600,1.4666865234375,0.012775450013577938,0.07848841696977615,-0.008743157610297203
1761299105532809500,1.4868095703125,-0.0068296766839921474,0.08098272979259491,-0.02773096412420273
1761299105552932600,1.5069326171875,-0.02720632031559944,0.05259956046938896,-0.028414331376552582
1761299105573056500,1.527056396484375,-0.018081000074744225,0.002555303042754531,-0.02359161153435707
1761299105593179400,1.547179443359375,-0.030242057517170906,-0.030951257795095444,-0.02550429478287697
1761299105613302500,1.567302490234375,-0.02353036031126976,-0.042402852326631546,-0.03205833584070206
1761299105633425400,1.58742529296875,0.009926400147378445,-0.06465435773134232,-0.056352488696575165
1761299105653549300,1.60754931640625,0.04670571908354759,-0.07337221503257751,-0.039311185479164124
1761299105673672400,1.62767236328125,0.047740090638399124,-0.07699411362409592,-0.00974583812057972
1761299105693795300,1.64779541015625,0.032871395349502563,-0.003311640815809369,-0.0009723200928419828
1761299105713918500,1.66791845703125,0.012614861130714417,0.10572776198387146,-0.030251113697886467
1761299105734041300,1.688041259765625,0.007881092838943005,0.11054382473230362,-0.0511031299829483
1761299105754165500,1.70816552734375,0.011553059332072735,0.009394832886755466,-0.050400324165821075
1761299105774288400,1.728288330078125,0.012646020390093327,-0.06836733967065811,-0.031143805012106895
1761299105794411500,1.74841162109375,-0.013513944111764431,-0.07978164404630661,-0.057324010878801346
1761299105814534400,1.768534423828125,-0.055219314992427826,-0.03323252126574516,-0.08459930866956711
1761299105834658300,1.788658203125,-0.060571201145648956,0.04645218700170517,-0.11235450208187103
1761299105854781400,1.808781494140625,-0.038354046642780304,0.04729267954826355,-0.15249685943126678
1761299105874904300,1.828904296875,-0.015151255764067173,-0.05386829003691673,-0.16700497269630432
1761299105895027500,1.84902734375,0.000005060006060375599,-0.13725852966308594,-0.0854930654168129
1761299105915151600,1.869151611328125,-0.002326803747564554,-0.11625683307647705,-0.04101694002747536
1761299105935274500,1.8892744140625,0.008582303300499916,0.03702646121382713,-0.09609004855155945
1761299105955397400,1.9093974609375,0.025913622230291367,0.13265950977802277,-0.1398516446352005
1761299105975520300,1.929520263671875,0.04074210301041603,0.12679043412208557,-0.08198008686304092
1761299105995644700,1.949644775390625,0.04918139427900314,0.04701517894864082,-0.02564197964966297
1761299106015767600,1.969767578125,0.059177037328481674,-0.014785070903599262,-0.02919090911746025
1761299106035890700,1.989890625,0.06905283778905869,-0.026436934247612953,-0.026560237631201744
1761299106056013600,2.010013671875,0.05884973332285881,0.025363147258758545,-0.018032530322670937
1761299106076136700,2.03013671875,0.033490315079689026,0.10801567882299423,-0.03188815712928772
1761299106096260600,2.050260498046875,0.020127905532717705,0.10300574451684952,-0.0626860186457634
1761299106116383500,2.070383544921875,0.041253428906202316,0.04404069483280182,-0.0417700819671154
1761299106136506600,2.090506591796875,0.06486129015684128,0.007186007685959339,0.018622953444719315
1761299106156629500,2.11062939453125,0.07107364386320114,0.02448137477040291,0.04929777607321739
1761299106176753400,2.13075341796875,0.06036081165075302,0.06302396953105927,-0.00932266190648079
1761299106196876500,2.15087646484375,0.05259157344698906,0.07920081168413162,-0.07959442585706711
1761299106216999400,2.17099951171875,0.03814711794257164,0.06991170346736908,-0.03545119985938072
1761299106237122600,2.19112255859375,0.059357065707445145,0.06356539577245712,0.08544965088367462
1761299106257246500,2.21124658203125,0.10646119713783264,0.09322075545787811,0.16832296550273895
1761299106277369600,2.23136962890625,0.1259978860616684,0.11956661194562912,0.13657303154468536
1761299106297492500,2.251492431640625,0.08064530789852142,0.12733478844165802,0.06633348017930984
1761299106317615600,2.27161572265625,0.05077556148171425,0.12066702544689178,0.07228165119886398
1761299106337738500,2.291738525390625,0.054844871163368225,0.04626017436385155,0.11140695214271545
1761299106357862400,2.3118623046875,0.05349118635058403,-0.016353406012058258,0.12102016061544418
1761299106377985500,2.331985595703125,0.033353693783283234,0.020733240991830826,0.08827979117631912
1761299106398108400,2.3521083984375,0.009981527924537659,0.10103739798069,0.05507736653089523
1761299106418231600,2.3722314453125,0.014432468451559544,0.12066702544689178,0.0268342774361372
1761299106438355500,2.39235546875,0.04084889590740204,0.050631217658519745,0.007101585157215595
1761299106458478300,2.412478271484375,0.07794380187988281,-0.09002869576215744,0.020831245929002762
1761299106478601500,2.4326015625,0.08121256530284882,-0.15780028700828552,0.04038763791322708
1761299106498724400,2.452724365234375,0.04537786915898323,-0.09332249313592911,0.022305838763713837
1761299106518848500,2.4728486328125,0.03982304781675339,0.05501291900873184,-0.0440625324845314
1761299106538971400,2.492971435546875,0.05318013206124306,0.10814378410577774,-0.09443995356559753
1761299106559094500,2.513094482421875,0.08894718438386917,0.01344576757401228,-0.009859022684395313
1761299106579217400,2.533217529296875,0.08206850290298462,-0.06422106176614761,0.12153495103120804
1761299106599340500,2.553340576171875,0.024388164281845093,-0.06723043322563171,0.13283394277095795
1761299106619464400,2.57346435546875,-0.030255107209086418,-0.0303933247923851,0.051605403423309326
1761299106639587300,2.59358740234375,-0.08289488404989243,-0.02581189014017582,0.02437564730644226
1761299106659710500,2.61371044921875,-0.12562955915927887,-0.06678835302591324,0.06601017713546753
1761299106679833300,2.633833251953125,-0.13861647248268127,-0.10384517163038254,0.056775130331516266
1761299106699957200,2.653957275390625,-0.1047503799200058,-0.05174655094742775,0.029410086572170258
1761299106720080400,2.674080322265625,-0.08491355925798416,0.013921407982707024,0.030111029744148254
1761299106740203300,2.694203369140625,-0.09578964114189148,0.03777560964226723,0.05586300045251846
1761299106760326400,2.714326416015625,-0.07564735412597656,0.018514029681682587,0.08243575692176819
1761299106780449300,2.73444921875,-0.05772295221686363,-0.03116324543952942,0.051002729684114456
1761299106800573400,2.754573486328125,-0.0818578451871872,-0.03313611447811127,-0.0002412823960185051
1761299106820696300,2.7746962890625,-0.13983619213104248,0.02575862593948841,-0.033179525285959244
1761299106840819500,2.7948193359375,-0.1430080235004425,0.10272610932588577,-0.05293352156877518
1761299106860942300,2.8149423828125,-0.1052665039896965,0.12406308948993683,-0.062309179455041885
1761299106881066200,2.835066162109375,-0.05588723346590996,0.07581567019224167,-0.0400661937892437
1761299106901189400,2.855189453125,-0.03924700617790222,0.031324367970228195,-0.06725040823221207
1761299106921312300,2.875312255859375,-0.02129676565527916,-0.0013824469642713666,-0.10688410699367523
1761299106941435400,2.895435302734375,0.015846075490117073,0.012430304661393166,-0.11661875993013382
1761299106961559600,2.9155595703125,-0.008676579222083092,0.061960041522979736,-0.12977823615074158
1761299106981682400,2.935682373046875,-0.07889001816511154,0.15796726942062378,-0.20680084824562073
1761299107001805600,2.9558056640625,-0.0689774677157402,0.1696995496749878,-0.21522948145866394
1761299107021928400,2.975928466796875,0.013859356753528118,0.08195239305496216,-0.12998516857624054
1761299107042051600,2.996051513671875,0.10176870226860046,-0.03658011555671692,-0.04719813913106918
1761299107062175500,3.016175537109375,0.1250937283039093,-0.07379166781902313,-0.03014937974512577
1761299107082298600,3.036298583984375,0.11190682649612427,0.014667092822492123,-0.04364388436079025
1761299107102421500,3.05642138671875,0.09820779412984848,0.14830131828784943,-0.06932368129491806
1761299107122544600,3.076544677734375,0.12467855215072632,0.13331171870231628,-0.04122999310493469
1761299107142668500,3.09666845703125,0.17197948694229126,0.06643415242433548,0.049553971737623215
1761299107162791400,3.11679150390625,0.21339111030101776,0.040344759821891785,0.11281203478574753
1761299107182914600,3.13691455078125,0.21816988289356232,0.05338652431964874,0.10285873711109161
1761299107203037400,3.157037353515625,0.2053675353527069,0.10156311094760895,0.04591129720211029
1761299107223161300,3.177161376953125,0.19336307048797607,0.13384807109832764,-0.010076869279146194
1761299107243284500,3.197284423828125,0.19378624856472015,0.13195723295211792,-0.040334638208150864
1761299107263407400,3.217407470703125,0.20075148344039917,0.04935237020254135,-0.04587002098560333
1761299107283530500,3.237530517578125,0.22631728649139404,-0.02275218442082405,-0.022601449862122536
1761299107303653400,3.2576533203125,0.2532399892807007,-0.0364656001329422,-0.0027869981713593006
1761299107323777500,3.277777587890625,0.2457599639892578,0.04640691354870796,-0.01423619408160448
1761299107343900400,3.297900390625,0.2012564092874527,0.1343812495470047,-0.01037647482007742
1761299107364023600,3.3180234375,0.14881451427936554,0.13749182224273682,0.015566443093121052
1761299107384146400,3.338146484375,0.11904995888471603,0.05176039785146713,0.0498165600001812
1761299107404270300,3.358270263671875,0.10023019462823868,0.016319584101438522,0.07036204636096954
1761299107424393500,3.3783935546875,0.0647377148270607,0.02113005332648754,0.04332111030817032
1761299107444516400,3.398516357421875,0.031202927231788635,0.04146967828273773,0.0030309436842799187
1761299107464639500,3.418639404296875,0.017978467047214508,0.03720329329371452,-0.0028160265646874905
1761299107484762400,3.438762451171875,0.033964358270168304,-0.0019563580863177776,0.00609277980402112
1761299107504886300,3.45888623046875,0.03705362603068352,-0.021146563813090324,-0.0027020431589335203
1761299107525009400,3.479009521484375,0.029896646738052368,-0.012389025650918484,-0.014120079576969147
1761299107545132300,3.49913232421875,0.03129453957080841,-0.014667891897261143,0.007793208118528128
1761299107565255400,3.51925537109375,0.0013294500531628728,-0.04617149010300636,0.02533331885933876
1761299107585379300,3.53937939453125,-0.030217556282877922,-0.04301298037171364,0.036565735936164856
1761299107605502500,3.55950244140625,-0.038972433656454086,0.022041385993361473,0.052608881145715714
1761299107625625900,3.5796259765625,-0.04580530524253845,0.07367794960737228,0.06024123728275299
1761299107645748700,3.599748779296875,-0.05955706909298897,0.06896548718214035,0.04591209813952446
1761299107665873000,3.619872802734375,-0.07799147069454193,0.018675416707992554,0.016412261873483658
1761299107685995800,3.639995849609375,-0.10606997460126877,-0.08315427601337433,-0.04259087145328522
1761299107706119000,3.660118896484375,-0.16560813784599304,-0.13726304471492767,-0.11097285896539688
1761299107726241800,3.68024169921875,-0.21170425415039062,-0.13180837035179138,-0.16084294021129608
1761299107746365700,3.70036572265625,-0.21348218619823456,-0.0933334082365036,-0.17556196451187134
1761299107766488800,3.72048876953125,-0.18687348067760468,-0.045227400958538055,-0.1522582471370697
1761299107786611700,3.74061181640625,-0.1838928759098053,-0.0018809906905516982,-0.09236534684896469
1761299107806734800,3.76073486328125,-0.16212552785873413,0.013200490735471249,-0.044084902852773666
1761299107826857700,3.780857666015625,-0.12338878214359283,0.027393806725740433,-0.009824134409427643
1761299107846982000,3.80098193359375,-0.09449002146720886,0.01332699041813612,0.00013768543431069702
1761299107867104800,3.821104736328125,-0.09364819526672363,0.01284309383481741,0.008775648660957813
1761299107887227600,3.8412275390625,-0.0789845660328865,0.02298814058303833,0.05909581109881401
1761299107907350800,3.861350830078125,-0.033778734505176544,0.07667027413845062,0.0868145227432251
1761299107927474700,3.881474609375,0.029617013409733772,0.10070130974054337,0.07761010527610779
1761299107947597800,3.901597900390625,0.04043557494878769,0.05832589045166969,0.06856121867895126
1761299107967720700,3.921720703125,0.036318060010671616,0.022998526692390442,0.08117873966693878
1761299107987843800,3.94184375,-0.003922303672879934,-0.022669360041618347,0.03057974763214588
1761299108007966700,3.961966796875,-0.039802540093660355,-0.009800433181226254,-0.022671224549412727
1761299108028090600,3.982090576171875,-0.029878802597522736,0.026821760460734367,-0.011533351615071297
1761299108048211700,4.002211669921875,-0.002231462625786662,0.04718375578522682,0.019051987677812576
1761299108068334800,4.0223349609375,0.012476377189159393,0.045396242290735245,0.04303029179573059
1761299108088457700,4.042457763671875,0.029031917452812195,0.044817004352808,0.05378946289420128
1761299108108580900,4.062580810546875,0.04754355177283287,0.023011576384305954,0.05474899709224701
1761299108128704800,4.082704833984375,0.04114397615194321,-0.018452243879437447,0.04704074561595917
1761299108148828000,4.102827880859375,0.023359118029475212,-0.03692792356014252,0.07575494796037674
1761299108168950800,4.12295068359375,0.013741112314164639,0.02161341719329357,0.12456296384334564
1761299108189074000,4.143073974609375,0.0382632315158844,0.10030583292245865,0.13619086146354675
1761299108209197800,4.16319775390625,0.08571091294288635,0.13246643543243408,0.14635694026947021
1761299108229320700,4.18332080078125,0.1317838579416275,0.11501926183700562,0.16681641340255737
1761299108249443800,4.20344384765625,0.15993374586105347,0.06804323196411133,0.19209833443164825
1761299108269566700,4.223566650390625,0.1588442474603653,-0.01720588468015194,0.2226914018392563
1761299108289690600,4.243690673828125,0.14556385576725006,-0.07376609742641449,0.22059576213359833
1761299108309813800,4.263813720703125,0.12086863070726395,-0.03663391247391701,0.16341422498226166
1761299108329936600,4.2839365234375,0.08027459681034088,0.0038432078436017036,0.07440472394227982
1761299108350059800,4.304059814453125,0.05861004814505577,-0.044025782495737076,0.024103472009301186
1761299108370182700,4.3241826171875,0.06675878912210464,-0.11062105000019073,0.03741581365466118
1761299108390306800,4.344306884765625,0.060085974633693695,-0.11397930234670639,0.05932058021426201
1761299108410429700,4.3644296875,0.027411118149757385,-0.03970293700695038,0.08152042329311371
1761299108430552800,4.384552734375,0.02732270024716854,0.035840023308992386,0.10326140373945236
1761299108450675700,4.40467578125,0.021823273971676826,0.05325257033109665,0.11090388149023056
1761299108470800000,4.4247998046875,-0.014842595905065536,-0.018025871366262436,0.08338570594787598
1761299108490923000,4.444923095703125,-0.08143041282892227,-0.09916626662015915,0.003924167715013027
1761299108511046000,4.4650458984375,-0.12504446506500244,-0.10774537175893784,-0.0398414209485054
1761299108531168800,4.485168701171875,-0.140263631939888,-0.05161046236753464,-0.023095466196537018
1761299108551291600,4.505291748046875,-0.13276204466819763,0.01745275966823101,-0.028835110366344452
1761299108571415800,4.525415771484375,-0.09065080434083939,0.006148972548544407,-0.056960754096508026
1761299108591539000,4.5455390625,-0.017475130036473274,-0.0038434739690274,-0.05673358589410782
1761299108611662300,4.565662353515625,0.030237264931201935,0.026087792590260506,-0.07512271404266357
1761299108631785500,4.585785400390625,0.033125195652246475,0.042092859745025635,-0.08299874514341354
1761299108651909400,4.605909423828125,0.011343734338879585,-0.03880119323730469,-0.07903969287872314
1761299108672032300,4.6260322265625,0.01149686612188816,-0.19284695386886597,-0.035118039697408676
1761299108692155400,4.6461552734375,0.05308479070663452,-0.30034491419792175,0.03882409632205963
1761299108712278300,4.6662783203125,0.10768704861402512,-0.2536759376525879,0.0881439745426178
1761299108732402400,4.68640234375,0.11750159412622452,-0.0901421457529068,0.11127938330173492
1761299108752525300,4.706525390625,0.09883629530668259,0.04139005020260811,0.11027058213949203
1761299108772648400,4.7266484375,0.032212529331445694,0.09006571024656296,0.1071818470954895
1761299108792771300,4.746771240234375,-0.03526371344923973,0.049612026661634445,0.0931997150182724
1761299108812894500,4.76689453125,-0.050161171704530716,-0.049681004136800766,0.08906569331884384
1761299108833018400,4.787018310546875,-0.053697582334280014,-0.10602203756570816,0.08700307458639145
1761299108853141200,4.807141357421875,-0.08659853786230087,-0.07336129993200302,0.04396878927946091
1761299108873264400,4.827264404296875,-0.1356760710477829,-0.029638320207595825,-0.023602796718478203
1761299108893387300,4.84738720703125,-0.12904533743858337,-0.019665047526359558,-0.06988001614809036
1761299108913511200,4.86751123046875,-0.08739695698022842,-0.050160106271505356,-0.11275903880596161
1761299108933634300,4.88763427734375,-0.07625242322683334,-0.020847758278250694,-0.17969253659248352
1761299108953757200,4.907757080078125,-0.1496502161026001,0.02039049193263054,-0.23661094903945923
1761299108973880300,4.92788037109375,-0.1206638365983963,0.06738249957561493,-0.2408355176448822
1761299108994003200,4.948003173828125,-0.08264108747243881,0.05871657654643059,-0.1996031254529953
1761299109014127400,4.96812744140625,-0.07702873647212982,0.023517576977610588,-0.13226403295993805
1761299109034250200,4.988250244140625,-0.08436627686023712,0.031500134617090225,-0.08857300877571106
1761299109054373400,5.008373291015625,-0.0852762833237648,0.07912491261959076,-0.07654164731502533
1761299109074496300,5.028496337890625,-0.05143655836582184,0.140451118350029,-0.11666563153266907
1761299109094620400,5.048620361328125,-0.009395631961524487,0.17060263454914093,-0.21299801766872406
1761299109114743600,5.06874365234375,0.054844338446855545,0.12096051126718521,-0.21869266033172607
1761299109134866400,5.088866455078125,0.1284056454896927,0.044127512723207474,-0.11799241602420807
1761299109154989300,5.1089892578125,0.19275347888469696,-0.03135286271572113,0.002442118711769581
1761299109175113500,5.129113525390625,0.18244890868663788,-0.07481059432029724,0.05230448395013809
1761299109195236400,5.149236328125,0.10880504548549652,-0.02582493983209133,-0.00885074958205223
1761299109215359500,5.169359375,0.03740915656089783,0.0690070316195488,-0.14096936583518982
1761299109235482400,5.189482421875,0.008258994668722153,0.09672494232654572,-0.20176666975021362
1761299109255605500,5.20960546875,0.0070736221969127655,0.045340318232774734,-0.14673911035060883
1761299109275729400,5.2297294921875,0.0133261913433671,-0.037266943603754044,-0.03453853726387024
1761299109295852500,5.2498525390625,-0.014757107943296432,-0.11246449500322342,0.021411282941699028
1761299109315975400,5.269975341796875,-0.05475166067481041,-0.10817227512598038,-0.01613316312432289
1761299109336098600,5.2900986328125,-0.05306827649474144,-0.057671550661325455,-0.07490140199661255
1761299109356222500,5.310222412109375,-0.027951207011938095,0.007045126520097256,-0.036018721759319305
1761299109376345300,5.330345458984375,0.00224877311848104,0.038298651576042175,0.093312107026577
1761299109396468500,5.350468505859375,0.016055665910243988,0.01575605943799019,0.20200982689857483
1761299109416591400,5.37059130859375,0.00026525085559114814,-0.07538050413131714,0.21954087913036346
1761299109436714500,5.390714599609375,-0.013481187634170055,-0.09034907072782516,0.16178756952285767
1761299109456838400,5.41083837890625,-0.05529894307255745,-0.00047111319145187736,0.05904680863022804
1761299109476961300,5.430961181640625,-0.08774050325155258,0.07722608000040054,-0.020322581753134727
1761299109497084400,5.45108447265625,-0.06659340858459473,0.025671275332570076,0.023478960618376732
1761299109517207300,5.471207275390625,-0.026573553681373596,-0.05770271271467209,0.15433470904827118
1761299109537331500,5.49133154296875,-0.01733105257153511,-0.10626332461833954,0.1829967200756073
1761299109557454300,5.511454345703125,-0.04428783431649208,-0.09997639805078506,0.05326481908559799
1761299109577577500,5.531577392578125,-0.08938633650541306,-0.0991649329662323,-0.05636447295546532
1761299109597700400,5.551700439453125,-0.113588348031044,-0.13122566044330597,-0.03339923545718193
1761299109617823700,5.57182373046875,-0.08518946170806885,-0.14196112751960754,0.0034352114889770746
1761299109637947000,5.59194677734375,-0.0568062923848629,-0.15858271718025208,0.044736046344041824
1761299109658069800,5.61206982421875,-0.041133321821689606,-0.20638300478458405,0.1095493957400322
1761299109678193000,5.63219287109375,-0.006902380846440792,-0.31500187516212463,0.16585980355739594
1761299109698315800,5.652315673828125,0.040468864142894745,-0.4778198301792145,0.10774670541286469
1761299109718440000,5.67243994140625,0.10527395457029343,-0.5977613925933838,-0.0011944277212023735
1761299109738562800,5.692562744140625,0.0841367170214653,-0.5989878177642822,-0.018677281215786934
1761299109758686000,5.71268603515625,-0.05079473555088043,-0.45133310556411743,0.09874335676431656
1761299109778808800,5.732808837890625,-0.13659726083278656,-0.1601632982492447,0.18537785112857819
1761299109798933000,5.75293310546875,-0.15235678851604462,0.20418216288089752,0.09176347404718399
1761299109819056000,5.77305615234375,-0.2025110274553299,0.3103562593460083,-0.10247497260570526
1761299109839179000,5.793178955078125,-0.22410394251346588,0.21869133412837982,-0.17009396851062775
1761299109859302100,5.81330224609375,-0.2332202047109604,0.1444258838891983,-0.10068772733211517
1761299109879425000,5.833425048828125,-0.23543702065944672,0.08985425531864166,-0.03255261853337288
1761299109899549000,5.853548828125,-0.18718160688877106,0.03657958284020424,-0.05350503697991371
1761299109919672000,5.873672119140625,-0.10723644495010376,-0.027709659188985825,-0.12980885803699493
1761299109939795000,5.893794921875,-0.041370876133441925,-0.05577431619167328,-0.16841191053390503
1761299109959918000,5.91391796875,-0.03244182839989662,-0.031674571335315704,-0.1637290120124817
1761299109980042000,5.9340419921875,-0.00953864399343729,-0.026975957676768303,-0.11567360162734985
1761299110000164900,5.954164794921875,0.059837233275175095,-0.0407508909702301,-0.01483487244695425
1761299110020288000,5.9742880859375,0.10975019633769989,0.04976942017674446,0.09886372834444046
1761299110040411000,5.994410888671875,0.09055173397064209,0.19336946308612823,0.0953584760427475
1761299110060535000,6.01453515625,0.04030641168355942,0.2593950927257538,0.020855747163295746
1761299110080658000,6.034657958984375,-0.001282312092371285,0.20197945833206177,-0.02094123512506485
1761299110100781000,6.054781005859375,-0.01410729717463255,0.11977273970842361,-0.045703571289777756
1761299110120904000,6.074904052734375,0.007340470794588327,0.08607763051986694,-0.04652542248368263
1761299110141027000,6.095027099609375,0.024820128455758095,0.11942679435014725,-0.012792227789759636
1761299110161151000,6.11515087890625,0.012338425032794476,0.19290819764137268,0.004505536053329706
1761299110181273900,6.13527392578125,-0.038289863616228104,0.24184031784534454,0.01582876406610012
1761299110201397000,6.15539697265625,-0.11240191012620926,0.23457016050815582,-0.0020506340079009533
1761299110221520000,6.175519775390625,-0.14400537312030792,0.21000516414642334,-0.031851138919591904
1761299110241644000,6.19564404296875,-0.11616788804531097,0.1793801486492157,-0.026815103366971016
1761299110261767000,6.215766845703125,-0.07093675434589386,0.11266183108091354,0.03021489456295967
1761299110281889800,6.235889892578125,-0.0345422625541687,0.019280221313238144,0.07520793378353119
1761299110302013000,6.256012939453125,-0.019872507080435753,-0.029459621757268906,0.03936551511287689
1761299110322135800,6.2761357421875,-0.003471430391073227,-0.023133015260100365,-0.002626942005008459
1761299110342260000,6.296260009765625,0.024688301607966423,0.03785523772239685,0.021711153909564018
1761299110362382800,6.3163828125,0.06000634655356407,0.07447023689746857,0.04345879331231117
1761299110382506000,6.336506103515625,0.050340134650468826,0.08258089423179626,0.050286341458559036
1761299110402628900,6.35662890625,-0.00430047232657671,0.024227840825915337,0.02827318385243416
1761299110422752800,6.376752685546875,-0.038554318249225616,-0.01312006264925003,-0.03467009589076042
1761299110442876000,6.3968759765625,-0.03563123196363449,-0.04063557833433151,-0.08141203224658966
1761299110462998800,6.416998779296875,-0.024461932480335236,-0.0864185094833374,-0.0733591690659523
1761299110483122000,6.437121826171875,-0.06665119528770447,-0.09243139624595642,-0.02648487128317356
1761299110503245800,6.457245849609375,-0.08801454305648804,-0.01661333069205284,-0.032993901520967484
1761299110523369000,6.477368896484375,-0.08792319893836975,0.020063722506165504,-0.09108463674783707
1761299110543491800,6.497491943359375,-0.07134661823511124,-0.03386954963207245,-0.11858523637056351
1761299110563614700,6.51761474609375,-0.07728786021471024,-0.07319245487451553,-0.0798863098025322
1761299110583737900,6.53773779296875,-0.06059064343571663,-0.05120166763663292,-0.029516613110899925
1761299110603862000,6.557862060546875,-0.06151103228330612,-0.02365978993475437,0.005879993550479412
1761299110623984600,6.577984619140625,-0.049562759697437286,0.01558215543627739,0.05524461343884468
1761299110644107500,6.598107421875,-0.050151318311691284,0.05475619062781334,0.06599392741918564
1761299110664230700,6.618230712890625,-0.03187990188598633,0.0685039609670639,0.015017032623291016
1761299110684353500,6.638353515625,-0.026734674349427223,0.03188949078321457,-0.025010278448462486
1761299110704477400,6.6584775390625,-0.06145563721656799,-0.038070954382419586,-0.028089424595236778
1761299110724600600,6.6786005859375,-0.135371133685112,-0.020965203642845154,-0.06590684503316879
1761299110744723500,6.698723388671875,-0.19071562588214874,0.040888309478759766,-0.1512201428413391
1761299110764846600,6.7188466796875,-0.1982121467590332,0.08557002991437912,-0.2544653117656708
1761299110784970500,6.738970458984375,-0.047271110117435455,0.007140201050788164,-0.29181987047195435
1761299110805093600,6.75909375,0.1278780698776245,-0.10820849239826202,-0.25057175755500793
1761299110825216500,6.779216552734375,0.1861235350370407,-0.14087136089801788,-0.23016369342803955
1761299110845339600,6.799339599609375,0.15499837696552277,-0.17135471105575562,-0.25952237844467163
1761299110865463600,6.819463623046875,0.08099924772977829,-0.12071443349123001,-0.2176540344953537
1761299110885586400,6.83958642578125,0.004896221682429314,-0.04100282862782478,-0.15774035453796387
1761299110905709600,6.85970947265625,0.008665659464895725,0.02654425986111164,-0.14841343462467194
1761299110925832400,6.87983251953125,0.05287972465157509,0.02215403877198696,-0.12499280273914337
1761299110945955600,6.89995556640625,0.08441554754972458,0.003171292133629322,-0.04675765335559845
1761299110966079500,6.92007958984375,0.11359313875436783,0.02713334932923317,0.0453546978533268
1761299110986202400,6.940202392578125,0.11174783855676651,0.08653862029314041,0.04743782430887222
1761299111006325500,6.960325439453125,0.08298010379076004,0.1459318995475769,-0.009734386578202248
1761299111026448400,6.980448486328125,0.06529511511325836,0.14171159267425537,-0.038167357444763184
1761299111046572800,7.00057275390625,0.07739518582820892,0.10770729184150696,-0.003920439630746841
1761299111066695400,7.0206953125,0.1223251149058342,0.048053544014692307,0.049010418355464935
1761299111086818600,7.040818603515625,0.1314230114221573,-0.04204385727643967,0.08076728135347366
1761299111106941400,7.06094140625,0.10904339700937271,-0.08074917644262314,0.04059243202209473
1761299111127064600,7.081064697265625,0.07426730543375015,-0.13863004744052887,-0.033376600593328476
1761299111147188700,7.101188720703125,0.058333881199359894,-0.1649029403924942,-0.06507860124111176
1761299111167311600,7.1213115234375,0.051171042025089264,-0.1797197014093399,-0.05113295838236809
1761299111187434800,7.141434814453125,0.04504790157079697,-0.10991664975881577,-0.0023752732668071985
1761299111207557600,7.1615576171875,0.04307716339826584,-0.05598390847444534,0.031798675656318665
1761299111227681500,7.181681640625,0.03347300365567207,-0.06100130081176758,0.018332934007048607
1761299111247804700,7.2018046875,0.042398855090141296,-0.029887324199080467,0.033246103674173355
1761299111267927600,7.221927490234375,0.07405771315097809,0.08209140598773956,0.07048535346984863
1761299111288050700,7.24205078125,0.09898410737514496,0.2003251016139984,0.07911985367536545
1761299111308173600,7.262173583984375,0.07221454381942749,0.2637570798397064,0.03669010475277901
1761299111328297700,7.282297607421875,0.04019349068403244,0.3014274835586548,-0.02195802889764309
1761299111348420600,7.302420654296875,0.02857412025332451,0.3314559757709503,-0.07458342611789703
1761299111368543700,7.322543701171875,0.06682509928941727,0.2561119496822357,-0.1161138191819191
1761299111388666600,7.34266650390625,0.15065635740756989,0.1081744059920311,-0.11659132689237595
1761299111408790500,7.36279052734375,0.19558919966220856,-0.02569977007806301,-0.11769946664571762
1761299111428913700,7.38291357421875,0.20209850370883942,-0.09714678674936295,-0.18054048717021942
1761299111449036500,7.40303662109375,0.2144763469696045,-0.060096625238657,-0.2823467254638672
1761299111469159700,7.42315966796875,0.24666517972946167,-0.039433691650629044,-0.2736094295978546
1761299111489283600,7.44328369140625,0.25236672163009644,-0.06699714064598083,-0.13059556484222412
1761299111509406500,7.463406494140625,0.19403551518917084,-0.0548427440226078,0.0002993392990902066
1761299111529529600,7.483529541015625,0.1057642474770546,-0.052197691053152084,0.05859779939055443
1761299111549652500,7.503652587890625,0.04075169190764427,-0.05080006271600723,0.07962345331907272
1761299111569775600,7.523775634765625,-0.014095312915742397,0.00868936162441969,0.12086490541696548
1761299111589899500,7.5438994140625,-0.016320116817951202,0.09110967069864273,0.1749747395515442
1761299111610022700,7.564022705078125,0.021319137886166573,0.16217797994613647,0.20795613527297974
1761299111630146000,7.58414599609375,0.007672300562262535,0.23841097950935364,0.18789826333522797
1761299111650269000,7.60426904296875,-0.0417727455496788,0.25071612000465393,0.10418179631233215
1761299111670393000,7.62439306640625,-0.07560474425554276,0.205172598361969,0.01444205641746521
1761299111690516000,7.644515869140625,-0.04079722985625267,0.14692579209804535,-0.027661189436912537
1761299111710639000,7.66463916015625,-0.0008807073463685811,0.0845111533999443,-0.031869251281023026
1761299111730762000,7.684761962890625,0.017429057508707047,0.0009781790431588888,-0.060139503329992294
1761299111750885000,7.704885009765625,0.03255794197320938,-0.043535493314266205,-0.05288451910018921
1761299111771009000,7.725009033203125,0.023743147030472755,-0.057047039270401,-0.03629915043711662
1761299111791132000,7.7451318359375,0.017371000722050667,-0.10845856368541718,-0.062310244888067245
1761299111811255000,7.765255126953125,0.00999111495912075,-0.17845922708511353,-0.08247889578342438
1761299111831378000,7.7853779296875,-0.00908430851995945,-0.22264160215854645,-0.08136942237615585
1761299111851501800,7.805501708984375,-0.022060561925172806,-0.18094448745250702,-0.09760911762714386
1761299111871625000,7.825625,-0.044623129069805145,-0.12266679853200912,-0.11113051325082779
1761299111891747800,7.845747802734375,-0.06425382196903229,-0.007785218767821789,-0.09591880440711975
1761299111911871000,7.86587109375,-0.018842663615942,0.0835534855723381,-0.014162690378725529
1761299111931993900,7.885993896484375,0.015454856678843498,0.09649617969989777,0.05166878551244736
1761299111952118000,7.906117919921875,0.03911517933011055,0.053037650883197784,0.029748041182756424
1761299111972241000,7.926240966796875,0.042084336280822754,0.0003904194163624197,-0.01127768773585558
1761299111992364000,7.946364013671875,0.02996588870882988,0.0038570561446249485,-0.010801514610648155
1761299112012487000,7.96648681640625,0.042938411235809326,0.08847127854824066,0.014689464122056961
1761299112032610800,7.98661083984375,0.05096517875790596,0.1685733050107956,0.026740267872810364
1761299112052734000,8.00673388671875,0.04319966956973076,0.20718248188495636,-0.023900805041193962
1761299112072856800,8.02685693359375,0.054123688489198685,0.16521798074245453,-0.06304074823856354
1761299112092980000,8.04697998046875,0.06787438690662384,0.0322444885969162,-0.03286953270435333
1761299112113104000,8.067103759765626,0.0883631482720375,-0.09273339807987213,0.00833542738109827
1761299112133226800,8.087226806640626,0.07184889167547226,-0.09955908358097076,0.013945376500487328
1761299112153350000,8.107349853515625,0.027942685410380363,-0.05579482391476631,-0.04296264797449112
1761299112173472800,8.12747265625,0.02082698419690132,0.005534048657864332,-0.06937694549560547
1761299112193596000,8.147595947265625,0.023322898894548416,0.03545040264725685,-0.02484569512307644
1761299112213719800,8.1677197265625,0.025112543255090714,0.036506347358226776,0.05504407733678818
1761299112233843000,8.187843017578125,0.023386016488075256,0.04893931373953819,0.08835037052631378
1761299112253965800,8.2079658203125,0.008766593411564827,0.13378149271011353,0.052865613251924515
1761299112274089000,8.2280888671875,0.014646054245531559,0.11794820427894592,0.04773290082812309
1761299112294213000,8.248213134765624,0.020230436697602272,0.038001179695129395,0.08290127664804459
1761299112314335700,8.268335693359376,-0.0036764938849955797,-0.011776498518884182,0.09288839250802994
1761299112334459000,8.288458984375,-0.044497426599264145,-0.011353055946528912,0.06334728002548218
1761299112354581800,8.308581787109375,-0.06425062566995621,0.03244875371456146,0.012567723169922829
1761299112374705000,8.328704833984375,-0.05612212419509888,0.045637525618076324,-0.03353159502148628
1761299112394829000,8.3488291015625,-0.0516890287399292,-0.031744614243507385,-0.05456817150115967
1761299112414952000,8.368951904296875,-0.0589301623404026,-0.11512792110443115,-0.024818530306220055
1761299112435075000,8.389074951171875,-0.05928809195756912,-0.12013360112905502,0.056823600083589554
1761299112455198000,8.409197998046874,-0.06240106001496315,-0.07177964597940445,0.09731030464172363
1761299112475322000,8.429322021484374,-0.058831360191106796,-0.04043024778366089,0.09847383946180344
1761299112495445000,8.449445068359376,-0.08151962608098984,-0.03320722281932831,0.11171215027570724
1761299112515568000,8.469568115234376,-0.12477415800094604,0.014443653635680676,0.10675334185361862
1761299112535691000,8.48969091796875,-0.1352531611919403,0.08399742841720581,0.08623954653739929
1761299112555814100,8.509814208984375,-0.14777295291423798,0.09021804481744766,0.07338633388280869
1761299112575938000,8.52993798828125,-0.17381946742534637,0.066583551466465,0.05137264356017113
1761299112596061000,8.55006103515625,-0.186530202627182,0.05542570725083351,-0.02322542853653431
1761299112616183800,8.570183837890625,-0.16137877106666565,0.011404721066355705,-0.07302653789520264
1761299112636306700,8.590306640625,-0.11566108465194702,-0.06785867363214493,-0.02304113656282425
1761299112656429800,8.610429931640626,-0.09735105186700821,-0.15625351667404175,0.06481494754552841
1761299112676553700,8.6305537109375,-0.11534949392080307,-0.0881761983036995,0.025051290169358253
1761299112696676600,8.650676513671876,-0.11679212749004364,0.020784374326467514,-0.11439768224954605
1761299112716799700,8.6707998046875,-0.0878070816397667,-0.03057974763214588,-0.14462828636169434
1761299112736922600,8.690922607421875,-0.07245209813117981,-0.1789710819721222,-0.03308897837996483
1761299112757046800,8.711046875,-0.08990085870027542,-0.22073504328727722,0.05721402168273926
1761299112777169700,8.731169677734375,-0.10506702959537506,0.008282430469989777,0.06332970410585403
1761299112797292800,8.751292724609375,-0.08703157305717468,0.20398029685020447,0.0638684630393982
1761299112817415700,8.771415771484374,-0.061407435685396194,0.1986531764268875,0.11633779108524323
1761299112837539800,8.791539794921874,-0.044983454048633575,0.09817849844694138,0.13935363292694092
1761299112857663000,8.8116630859375,-0.03529966622591019,0.0020844561513513327,0.08297557383775711
1761299112877785900,8.831785888671876,-0.05270182713866234,0.013096360489726067,0.012012188322842121
1761299112897909000,8.851908935546875,-0.04799415543675423,-0.006735933478921652,-0.027348533272743225
1761299112918032000,8.872031982421875,-0.034030139446258545,-0.06260905414819717,-0.00717748561874032
1761299112938155800,8.89215576171875,-0.02857092395424843,-0.10415250062942505,0.027357321232557297
1761299112958279000,8.91227880859375,-0.007902664132416248,-0.10009437799453735,0.022128738462924957
1761299112978401800,8.93240185546875,0.015396533533930779,-0.044070255011320114,-0.007208111695945263
1761299112998525000,8.95252490234375,0.004975051153451204,-0.02052311785519123,-0.03645867481827736
1761299113018648800,8.97264892578125,-0.00777722941711545,-0.013918478973209858,0.007595867849886417
1761299113038772000,8.99277197265625,-0.003768905531615019,-0.006472013890743256,0.08974293619394302
1761299113058894800,9.012894775390626,0.02412397786974907,0.025315476581454277,0.13358601927757263
1761299113079018000,9.03301806640625,0.05771016702055931,0.054074421525001526,0.12448866665363312
1761299113099140900,9.053140869140625,0.03383412957191467,0.076266810297966,0.11599291861057281
1761299113119264800,9.0732646484375,-0.01829991117119789,0.11161521077156067,0.09548364579677582
1761299113139388000,9.093387939453125,-0.03223942965269089,0.09889142960309982,0.032169122248888016
1761299113159510800,9.1135107421875,-0.028133898973464966,-0.04156901314854622,0.0204008799046278
1761299113179634000,9.133634033203125,-0.03464692831039429,-0.13353729248046875,0.08802226930856705
1761299113199756800,9.1537568359375,-0.056656353175640106,-0.03359311446547508,0.10138308256864548
1761299113219880700,9.173880615234374,-0.06332384794950485,0.09535820782184601,0.0009691243176348507
1761299113240003800,9.19400390625,-0.06955617666244507,0.10753977298736572,-0.07953503727912903
1761299113260126700,9.214126708984375,-0.11187433451414108,0.07802103459835052,-0.06780274957418442
1761299113280249900,9.234249755859375,-0.12634408473968506,0.23321488499641418,-0.07812090218067169
1761299113300373800,9.254373779296875,-0.06029370054602623,0.3709618151187897,-0.20832258462905884
1761299113320497000,9.274496826171875,-0.014363759197294712,0.3936149477958679,-0.2977922856807709
1761299113340619800,9.294619873046875,-0.02251276560127735,0.2502175569534302,-0.23587457835674286
1761299113360743000,9.314742919921875,-0.06659527122974396,0.10897628217935562,-0.0817428007721901
1761299113380866800,9.33486669921875,-0.08290579915046692,-0.14515559375286102,-0.20181195437908173
1761299113400989700,9.35498974609375,-0.07238791137933731,-0.10303504019975662,-0.44124290347099304
1761299113421112800,9.37511279296875,-0.14069773256778717,-0.1467186063528061,-0.3530014753341675
1761299113441235700,9.395235595703125,-0.11043090373277664,-0.4786960184574127,-0.1177695095539093
