time,seconds_elapsed,z,y,x
1761299144423438300,0.082438232421875,0.06859083473682404,0.09829428791999817,0.017280176281929016
1761299144443561200,0.102561279296875,0.013487601652741432,-0.0034015695564448833,0.12496264278888702
1761299144463685400,0.122685302734375,-0.013594947755336761,-0.11167158931493759,0.1570834070444107
1761299144483808300,0.142808349609375,0.007988601922988892,-0.09361759573221207,0.0760435089468956
1761299144503931400,0.162931396484375,0.002937528770416975,0.008440012112259865,-0.04001227766275406
1761299144524054300,0.18305419921875,0.018954971805214882,0.0794505625963211,-0.09333394467830658
1761299144544177400,0.203177490234375,0.020231731235980988,0.12451402097940445,-0.024184249341487885
1761299144564301600,0.223301513671875,-0.0014181032311171293,0.05015163496136665,0.039616428315639496
1761299144584424400,0.243424560546875,0.01613391935825348,-0.05471562594175339,0.01691671833395958
1761299144604547600,0.263547607421875,0.057370979338884354,-0.13618868589401245,-0.0594562292098999
1761299144624670500,0.28367041015625,0.06826170533895493,-0.2020518183708191,-0.11230650544166565
1761299144644793600,0.303793701171875,0.05368050932884216,-0.22886165976524353,-0.10968253016471863
1761299144664917500,0.32391748046875,0.011289477348327637,-0.1968364715576172,-0.12317123264074326
1761299144685040400,0.344040283203125,0.02236815169453621,-0.1384442299604416,-0.09677077829837799
1761299144705163500,0.36416357421875,0.06213277578353882,-0.053200844675302505,0.021658744663000107
1761299144725286400,0.384286376953125,0.0672382116317749,-0.0016754488460719585,0.13998611271381378
1761299144745409500,0.404409423828125,0.03083193115890026,0.02508135698735714,0.15136155486106873
1761299144765533400,0.424533447265625,0.007695906795561314,0.06104394048452377,0.10057923942804337
1761299144785656600,0.444656494140625,-0.02088007889688015,0.06897749751806259,0.09814377874135971
1761299144805779500,0.464779541015625,-0.024646054953336716,0.07064410299062729,0.12437830865383148
1761299144825902300,0.48490234375,-0.0017078816890716553,0.06381829082965851,0.1390882134437561
1761299144846025500,0.505025390625,0.002764631062746048,0.006044736132025719,0.13170912861824036
1761299144866149400,0.5251494140625,-0.012403922155499458,-0.06305662542581558,0.09769520908594131
1761299144886272500,0.5452724609375,-0.05308455973863602,-0.11126495152711868,0.03480077534914017
1761299144906395400,0.5653955078125,-0.08248543739318848,-0.07232855260372162,-0.053567081689834595
1761299144926518500,0.5855185546875,-0.044081106781959534,-0.009072965011000633,-0.1260855346918106
1761299144946641400,0.605641357421875,-0.003967214375734329,0.007244116626679897,-0.10524262487888336
1761299144966765300,0.625765380859375,0.017801104113459587,-0.044581688940525055,-0.045751143246889114
1761299144986888400,0.645888427734375,0.0005667777732014656,-0.07416003942489624,-0.010393795557320118
1761299145007011300,0.66601123046875,-0.04792381823062897,-0.02122587338089943,-0.024638455361127853
1761299145027134500,0.686134521484375,-0.07025588303804398,0.000012808479368686676,-0.03388483449816704
1761299145047257600,0.706257568359375,-0.041088931262493134,0.02304723486304283,-0.012712729163467884
1761299145067381500,0.726381591796875,-0.014767490327358246,0.02832314372062683,0.00752645917236805
1761299145087504600,0.746504638671875,-0.01230101753026247,0.004178712144494057,0.03133992850780487
1761299145107627500,0.76662744140625,-0.0418083630502224,-0.01360193733125925,0.07383131235837936
1761299145127750700,0.786750732421875,-0.05947732552886009,0.05793917551636696,0.0703149139881134
1761299145147873500,0.80687353515625,-0.02374201826751232,0.08392545580863953,0.0673554539680481
1761299145167998000,0.826998046875,-0.017137818038463593,0.07646103203296661,0.0935399979352951
1761299145188120800,0.847120849609375,-0.021133510395884514,0.09543880075216293,0.06852057576179504
1761299145208243700,0.86724365234375,-0.026851404458284378,0.10943511873483658,0.028632579371333122
1761299145228366600,0.88736669921875,-0.04151194170117378,0.028473027050495148,-0.01924886181950569
1761299145248489700,0.90748974609375,-0.017763035371899605,-0.037900008261203766,-0.034623224288225174
1761299145268614000,0.92761376953125,-0.019886750727891922,-0.08698880672454834,-0.04859114810824394
1761299145288736800,0.94773681640625,-0.03753918409347534,-0.1202186569571495,-0.04058793559670448
1761299145308860000,0.96785986328125,-0.06913362443447113,-0.11246473342180252,-0.06084560975432396
1761299145328982800,0.987982666015625,-0.08528053760528564,-0.037840165197849274,-0.10099175572395325
1761299145349106000,1.00810595703125,-0.07613581418991089,0.028234606608748436,-0.10526539385318756
1761299145369229800,1.028229736328125,-0.02616811916232109,0.1162765771150589,-0.045908089727163315
1761299145389352700,1.048352783203125,0.057302024215459824,0.16846835613250732,0.019169706851243973
1761299145409475800,1.068475830078125,0.10167045146226883,0.14830036461353302,0.06221497431397438
1761299145429598700,1.0885986328125,0.1115444004535675,0.0957539826631546,0.11335920542478561
1761299145449721900,1.108721923828125,0.07612703740596771,0.06022949516773224,0.10566077381372452
1761299145469845800,1.128845703125,0.04455960914492607,0.08979212492704391,0.06597660481929779
1761299145489969000,1.148968994140625,0.05134851485490799,0.12178958207368851,0.02722553163766861
1761299145510091800,1.169091796875,0.06846780329942703,0.1092395931482315,0.008547799661755562
1761299145530215000,1.18921484375,0.08264122903347015,0.06036467105150223,-0.010816741734743118
1761299145550337800,1.209337890625,0.07700755447149277,0.00033791083842515945,-0.027609653770923615
1761299145570461700,1.229461669921875,0.08986932784318924,-0.045987941324710846,-0.032437000423669815
1761299145590584800,1.249584716796875,0.08441100269556046,-0.058344028890132904,-0.04800694063305855
1761299145610707700,1.269707763671875,0.06605937331914902,-0.053958918899297714,-0.09908066689968109
1761299145630830800,1.289830810546875,0.027623867616057396,-0.012612676247954369,-0.10720670223236084
1761299145650953700,1.30995361328125,-0.002230249810963869,-0.01566779613494873,-0.04575222730636597
1761299145671077600,1.33007763671875,-0.005783150438219309,-0.04922983795404434,0.020776549354195595
1761299145691200800,1.35020068359375,0.005841827020049095,-0.04381968080997467,0.05365697294473648
1761299145711323600,1.37032373046875,0.013676639646291733,0.003589675761759281,0.08247558772563934
1761299145731446800,1.39044677734375,0.011524327099323273,0.12953753769397736,0.10706950724124908
1761299145751569700,1.410569580078125,0.03953730687499046,0.22455012798309326,0.09400566667318344
1761299145771693800,1.43069384765625,0.12153494358062744,0.2677901089191437,0.08785515278577805
1761299145791816700,1.450816650390625,0.20412272214889526,0.26257023215293884,0.08865910768508911
1761299145811939800,1.47093994140625,0.2061242312192917,0.23507541418075562,0.09426382184028625
1761299145832062700,1.491062744140625,0.16535037755966187,0.17089268565177917,0.049729909747838974
1761299145852185600,1.511185546875,0.1399727463722229,0.095287024974823,-0.03462257981300354
1761299145872309800,1.531309814453125,0.15136855840682983,0.015833662822842598,-0.11613892018795013
1761299145892432600,1.5514326171875,0.18228381872177124,-0.06231392174959183,-0.1404646635055542
1761299145912555800,1.5715556640625,0.18551933765411377,-0.0813852995634079,-0.09198165684938431
1761299145932678700,1.5916787109375,0.1875067800283432,-0.1326441466808319,-0.05812298506498337
1761299145952801800,1.6118017578125,0.1815594583749771,-0.14732715487480164,-0.0743662491440773
1761299145972925700,1.63192578125,0.13177725672721863,-0.09800811111927032,-0.12569056451320648
1761299145993048600,1.652048583984375,0.08013127744197845,-0.00023587606847286224,-0.1380622237920761
1761299146013171700,1.672171630859375,0.07266027480363846,0.08058802783489227,-0.07773646712303162
1761299146033294600,1.692294677734375,0.10578279197216034,0.0822424367070198,-0.005972773768007755
1761299146053418000,1.71241796875,0.14731745421886444,0.09762722253799438,0.014512922614812851
1761299146073542000,1.7325419921875,0.15274803340435028,0.13841548562049866,-0.0067203049547970295
1761299146093664800,1.752664794921875,0.31024104356765747,0.27427369356155396,-0.09932508319616318
1761299146113788000,1.772787841796875,0.39532893896102905,0.43529370427131653,-0.16281099617481232
1761299146133910800,1.792910888671875,0.3696785271167755,0.429450124502182,-0.1355820745229721
1761299146154034000,1.813033935546875,0.27792537212371826,0.2551000714302063,-0.046388063579797745
1761299146174157800,1.83315771484375,0.15672655403614044,0.018421297892928123,0.05754051357507706
1761299146194281000,1.853281005859375,0.023763470351696014,-0.2336944043636322,0.05033687502145767
1761299146214403800,1.87340380859375,-0.07194468379020691,-0.2812941372394562,-0.03925490379333496
1761299146234527000,1.89352685546875,-0.07453390955924988,-0.1840129792690277,-0.05996517837047577
1761299146254649900,1.91364990234375,-0.01678965613245964,-0.05781323090195656,-0.05563381314277649
1761299146274774000,1.93377392578125,0.056100524961948395,0.03880920633673668,-0.04777362197637558
1761299146294897200,1.953897216796875,0.06604165583848953,0.09119083732366562,-0.0021193544380366802
1761299146315020000,1.97402001953125,0.04097956046462059,0.09045349061489105,0.061149537563323975
1761299146335143200,1.99414306640625,0.026289230212569237,0.024037988856434822,0.07280284911394119
1761299146355266000,2.01426611328125,0.008680310100317001,-0.04665149748325348,0.04144341126084328
1761299146375390000,2.034389892578125,-0.014648000709712505,-0.09390388429164886,0.03708545118570328
1761299146395513000,2.05451318359375,-0.030956555157899857,-0.06607191264629364,0.061521727591753006
1761299146415636000,2.074635986328125,-0.03853122889995575,-0.02123873680830002,0.08949273824691772
1761299146435759000,2.094759033203125,-0.03501812741160393,-0.010099506005644798,0.09924004971981049
1761299146455882000,2.114882080078125,-0.04869380593299866,-0.03730577230453491,0.06433975696563721
1761299146476006100,2.135006103515625,-0.07954288274049759,-0.07555936276912689,0.008186619728803635
1761299146496129000,2.15512890625,-0.07004204392433167,-0.13955730199813843,0.004265904892235994
1761299146516252200,2.175252197265625,0.00915510579943657,-0.14581598341464996,0.04082125425338745
1761299146536375000,2.195375,0.06791616976261139,-0.14867094159126282,0.051787059754133224
1761299146556498200,2.215498291015625,0.09578820317983627,-0.19008490443229675,0.04760046675801277
1761299146576622000,2.2356220703125,0.05698811262845993,-0.255325049161911,0.06963697820901871
1761299146596745000,2.255744873046875,0.03637401759624481,-0.29878318309783936,0.11609096825122833
1761299146616868000,2.2758681640625,-0.020401109009981155,-0.25808185338974,0.1398472785949707
1761299146636991000,2.295990966796875,-0.08991985023021698,-0.07535070925951004,0.12178702652454376
1761299146657114000,2.316114013671875,-0.1355239748954773,0.12133659422397614,0.05066508427262306
1761299146677237000,2.336237060546875,-0.11130562424659729,0.28966420888900757,0.008361239917576313
1761299146697361000,2.35636083984375,-0.09985009580850601,0.29011374711990356,0.01982586458325386
1761299146717484000,2.376484130859375,-0.11836846172809601,0.17974574863910675,0.059077829122543335
1761299146737607000,2.39660693359375,-0.15304869413375854,0.07452991604804993,0.05343262478709221
1761299146757730000,2.41672998046875,-0.16002273559570312,0.04420647770166397,0.02722770720720291
1761299146777853000,2.43685302734375,-0.15493126213550568,0.03898217901587486,-0.027704766020178795
1761299146797977000,2.45697705078125,-0.12585900723934174,0.01514694094657898,-0.06330348551273346
1761299146818100000,2.477099853515625,-0.07908384501934052,-0.07998250424861908,-0.051820866763591766
1761299146838223000,2.49722314453125,-0.02191152609884739,-0.2161112129688263,-0.016066016629338264
1761299146858346000,2.517345947265625,0.04742162674665451,-0.31921929121017456,0.03798427805304527
1761299146878468900,2.53746875,0.0943899005651474,-0.23331357538700104,0.11149917542934418
1761299146898593000,2.557593017578125,0.04454958438873291,-0.030204985290765762,0.1650589108467102
1761299146918716000,2.5777158203125,-0.03689087554812431,0.10574272274971008,0.12572121620178223
1761299146938839000,2.597839111328125,-0.048041630536317825,0.12057453393936157,0.06883856654167175
1761299146958962000,2.6179619140625,-0.05205832049250603,0.0717291310429573,0.07356802374124527
1761299146979085000,2.6380849609375,-0.09972116351127625,0.05054868757724762,0.10573285073041916
1761299146999209000,2.658208984375,-0.16092906892299652,0.06500036269426346,0.09512151032686234
1761299147019331800,2.678331787109375,-0.186385840177536,0.08064810931682587,0.020150484517216682
1761299147039455000,2.698455078125,-0.1973075568675995,0.09649109095335007,-0.05982937663793564
1761299147059577900,2.718577880859375,-0.22840724885463715,0.0686667263507843,-0.08972225338220596
1761299147079701000,2.738700927734375,-0.28706204891204834,0.06189068779349327,-0.034900497645139694
1761299147099825000,2.758824951171875,-0.33884528279304504,0.10091844201087952,-0.03335803374648094
1761299147119948000,2.778947998046875,-0.3307715356349945,0.16075868904590607,-0.13098429143428802
1761299147140071000,2.79907080078125,-0.2732560336589813,0.18986919522285461,-0.22218996286392212
1761299147160194000,2.819194091796875,-0.19014011323451996,0.15330342948436737,-0.20919014513492584
1761299147180317000,2.83931689453125,-0.12574879825115204,-0.03643215447664261,-0.05345340818166733
1761299147200440800,2.85944091796875,-0.07914920151233673,-0.22338715195655823,0.13444817066192627
1761299147220564000,2.87956396484375,0.008312180638313293,-0.20514148473739624,0.1944805234670639
1761299147240686800,2.899686767578125,0.055250052362680435,-0.03759238123893738,0.1379806399345398
1761299147260810000,2.91981005859375,0.03544868901371956,0.11436263471841812,0.08258069306612015
1761299147280932900,2.939932861328125,0.013735882937908173,0.16751714050769806,0.07738124579191208
1761299147301056800,2.960056884765625,0.023011580109596252,0.11699070036411285,0.07987096905708313
1761299147321180000,2.980179931640625,0.01669401489198208,0.05864914506673813,0.059865858405828476
1761299147341302800,3.000302734375,-0.013717452064156532,0.0373850017786026,0.011700917966663837
1761299147361426000,3.020426025390625,-0.029006466269493103,0.006134167313575745,-0.039047472178936005
1761299147381548800,3.040548828125,-0.017816396430134773,-0.054690565913915634,-0.0861675813794136
1761299147401672000,3.060671875,0.005525317043066025,-0.1333935260772705,-0.1072779968380928
1761299147421795800,3.0807958984375,0.011184980161488056,-0.1411786675453186,-0.09881363809108734
1761299147441919000,3.1009189453125,-0.0005710981786251068,-0.06999096274375916,-0.08700966835021973
1761299147462041900,3.121041748046875,-0.01244200486689806,0.011887125670909882,-0.065819151699543
1761299147482164700,3.141164794921875,-0.007938547059893608,0.05486154183745384,-0.06439261138439178
1761299147502288000,3.161287841796875,-0.006281986832618713,0.0666462704539299,-0.05790409445762634
1761299147522411800,3.181411865234375,-0.022800631821155548,0.07725013047456741,-0.020905615761876106
1761299147542535000,3.201534912109375,-0.004389910958707333,0.07024087011814117,0.023232368752360344
1761299147562657800,3.22165771484375,0.03831210732460022,0.03823969140648842,0.04889785870909691
1761299147582781000,3.241781005859375,0.057373739778995514,0.015284333378076553,0.06259770691394806
1761299147602903800,3.26190380859375,0.06321054697036743,0.09286557137966156,0.076259545981884
1761299147623027700,3.28202783203125,0.06538040935993195,0.12176761031150818,0.07634160667657852
1761299147643150800,3.30215087890625,0.06609605252742767,0.10561132431030273,0.0593704991042614
1761299147663273700,3.322273681640625,0.050456251949071884,0.0373816192150116,0.010067115537822247
1761299147683396900,3.34239697265625,0.032322958111763,-0.020427752286195755,-0.06471464782953262
1761299147703519700,3.362519775390625,0.02535982057452202,-0.0797247588634491,-0.10079975426197052
1761299147723644000,3.382643798828125,0.047083061188459396,-0.09338371455669403,-0.0636838749051094
1761299147743766800,3.402766845703125,0.07908007502555847,-0.07827773690223694,-0.02637498453259468
1761299147763889700,3.4228896484375,0.09872613847255707,-0.019566694274544716,-0.023772377520799637
1761299147784012800,3.4430126953125,0.09000192582607269,0.004567508585751057,-0.008928000926971436
1761299147804135700,3.4631357421875,0.07255665957927704,-0.021569449454545975,0.03608093410730362
1761299147824259800,3.483259765625,0.06328281760215759,-0.025479288771748543,0.056053947657346725
1761299147844382700,3.5033828125,0.06063232570886612,0.01111060194671154,0.059775806963443756
1761299147864505900,3.523505859375,0.07515491545200348,0.05224749445915222,0.07994265109300613
1761299147884628700,3.543628662109375,0.07337874174118042,0.06518130004405975,0.12532684206962585
1761299147904751900,3.563751953125,0.057700738310813904,0.07341517508029938,0.16506637632846832
1761299147924875800,3.583875732421875,0.03556595370173454,0.1034097671508789,0.13661912083625793
1761299147944998700,3.60399853515625,0.01773274689912796,0.13205799460411072,0.05264170467853546
1761299147965121800,3.624121826171875,0.006577139720320702,0.09155113995075226,-0.01318200584501028
1761299147985244700,3.64424462890625,0.0123455123975873,0.031599260866642,-0.03666636720299721
1761299148005367800,3.664367919921875,0.03751436248421669,-0.02260104939341545,-0.030210690572857857
1761299148025492000,3.684491943359375,0.062258031219244,-0.08856690675020218,-0.044626858085393906
1761299148045614600,3.704614501953125,0.06485989689826965,-0.12245973199605942,-0.11567298322916031
1761299148065737700,3.72473779296875,0.06239670142531395,-0.11774391680955887,-0.1701824963092804
1761299148085860600,3.744860595703125,0.06640152633190155,-0.11681194603443146,-0.12052951753139496
1761299148105983700,3.764983642578125,0.05656737834215164,-0.12076926231384277,-0.02039233036339283
1761299148126106600,3.785106689453125,0.06762038916349411,-0.06798821687698364,0.03849649056792259
1761299148146230800,3.805230712890625,0.05085505545139313,0.021973131224513054,0.03677477315068245
1761299148166353700,3.825353759765625,0.013935020193457603,0.09122742712497711,0.01541921403259039
1761299148186476800,3.845476806640625,-0.007331445813179016,0.09967894852161407,0.032353971153497696
1761299148206599700,3.865599609375,0.014531202614307404,0.018802901729941368,0.07467488199472427
1761299148226722800,3.885722900390625,0.025295527651906013,-0.07068473845720291,0.09257778525352478
1761299148246846700,3.9058466796875,-0.004965267144143581,-0.08769078552722931,0.08345665782690048
1761299148266969600,3.925969482421875,-0.032112620770931244,-0.026740800589323044,0.06515824794769287
1761299148287092700,3.9460927734375,-0.024371076375246048,0.05938263237476349,0.06374890357255936
1761299148307215600,3.966215576171875,-0.009050742723047733,0.10045989602804184,0.06010802090167999
1761299148327338800,3.9863388671875,-0.012034768238663673,0.045079804956912994,0.019209370017051697
1761299148347460900,4.0064609375,-0.02186126820743084,-0.04473090171813965,-0.03021431714296341
1761299148367583700,4.026583740234375,-0.02530169114470482,-0.09505045413970947,-0.03936343267560005
1761299148387707600,4.046707763671875,-0.019809560850262642,-0.11373583227396011,-0.04470311477780342
1761299148407830800,4.066830810546875,-0.01616716757416725,-0.08816011250019073,-0.05575653910636902
1761299148427953700,4.08695361328125,0.008139275945723057,-0.06869496405124664,-0.038125429302453995
1761299148448076800,4.107076904296875,0.014563214033842087,-0.02980399690568447,0.014397579245269299
1761299148468199700,4.12719970703125,-0.01250383723527193,-0.014836710877716541,0.03164424002170563
1761299148488323600,4.147323486328125,-0.0496320016682148,0.005351542495191097,-0.0016935336170718074
1761299148508446700,4.16744677734375,-0.04804298281669617,0.042473696172237396,-0.0005030642496421933
1761299148528569600,4.187569580078125,-0.04822598025202751,0.06513361632823944,0.033778827637434006
1761299148548692700,4.207692626953125,-0.05759485065937042,0.06122410297393799,0.06320863217115402
1761299148568815600,4.227815673828125,-0.05794849619269371,-0.004153650254011154,0.04692081734538078
1761299148588939800,4.247939697265625,-0.04566572979092598,-0.01688169687986374,0.02729838155210018
1761299148609062700,4.268062744140625,-0.05581574887037277,-0.0006737797521054745,0.02935750223696232
1761299148629185800,4.288185791015625,-0.05662096291780472,0.015305211767554283,0.03845500573515892
1761299148649308700,4.30830859375,-0.03811056539416313,0.023526523262262344,0.04649822413921356
1761299148669431800,4.328431884765625,-0.039850302040576935,-0.0077173057943582535,0.08282963931560516
1761299148689554700,4.3485546875,-0.05504953861236572,-0.06230366602540016,0.09441197663545609
1761299148709678600,4.3686787109375,-0.039458125829696655,-0.050313614308834076,0.07548007369041443
1761299148729801700,4.3888017578125,-0.022422954440116882,-0.003794547636061907,0.05266224220395088
1761299148749925600,4.408925537109375,-0.04168441519141197,-0.0025018020533025265,0.06263022869825363
1761299148770049500,4.429049560546875,-0.09622323513031006,-0.0514644980430603,0.06818254292011261
1761299148790172700,4.449172607421875,-0.15847301483154297,-0.0697454959154129,0.025835884734988213
1761299148810295600,4.469295654296875,-0.2007453441619873,-0.04971413314342499,-0.03362710401415825
1761299148830418700,4.489418701171875,-0.18501952290534973,-0.0352020338177681,-0.036871906369924545
1761299148850541600,4.50954150390625,-0.133189857006073,-0.06871826946735382,-0.008026576600968838
1761299148870665500,4.52966552734375,-0.09139467030763626,-0.062346652150154114,0.017925789579749107
1761299148890788600,4.54978857421875,-0.08128977566957474,0.05382176488637924,0.05907388776540756
1761299148910911500,4.569911376953125,-0.07042744010686874,0.12217089533805847,0.05730803683400154
1761299148931034600,4.59003466796875,-0.033486928790807724,0.06894412636756897,0.003551304806023836
1761299148951157500,4.610157470703125,-0.026613697409629822,-0.03275912255048752,-0.04063614457845688
1761299148971281400,4.630281494140625,-0.0417679026722908,-0.10862184315919876,-0.018067823722958565
1761299148991404500,4.650404541015625,-0.027140889316797256,-0.10586521029472351,0.007296398747712374
1761299149011527400,4.67052734375,0.00481476541608572,-0.10121127963066101,-0.030745241791009903
1761299149031650600,4.690650634765625,-0.01806911826133728,-0.1083431988954544,-0.10220968723297119
1761299149051773700,4.710773681640625,-0.06191521883010864,-0.0945892482995987,-0.12618303298950195
1761299149071897900,4.73089794921875,-0.0654982179403305,-0.05884277820587158,-0.0843697264790535
1761299149092020700,4.751020751953125,-0.04107006639242172,-0.03352637588977814,-0.0474366657435894
1761299149112144000,4.771143798828125,-0.007598887663334608,-0.02142060175538063,-0.03144953027367592
1761299149132266800,4.791266845703125,-0.017688225954771042,-0.003448713570833206,-0.008069057948887348
1761299149152390000,4.811389892578125,-0.05786628648638725,0.02765492908656597,0.014481551945209503
1761299149172512800,4.8315126953125,-0.0511198416352272,0.029383879154920578,0.011118126101791859
1761299149192636700,4.85163671875,0.003677828935906291,0.015784714370965958,0.02209821157157421
1761299149212759800,4.871759765625,0.042363546788692474,0.014654310420155525,0.04668722301721573
1761299149232882700,4.891882568359375,0.020122714340686798,0.02729969099164009,0.051035042852163315
1761299149253005800,4.912005859375,-0.0037555459421128035,0.05973363667726517,0.024939987808465958
1761299149273128700,4.932128662109375,-0.014124371111392975,0.07808177173137665,0.009969568811357021
1761299149293252600,4.952252685546875,0.010541832074522972,0.0396861657500267,-0.02253207191824913
1761299149313375700,4.972375732421875,0.015975667163729668,-0.006505781784653664,-0.04996992275118828
1761299149333498600,4.99249853515625,0.0010107191046699882,-0.04891936480998993,-0.0686364620923996
1761299149353621800,5.012621826171875,0.009631785564124584,-0.06759963184595108,-0.0755164846777916
1761299149373744600,5.03274462890625,0.019475286826491356,-0.08281078189611435,-0.0957421213388443
1761299149393868800,5.052868896484375,0.04039286449551582,-0.05764569342136383,-0.08000358939170837
1761299149413991700,5.07299169921875,0.05978122353553772,0.0069249896332621574,-0.05576059967279434
1761299149434114800,5.09311474609375,0.051693204790353775,0.0525185726583004,-0.04919670522212982
1761299149454237700,5.11323779296875,0.033937111496925354,0.04001183435320854,-0.044116195291280746
1761299149474360800,5.13336083984375,0.036919817328453064,0.010642100125551224,-0.0016284608282148838
1761299149494484700,5.153484619140625,0.04107627272605896,-0.002353836316615343,0.04130864143371582
1761299149514607600,5.173607666015625,0.040355876088142395,0.015730412676930428,0.029743889346718788
1761299149534730800,5.193730712890625,0.03190340846776962,0.0828486979007721,-0.0037188762798905373
1761299149554853600,5.213853515625,0.02896551601588726,0.13788862526416779,-0.005085299257189035
1761299149574976800,5.233976806640625,0.030952725559473038,0.10097365081310272,0.013450118713080883
1761299149595099600,5.254099609375,0.02853904291987419,0.028283443301916122,-0.009937514550983906
1761299149615223600,5.2742236328125,0.03334173560142517,-0.010778795927762985,-0.06195027008652687
1761299149635346700,5.2943466796875,0.033470917493104935,-0.05710003897547722,-0.09705808758735657
1761299149655469600,5.314469482421875,0.029318656772375107,-0.11382699757814407,-0.10280799865722656
1761299149675592700,5.3345927734375,0.03683415427803993,-0.13676954805850983,-0.08685071766376495
1761299149695715600,5.354715576171875,0.03502039238810539,-0.1228984072804451,-0.07033084332942963
1761299149715839700,5.37483984375,0.03616820648312569,-0.02092435024678707,-0.03883294761180878
1761299149735962600,5.394962646484375,0.04333838075399399,0.08239373564720154,0.01523770485073328
1761299149756085800,5.415085693359375,0.06084541231393814,0.08600841462612152,0.032693129032850266
1761299149776208600,5.435208740234375,0.06844281405210495,0.05470159649848938,0.037095583975315094
1761299149796331500,5.45533154296875,0.058746885508298874,0.010602153837680817,0.048084650188684464
1761299149816456000,5.4754560546875,0.04481210187077522,0.04182369261980057,0.07147011905908585
1761299149836578600,5.49557861328125,0.04215674474835396,0.10282067954540253,0.09054403752088547
1761299149856701700,5.51570166015625,0.038885217159986496,0.10465280711650848,0.05967780202627182
1761299149876824600,5.535824462890625,0.03321625292301178,0.04213014245033264,0.0035323051270097494
1761299149896947700,5.55594775390625,0.03615478798747063,0.01733078807592392,-0.0009929381776601076
1761299149917072000,5.57607177734375,0.030438050627708435,0.04144994169473648,-0.016023442149162292
1761299149937194800,5.59619482421875,0.03339185565710068,0.051996760070323944,-0.09267259389162064
1761299149957318000,5.61631787109375,0.0420796163380146,-0.026229605078697205,-0.1309739053249359
1761299149977440800,5.636440673828125,0.0491255447268486,-0.09594929218292236,-0.08302316069602966
1761299149997564000,5.65656396484375,0.062365707010030746,-0.09236305952072144,-0.05149571970105171
1761299150017686800,5.676686767578125,0.0627397745847702,-0.032028958201408386,-0.065776027739048
1761299150037810700,5.696810791015625,0.05454875901341438,0.030467677861452103,-0.05042744427919388
1761299150057933600,5.71693359375,0.06204771250486374,0.05462617427110672,0.034711893647909164
1761299150078056400,5.737056396484375,0.08754043281078339,0.06515868008136749,0.09428852796554565
1761299150098179600,5.7571796875,0.08853184431791306,0.044548001140356064,0.08934266865253448
1761299150118302500,5.777302490234375,0.041067078709602356,0.029670968651771545,0.05984838306903839
1761299150138426600,5.797426513671875,0.002330675721168518,0.030931683257222176,0.07601349800825119
1761299150158549500,5.817549560546875,-0.003378755645826459,0.07963855564594269,0.1258833259344101
1761299150178672600,5.837672607421875,0.011523926630616188,0.10593713819980621,0.12576116621494293
1761299150198795500,5.85779541015625,0.01820683851838112,0.057760659605264664,0.07023777067661285
1761299150218918700,5.877918701171875,0.007602582685649395,0.010200118646025658,0.03721979260444641
1761299150239042600,5.89804248046875,-0.013853395357728004,-0.029799941927194595,0.019404873251914978
1761299150259165400,5.91816552734375,-0.026145845651626587,-0.040541406720876694,-0.04084507003426552
1761299150279288600,5.93828857421875,-0.0040156044997274876,-0.04155755788087845,-0.08604566007852554
1761299150299411500,5.958411376953125,0.03890243545174599,-0.007882158271968365,-0.04023848474025726
1761299150319534600,5.97853466796875,0.0681314766407013,0.016487181186676025,0.020240601152181625
1761299150339658500,5.998658447265625,0.07018908858299255,0.03437938541173935,-0.008400613442063332
1761299150359781400,6.018781494140625,0.06831370294094086,0.03384669870138168,-0.05418117716908455
1761299150379904500,6.038904541015625,0.03111574426293373,0.038371652364730835,-0.02739444188773632
1761299150400027400,6.05902734375,0.019171247258782387,0.06595063209533691,0.04259425401687622
1761299150420150500,6.079150634765625,-0.010354587808251381,0.07147815078496933,0.06287442892789841
1761299150440273400,6.0992734375,-0.027404721826314926,0.03215330094099045,0.04392308369278908
1761299150460397600,6.1193974609375,-0.028137290850281715,-0.013422174379229546,0.05949178710579872
1761299150480520400,6.1395205078125,-0.015092255547642708,-0.0022907177917659283,0.10107304155826569
1761299150500643600,6.1596435546875,-0.008733926340937614,0.030183469876646996,0.09097305685281754
1761299150520766500,6.179766357421875,0.0032898918725550175,0.04166417568922043,0.05226005241274834
1761299150540889600,6.1998896484375,0.004441889934241772,0.0467735230922699,0.03570190444588661
1761299150561013800,6.220013671875,-0.013518700376152992,-0.0021073310635983944,0.020088111981749535
1761299150581136600,6.24013671875,-0.0336112380027771,-0.08195295184850693,-0.007708521094173193
1761299150601259800,6.260259765625,-0.013923842459917068,-0.10419371724128723,-0.02589641511440277
1761299150621382700,6.280382568359375,-0.00809814315289259,-0.0918748751282692,-0.05044402927160263
1761299150641505800,6.300505859375,-0.01688753440976143,-0.06426364183425903,-0.06965949386358261
1761299150661629700,6.320629638671875,-0.04062406346201897,-0.0723688155412674,-0.031376201659440994
1761299150681752600,6.340752685546875,-0.06217224895954132,-0.0710427537560463,0.02591044455766678
1761299150701875700,6.360875732421875,-0.06498374789953232,-0.02351893112063408,0.03768438845872879
1761299150721998600,6.38099853515625,-0.04989420995116234,0.04791586101055145,-0.023245254531502724
1761299150742121700,6.401121826171875,-0.043099939823150635,-0.002071460708975792,-0.018678229302167892
1761299150762244600,6.42124462890625,-0.05383531004190445,-0.10037180036306381,0.049440041184425354
1761299150782368800,6.44136865234375,-0.035157211124897,-0.12431901693344116,0.077402263879776
1761299150802491600,6.46149169921875,-0.03440994769334793,-0.049288637936115265,0.05644841492176056
1761299150822614800,6.48161474609375,-0.037032850086688995,0.06572937220335007,0.008644986897706985
1761299150842737700,6.501737548828125,0.004125033039599657,0.145268976688385,0.013775832019746304
1761299150862860800,6.52186083984375,0.0013255920493975282,0.08774732053279877,0.0426599346101284
1761299150882984700,6.541984619140625,-0.005359296221286058,0.021395545452833176,0.0316627137362957
1761299150903107600,6.562107666015625,-0.024281654506921768,-0.042460404336452484,0.0093785859644413
1761299150923230700,6.582230712890625,-0.04862113669514656,-0.04460616409778595,-0.003946962300688028
1761299150943353600,6.602353515625,-0.03819640353322029,0.016731813549995422,-0.04850415512919426
1761299150963476700,6.622476806640625,0.011678197421133518,0.032944660633802414,-0.12038843333721161
1761299150983600600,6.6426005859375,0.028504835441708565,0.027797354385256767,-0.18512213230133057
1761299151003723500,6.6627236328125,-0.04178452119231224,-0.03955766558647156,-0.15345072746276855
1761299151023846700,6.6828466796875,-0.057218074798583984,-0.05899074673652649,-0.08140342682600021
1761299151043969500,6.702969482421875,-0.09428179264068604,-0.013005787506699562,-0.09762267023324966
1761299151064093000,6.723093017578125,-0.03893502429127693,0.1383112072944641,-0.16609565913677216
1761299151084216800,6.743216796875,0.00018593808636069298,0.1964091658592224,-0.10308604687452316
1761299151104339700,6.763339599609375,-0.001343427924439311,0.1524331122636795,0.01900121197104454
1761299151124462800,6.783462890625,0.010887824930250645,0.05892171710729599,0.042604900896549225
1761299151144585700,6.803585693359375,0.013273750431835651,0.0010845214128494263,-0.024668412283062935
1761299151164708900,6.823708984375,-0.03329832851886749,-0.027809767052531242,-0.014733114279806614
1761299151184832800,6.843832763671875,-0.06867117434740067,-0.04909801110625267,0.06284915655851364
1761299151204956000,6.863955810546875,-0.0046748025342822075,0.006000367924571037,0.09973180294036865
1761299151225078800,6.884078857421875,0.034814734011888504,0.07720775902271271,0.012227682396769524
1761299151245202000,6.904201904296875,-0.0011631320230662823,0.08266282081604004,-0.07569573819637299
1761299151265324800,6.92432470703125,-0.0455436185002327,0.016847744584083557,-0.07037080079317093
1761299151285448000,6.944447998046875,-0.032384127378463745,-0.017458349466323853,-0.010579933412373066
1761299151305571800,6.96457177734375,0.007532887626439333,-0.03863324970006943,-0.007710826583206654
1761299151325694700,6.98469482421875,0.0032551917247474194,-0.0889877900481224,-0.04161887243390083
1761299151345817900,7.00481787109375,-0.03254535049200058,-0.10856442153453827,-0.06967780739068985
1761299151365940700,7.024940673828125,-0.0599561408162117,-0.02156531810760498,-0.07380595803260803
1761299151386064000,7.04506396484375,-0.04407723620533943,0.08598481863737106,-0.07000696659088135
1761299151406188000,7.06518798828125,-0.05164879932999611,0.13245348632335663,-0.08287938684225082
1761299151426310700,7.085310546875,-0.062393832951784134,0.10741330683231354,-0.021560799330472946
1761299151446433800,7.105433837890625,-0.05858059227466583,0.05007307231426239,-0.034072183072566986
1761299151466556700,7.125556640625,-0.02697625383734703,0.05181289091706276,-0.07246565073728561
1761299151486679800,7.1456796875,-0.008578726090490818,0.11458142101764679,-0.14170999825000763
1761299151506802700,7.165802734375,-0.08131412416696548,0.047695085406303406,-0.031101718544960022
1761299151526927000,7.185927001953125,0.05800660327076912,-0.11861684918403625,-0.12919215857982635
1761299151547050000,7.206050048828125,0.09088895469903946,-0.028274323791265488,-0.1749511957168579
1761299151567173000,7.226173095703125,0.04687687009572983,-0.03861716389656067,-0.07401137053966522
