time,seconds_elapsed,z,y,x
1761397129540550100,0.133550048828125,7.602595806121826,4.552943229675293,-1.5499508380889893
1761397129559927000,0.152927001953125,6.345167636871338,4.511667251586914,-1.9280169010162354
1761397129579303700,0.1723037109375,5.683551788330078,4.570291042327881,-2.5154547691345215
1761397129598680600,0.1916806640625,5.698507308959961,4.646263599395752,-2.472383975982666
1761397129618057500,0.211057373046875,6.110671043395996,4.8299126625061035,-2.2205393314361572
1761397129637434000,0.23043408203125,6.516852378845215,5.0703911781311035,-1.9956140518188477
1761397129656811000,0.24981103515625,6.658029079437256,5.341378211975098,-1.731805443763733
1761397129676188000,0.26918798828125,6.955337047576904,5.605785369873047,-1.4781662225723267
1761397129695564500,0.288564453125,7.5427751541137695,5.755934715270996,-1.0845468044281006
1761397129714941400,0.30794140625,7.931010723114014,5.842674732208252,-1.2795618772506714
1761397129734318300,0.327318359375,8.168498039245605,5.955137252807617,-1.2891331911087036
1761397129753695200,0.3466953125,8.763712882995605,5.944369792938232,-1.1766705513000488
1761397129773072000,0.36607177734375,9.436694145202637,5.863013744354248,-1.6199408769607544
1761397129792448800,0.38544873046875,9.531210899353027,5.873183250427246,-1.9489539861679077
1761397129811825700,0.40482568359375,9.261420249938965,6.059823513031006,-1.6259230375289917
1761397129831202300,0.424202392578125,8.907880783081055,6.238687038421631,-1.1341979503631592
1761397129850579200,0.4435791015625,8.396414756774902,6.321837425231934,-1.1407781839370728
1761397129869956000,0.4629560546875,7.475776195526123,6.340381622314453,-1.1210373640060425
1761397129889332700,0.482332763671875,7.338787078857422,6.429514408111572,-1.1371889114379883
1761397129908709600,0.501709716796875,7.435098171234131,6.504888534545898,-1.2131611108779907
1761397129928086500,0.52108642578125,7.012166976928711,6.529414653778076,-1.5038890838623047
1761397129947463200,0.540463134765625,6.759125709533691,6.27996301651001,-1.3884353637695312
1761397129966840000,0.559840087890625,7.779664516448975,5.770890235900879,-0.711864709854126
1761397129986217000,0.579217041015625,9.040681838989258,5.230710506439209,-0.5222335457801819
1761397130005593600,0.598593505859375,9.673583984375,5.016552448272705,-0.8464609980583191
1761397130024970500,0.617970458984375,9.68076229095459,4.911268711090088,-0.6370890140533447
1761397130044347400,0.637347412109375,9.2859468460083,5.004588603973389,-0.28594231605529785
1761397130063724300,0.656724365234375,8.402397155761719,5.037489891052246,0.04486542567610741
1761397130083087600,0.676087646484375,6.627520561218262,5.082953453063965,-0.1495514214038849
1761397130102477800,0.695477783203125,5.026124000549316,5.303092956542969,-0.8883354067802429
1761397130121854700,0.714854736328125,4.946562767028809,5.333003520965576,-0.9254241585731506
1761397130141231400,0.7342314453125,5.480162143707275,5.2151570320129395,-0.44027936458587646
1761397130160608300,0.753608154296875,6.0400824546813965,4.960919380187988,-0.10707881301641464
1761397130179985200,0.772985107421875,6.685546398162842,4.834099769592285,0.26500511169433594
1761397130199348500,0.792348388671875,8.331808090209961,4.284348964691162,0.46839502453804016
1761397130218738700,0.81173876953125,9.439684867858887,3.9194436073303223,0.27756741642951965
1761397130238115600,0.831115478515625,8.70628547668457,3.9804604053497314,0.04007977992296219
1761397130257479000,0.85047900390625,6.550352096557617,4.1623148918151855,-0.1178465187549591
1761397130276869000,0.869869140625,4.6271209716796875,4.5547380447387695,-0.1381855010986328
1761397130296246000,0.88924609375,3.914059638977051,4.839483737945557,0.45104706287384033
1761397130315622700,0.90862255859375,4.348955154418945,5.140979290008545,0.5874379873275757
1761397130334999600,0.92799951171875,6.125027656555176,5.2630133628845215,1.0049854516983032
1761397130354376400,0.94737646484375,7.474579811096191,5.50229549407959,1.7826528549194336
1761397130373739800,0.96673974609375,8.193622589111328,5.515456199645996,1.820937991142273
1761397130393130000,0.9861298828125,9.462417602539062,6.141777515411377,0.9762716293334961
1761397130412507000,1.0055068359375,10.728818893432617,6.248856544494629,1.6857435703277588
1761397130431883800,1.0248837890625,10.913065910339355,6.369095802307129,1.9782661199569702
1761397130451260400,1.044260498046875,12.139986038208008,7.464410305023193,1.877767562866211
1761397130470637300,1.06363720703125,15.63111400604248,8.384450912475586,2.5914268493652344
1761397130490000600,1.083000732421875,19.663618087768555,8.498109817504883,2.214557409286499
1761397130509390800,1.102390869140625,21.447467803955078,8.084151268005371,2.4538395404815674
1761397130528767700,1.121767822265625,19.045671463012695,7.437490940093994,4.175475597381592
1761397130548131000,1.141131103515625,13.736597061157227,6.857231616973877,3.463012456893921
1761397130567521300,1.160521240234375,6.986443996429443,6.927819728851318,1.4931213855743408
1761397130586898200,1.179898193359375,3.9637107849121094,6.309873104095459,1.0923235416412354
1761397130606261500,1.199261474609375,7.359126091003418,5.096114158630371,-0.3924229145050049
1761397130625651700,1.218651611328125,8.58066177368164,4.18145751953125,-0.6251249313354492
1761397130645028600,1.238028564453125,9.30867862701416,4.216153621673584,-0.9361918568611145
1761397130664392000,1.257391845703125,7.5774712562561035,3.721437454223633,-1.1300104856491089
1761397130683782400,1.276782470703125,2.8893332481384277,2.289931297302246,0.1908276081085205
1761397130703159000,1.296158935546875,-1.1359925270080566,2.035693883895874,2.0548365116119385
1761397130722522400,1.3155224609375,-1.2789636850357056,1.6259230375289917,1.8610178232192993
1761397130741912800,1.334912841796875,-0.4301098585128784,1.1994023323059082,1.547558069229126
1761397130761289500,1.35428955078125,2.017747640609741,1.2239288091659546,0.3128615617752075
1761397130780652800,1.37365283203125,4.133002758026123,2.0817556381225586,-1.1886346340179443
1761397130800043300,1.393043212890625,7.238886833190918,2.414358139038086,-2.775076150894165
1761397130819420000,1.412419921875,8.745168685913086,1.350150227546692,-2.2067806720733643
1761397130838783200,1.431783203125,9.186046600341797,2.8462624549865723,-0.5736792087554932
1761397130858173700,1.451173583984375,11.076973915100098,4.395017147064209,0.885344386100769
1761397130877550300,1.47055029296875,13.816756248474121,7.098308563232422,-2.417947292327881
1761397130896913700,1.48991357421875,14.041681289672852,10.822138786315918,-4.661816596984863
1761397130916304100,1.50930419921875,16.796419143676758,7.785048484802246,7.262814998626709
1761397130935680800,1.5286806640625,24.483959197998047,1.9387845993041992,15.032310485839844
1761397130955044400,1.54804443359375,30.556943893432617,-0.6628118753433228,8.649456024169922
1761397130974434600,1.5674345703125,24.28116798400879,2.586043119430542,-0.2925225794315338
1761397130993811200,1.586811279296875,12.786645889282227,5.266602516174316,3.1645078659057617
1761397131013174500,1.606174560546875,4.7952165603637695,7.696514129638672,7.395018577575684
1761397131032565000,1.62556494140625,-1.4063814878463745,6.979265213012695,6.869793891906738
1761397131051942000,1.64494189453125,-4.801198482513428,4.471587181091309,4.0426740646362305
1761397131071305200,1.66430517578125,-3.679563045501709,2.4873390197753906,1.3507484197616577
1761397131090695400,1.6836953125,0.22432711720466614,1.2233306169509888,-0.841675341129303
1761397131110072300,1.703072265625,3.514458179473877,0.5569294691085815,-1.6055840253829956
1761397131129435600,1.722435546875,2.530410051345825,0.3433700501918793,-1.7982062101364136
1761397131148825900,1.741825927734375,-0.3044866919517517,0.8386843204498291,-1.7102699279785156
1761397131168202800,1.76120263671875,-2.3599212169647217,1.3214362859725952,0.08195417374372482
1761397131187566000,1.780566162109375,-2.5298118591308594,1.817348837852478,1.4656038284301758
1761397131206956300,1.799956298828125,0.06400800496339798,2.4023938179016113,2.0829520225524902
1761397131226333200,1.819333251953125,4.429114818572998,3.071187973022461,2.1026928424835205
1761397131245696500,1.838696533203125,12.19502067565918,4.633700847625732,1.2113664150238037
1761397131265086700,1.858086669921875,22.353151321411133,8.715258598327637,0.25722843408584595
1761397131284463600,1.877463623046875,26.02134895324707,11.943774223327637,1.2891331911087036
1761397131303827000,1.896826904296875,26.743980407714844,12.065210342407227,2.2301106452941895
1761397131323217200,1.916217041015625,29.717660903930664,8.781061172485352,6.211767673492432
1761397131342594000,1.935593994140625,29.67339324951172,5.8582282066345215,7.631309509277344
1761397131361957400,1.954957275390625,21.235103607177734,5.885745525360107,4.144368648529053
1761397131381347600,1.97434765625,11.08475112915039,6.676573276519775,1.8454644680023193
1761397131400724500,1.993724365234375,3.576671600341797,6.835696220397949,0.4336991012096405
1761397131420087800,2.013087890625,-0.12382857501506805,5.918646812438965,-1.6917256116867065
1761397131439478000,2.03247802734375,-2.5603201389312744,3.8602211475372314,-0.2679961323738098
1761397131458855000,2.05185498046875,-2.7433712482452393,1.0049854516983032,3.855435371398926
1761397131478218200,2.07121826171875,-1.688734531402588,-1.6498512029647827,4.207180500030518
1761397131497608400,2.0906083984375,-0.4618147611618042,-2.5286152362823486,1.2855439186096191
1761397131516985300,2.1099853515625,-0.3930211067199707,-2.799602508544922,0.006580262444913387
1761397131536348700,2.1293486328125,-1.8813568353652954,-1.8317056894302368,-0.6221339106559753
1761397131555739100,2.1487392578125,-2.7870402336120605,-0.851844847202301,0.21355941891670227
1761397131575115800,2.16811572265625,-1.7832510471343994,0.2679961323738098,0.20757736265659332
1761397131594479000,2.18747900390625,0.06640082597732544,1.6031911373138428,0.010767702013254166
1761397131613869300,2.206869384765625,2.662015199661255,2.9180471897125244,0.50907301902771
1761397131633246200,2.22624609375,9.473783493041992,4.214957237243652,1.5332010984420776
1761397131652609500,2.245609619140625,16.578073501586914,7.804789066314697,-2.252244234085083
1761397131672000000,2.265,15.617355346679688,12.228520393371582,-4.059423446655273
1761397131691376600,2.284376708984375,16.399808883666992,12.601800918579102,0.50907301902771
1761397131710740000,2.303739990234375,29.140392303466797,9.425328254699707,4.027120590209961
1761397131730130400,2.32313037109375,37.757545471191406,6.285346984863281,2.316850423812866
1761397131749507000,2.342507080078125,35.16851043701172,6.705287456512451,-1.8167506456375122
1761397131768870400,2.361870361328125,20.544775009155273,7.896913051605225,0.2871387302875519
1761397131788260900,2.3812607421875,4.768895626068115,9.591031074523926,2.799004316329956
1761397131807637500,2.400637451171875,-6.900900363922119,9.640682220458984,1.2478569746017456
1761397131827000800,2.420000732421875,-8.259425163269043,6.881159782409668,0.380458801984787
1761397131846391300,2.439391357421875,-2.7846474647521973,4.140181541442871,-0.7244270443916321
1761397131865768000,2.458767822265625,3.1519455909729004,1.5637096166610718,-0.9110672473907471
1761397131885131300,2.47813134765625,4.244269371032715,0.13459627330303192,-2.372483730316162
1761397131904521700,2.497521728515625,1.4602199792861938,-0.18843477964401245,-2.400001049041748
1761397131923898600,2.516898681640625,-0.5934200286865234,0.3481557071208954,-0.9122636318206787
1761397131943262000,2.536261962890625,-1.1994023323059082,1.1527422666549683,1.058824062347412
1761397131962652200,2.555652099609375,-0.5982056856155396,1.8239290714263916,2.4149563312530518
1761397131982028800,2.57502880859375,0.8937192559242249,2.0745773315429688,1.9794625043869019
1761397132001392000,2.59439208984375,3.671786308288574,2.2857437133789062,1.043868899345398
1761397132020782600,2.613782470703125,5.614160060882568,2.582453727722168,1.3076776266098022
1761397132040159500,2.633159423828125,7.734799385070801,3.6233317852020264,2.324028968811035
1761397132059522800,2.652522705078125,11.167901039123535,5.3108696937561035,3.170490026473999
1761397132078913000,2.6719130859375,14.481961250305176,10.01037311553955,0.8614161610603333
1761397132098290000,2.6912900390625,15.548561096191406,12.353545188903809,1.9692929983139038
1761397132117653200,2.7106533203125,24.532413482666016,11.43529987335205,6.126822471618652
1761397132137043500,2.73004345703125,33.56113052368164,9.014361381530762,6.378666877746582
1761397132156420400,2.74942041015625,30.395427703857422,8.517251968383789,1.4279168844223022
1761397132175783700,2.76878369140625,19.237695693969727,9.232706069946289,0.24945175647735596
1761397132195174000,2.788173828125,9.05982494354248,8.50289535522461,3.0514471530914307
1761397132214550800,2.80755078125,2.2061824798583984,7.387241840362549,1.2203395366668701
1761397132233914000,2.8269140625,-1.7611174583435059,6.223731517791748,-1.856830358505249
1761397132253304300,2.84630419921875,-1.51166570186615,4.316053867340088,-2.132603168487549
1761397132272681200,2.86568115234375,1.7916259765625,2.870789051055908,-1.521835207939148
1761397132292044500,2.88504443359375,5.853442192077637,2.410768747329712,-0.8434699773788452
1761397132311434800,2.904434814453125,3.9487555027008057,2.1343977451324463,1.0121639966964722
1761397132330811600,2.923811767578125,0.275174617767334,2.0757737159729004,2.9419753551483154
1761397132350175000,2.943175048828125,-2.39401912689209,2.3611178398132324,2.9485557079315186
1761397132369565200,2.962565185546875,-4.150351047515869,2.1367905139923096,1.5690934658050537
1761397132388942000,2.981942138671875,-4.171288013458252,2.0691933631896973,0.009571290574967861
1761397132408305400,3.001305419921875,-2.6458635330200195,2.186441659927368,-1.6372889280319214
1761397132427695600,3.020695556640625,0.035892341285943985,2.445464849472046,-1.9124635457992554
1761397132447072500,3.040072509765625,2.4364917278289795,2.8677978515625,-0.857228696346283
1761397132466435800,3.059435791015625,7.031309127807617,3.5712878704071045,-0.698704183101654
1761397132485826000,3.078825927734375,12.791431427001953,5.542375564575195,-0.9678967595100403
1761397132505203000,3.098202880859375,15.919448852539062,9.991230964660645,-1.0354939699172974
1761397132524566300,3.117566162109375,15.836297988891602,12.632308959960938,1.164108157157898
1761397132543956700,3.136956787109375,15.836297988891602,14.80678653717041,4.775475978851318
1761397132563333400,3.15633349609375,24.073591232299805,7.658827304840088,10.062417030334473
1761397132582696700,3.17569677734375,27.777082443237305,6.376274108886719,-2.221735715866089
1761397132602087000,3.1950869140625,20.201404571533203,7.717451095581055,-8.041678428649902
1761397132621463800,3.2144638671875,12.125628471374512,9.017352104187012,-2.2959132194519043
1761397132640827100,3.2338271484375,6.184848308563232,8.449654579162598,3.96789813041687
1761397132660217600,3.253217529296875,3.198007345199585,6.677769660949707,5.458626747131348
1761397132679594200,3.27259423828125,3.6777684688568115,4.371686935424805,5.057230472564697
1761397132698957600,3.29195751953125,6.901498794555664,2.5190439224243164,3.0137600898742676
1761397132718348000,3.31134814453125,7.797012805938721,1.3830515146255493,1.789831280708313
1761397132737724700,3.330724609375,4.9154558181762695,0.8739784955978394,1.5248262882232666
1761397132757088000,3.350087890625,0.2069791555404663,0.7322037220001221,1.832902193069458
1761397132776478500,3.369478515625,-3.0789644718170166,0.8536394834518433,2.273181438446045
1761397132795855000,3.388855224609375,-2.321038007736206,0.9206385016441345,1.290927767753601
1761397132815218400,3.408218505859375,0.3116651475429535,1.1282159090042114,-0.31046873331069946
1761397132834609000,3.42760888671875,2.0057835578918457,1.5690934658050537,-0.8602197170257568
1761397132853985500,3.446985595703125,3.7669010162353516,2.2067806720733643,-0.664606511592865
1761397132873348900,3.466348876953125,7.472784996032715,2.9790642261505127,0.050847481936216354
1761397132892739300,3.4857392578125,10.354341506958008,5.19242525100708,0.3409772217273712
1761397132912116200,3.5051162109375,12.107682228088379,9.274580955505371,-2.4011974334716797
1761397132931479600,3.5244794921875,14.355141639709473,10.902297973632812,-1.781456470489502
1761397132950869800,3.543869873046875,18.54258155822754,8.974879264831543,5.68175745010376
1761397132970246700,3.56324658203125,23.86122703552246,7.005586624145508,6.574878215789795
1761397132989609700,3.582609619140625,25.879573822021484,6.63051176071167,-0.40378883481025696
1761397133009000200,3.602000244140625,22.874187469482422,8.009973526000977,-3.2368907928466797
1761397133028377000,3.621377197265625,16.638492584228516,8.14636516571045,-0.7112665176391602
1761397133047740400,3.640740478515625,7.987242221832275,7.168896675109863,-0.37028929591178894
1761397133067130600,3.660130615234375,2.5334010124206543,5.890531063079834,-1.0241280794143677
1761397133086507500,3.679507568359375,0.6161518096923828,4.3411784172058105,0.6454638838768005
1761397133105870800,3.698870849609375,-1.2269197702407837,2.9036903381347656,2.6835505962371826
1761397133125261000,3.718260986328125,-2.235494613647461,1.721037745475769,2.551347255706787
1761397133144638000,3.737637939453125,-2.0608184337615967,0.30508488416671753,1.2987045049667358
1761397133164001300,3.757001220703125,0.8787640929222107,-0.5306084156036377,-0.259621262550354
1761397133183391500,3.7763916015625,4.268197536468506,-0.061016976833343506,-1.1886346340179443
1761397133202768400,3.795768310546875,6.521637916564941,0.6628118753433228,0.1824527233839035
1761397133222131700,3.815131591796875,4.73300313949585,1.363310694694519,2.139183521270752
1761397133241522000,3.83452197265625,2.612962245941162,2.2366909980773926,2.462812662124634
1761397133260898800,3.85389892578125,1.3310075998306274,3.2763724327087402,0.5635097622871399
1761397133280262100,3.87326220703125,4.852644443511963,3.943969964981079,-1.2646067142486572
1761397133299652400,3.89265234375,9.527023315429688,4.984249591827393,-0.5072783827781677
1761397133319029200,3.912029296875,9.296713829040527,7.545766353607178,0.44027936458587646
1761397133338392600,3.931392578125,19.334604263305664,8.922237396240234,3.6879379749298096
1761397133357782800,3.95078271484375,32.81696319580078,4.926821708679199,13.091731071472168
1761397133377159700,3.97015966796875,30.859037399291992,3.772883176803589,6.498906135559082
1761397133396523000,3.98952294921875,24.766311645507812,6.062216281890869,1.1700903177261353
1761397133415913200,4.008913330078125,19.712072372436523,7.546962738037109,4.752744197845459
1761397133435290000,4.0282900390625,10.768898010253906,8.104490280151367,3.4606196880340576
1761397133454653400,4.0476533203125,4.030709743499756,7.500302791595459,1.954936146736145
1761397133474044000,4.0670439453125,3.970889091491699,6.424728870391846,2.2654049396514893
1761397133493420500,4.086420654296875,3.879363775253296,4.786841869354248,0.9128618240356445
1761397133512784000,4.105783935546875,2.6195425987243652,3.4103705883026123,-0.3074777126312256
1761397133532174300,4.12517431640625,2.348555326461792,2.0027925968170166,-0.6993024349212646
1761397133551551000,4.144551025390625,1.5690934658050537,0.7908278703689575,-1.0803594589233398
1761397133570914300,4.163914306640625,0.06699903309345245,0.46899324655532837,-1.4105689525604248
1761397133590304800,4.1833046875,-1.316650629043579,0.4624129831790924,-1.0019944906234741
1761397133609681400,4.202681396484375,-1.6121642589569092,0.8117650747299194,-0.1453639715909958
1761397133629058300,4.222058349609375,-0.7124629616737366,1.4787644147872925,0.5162515044212341
1761397133648435200,4.241435302734375,1.6648063659667969,1.8580267429351807,0.9523434042930603
1761397133667811800,4.260811767578125,7.152745246887207,2.2995026111602783,2.155933141708374
1761397133687175200,4.280175048828125,11.269596099853516,3.661616802215576,1.7234305143356323
1761397133706565600,4.299565673828125,13.525429725646973,6.295516490936279,0.3840480446815491
1761397133725942500,4.318942626953125,16.515859603881836,9.495318412780762,-1.0671988725662231
1761397133745305900,4.338305908203125,22.451854705810547,8.927620887756348,1.9657038450241089
1761397133764696000,4.357696044921875,25.704299926757812,7.23589563369751,5.491528034210205
1761397133784073000,4.377072998046875,24.622743606567383,6.022734642028809,4.261018753051758
1761397133803436000,4.39643603515625,20.988643646240234,6.7076802253723145,-0.6897311210632324
1761397133822826500,4.415826416015625,15.418750762939453,7.17368221282959,-1.3106685876846313
1761397133842203400,4.435203369140625,8.420342445373535,6.9098734855651855,-0.046061836183071136
1761397133861566700,4.454566650390625,3.0173492431640625,6.248856544494629,0.5222335457801819
1761397133880957000,4.47395703125,0.7334001660346985,5.181657314300537,2.0267207622528076
1761397133900333800,4.493333740234375,1.337587833404541,4.167698860168457,2.4149563312530518
1761397133919697200,4.512697265625,2.0279171466827393,2.9042885303497314,2.063211441040039
1761397133939087400,4.53208740234375,1.848455548286438,1.5272190570831299,1.877767562866211
1761397133958464300,4.55146435546875,0.8434699773788452,0.8991031050682068,0.4773681163787842
1761397133977827600,4.57082763671875,-0.21774685382843018,0.5694918036460876,-0.8327022790908813
1761397133997217800,4.5902177734375,-0.7202396392822266,0.7537391185760498,-1.3830515146255493
1761397134016594700,4.6095947265625,-3.1351959705352783,0.6113662123680115,-0.8817551732063293
1761397134035958000,4.6289580078125,-3.5641093254089355,1.2263215780258179,-1.6354942321777344
1761397134055348200,4.64834814453125,-1.179063320159912,2.7260231971740723,-3.3643085956573486
1761397134074725000,4.66772509765625,7.024729251861572,5.304289817810059,-4.0695929527282715
1761397134094088400,4.68708837890625,17.027923583984375,9.719645500183105,-1.7216359376907349
1761397134113478700,4.706478759765625,26.715864181518555,9.780064582824707,4.707280158996582
1761397134132855600,4.72585546875,33.90689468383789,6.4319071769714355,11.873186111450195
1761397134152219000,4.745218994140625,32.14697265625,5.997610092163086,6.020341873168945
1761397134171609000,4.764609130859375,26.320451736450195,7.423732280731201,-1.1892328262329102
1761397134190986000,4.783986083984375,20.23729705810547,7.7461652755737305,0.29790642857551575
1761397134210349300,4.803349365234375,10.805987358093262,7.066603660583496,2.5639095306396484
1761397134229739500,4.822739501953125,2.4783661365509033,5.888736724853516,2.059023857116699
1761397134249116400,4.842116455078125,-0.5252245664596558,4.338187217712402,1.622931957244873
1761397134268479700,4.861479736328125,-1.5014961957931519,2.826521635055542,1.8861424922943115
1761397134287870200,4.8808701171875,-2.6799614429473877,1.109073281288147,0.8482556343078613
1761397134307246800,4.900246826171875,-2.7020950317382812,0.20817556977272034,-1.1066805124282837
1761397134326610200,4.919610107421875,-2.5154547691345215,-0.020338991656899452,-1.2574282884597778
1761397134346000600,4.939000732421875,-3.6670007705688477,0.08075776696205139,-0.3314059376716614
1761397134365377300,4.958377197265625,-5.292923450469971,0.5282155871391296,0.35533416271209717
1761397134384740600,4.97774072265625,-4.5786662101745605,1.835893154144287,-0.3206382393836975
1761397134404131000,4.997131103515625,-0.26979073882102966,2.8797619342803955,-0.7226324677467346
1761397134423507700,5.0165078125,8.428717613220215,3.827319860458374,1.3154542446136475
1761397134442871000,5.03587109375,19.851455688476562,5.337789058685303,4.95912504196167
1761397134462261500,5.055261474609375,26.475385665893555,8.054839134216309,2.486142635345459
1761397134481638400,5.074638427734375,27.534809112548828,7.667799949645996,0.7034898400306702
1761397134501001500,5.09400146484375,31.75694465637207,7.438089370727539,0.8057830333709717
1761397134520392000,5.113391845703125,33.01317596435547,7.416553974151611,0.09032905846834183
1761397134539768800,5.132768798828125,27.287750244140625,8.159524917602539,0.364905446767807
1761397134559132200,5.152132080078125,15.140584945678711,8.387441635131836,3.6640095710754395
1761397134578522400,5.1715224609375,4.150351047515869,8.314460754394531,4.770689964294434
1761397134597899300,5.190899169921875,0.519242525100708,6.955935478210449,4.11625337600708
1761397134617262600,5.2102626953125,1.113858938217163,4.862215518951416,3.08135724067688
1761397134636652800,5.22965283203125,0.6885347366333008,2.283949136734009,1.8945173025131226
1761397134656029700,5.24902978515625,-0.04187439754605293,0.1663011759519577,0.5946164131164551
1761397134675393000,5.26839306640625,-1.2592228651046753,-0.7172485589981079,0.6305087804794312
1761397134694783200,5.287783203125,-3.181257724761963,-1.5332010984420776,0.7130611538887024
1761397134714160000,5.30716015625,-4.938187599182129,-1.3100703954696655,-0.3086741268634796
1761397134733523500,5.3265234375,-5.8133625984191895,-0.7357929348945618,-0.9756734371185303
1761397134752913700,5.34591357421875,-3.864408493041992,-0.31824541091918945,-0.906281590461731
1761397134772290600,5.36529052734375,0.5910272002220154,0.3696911036968231,-0.3152543902397156
1761397134791654000,5.38465380859375,4.3794636726379395,2.3916261196136475,-0.2590230405330658
1761397134811044000,5.404044189453125,7.103094100952148,4.573282241821289,1.2765709161758423
1761397134830421000,5.4234208984375,14.386247634887695,9.768099784851074,-1.8233308792114258
1761397134849784300,5.442784423828125,20.82413673400879,13.15514087677002,-2.9557342529296875
1761397134869174500,5.462174560546875,27.362525939941406,8.675776481628418,7.680362701416016
1761397134888551400,5.481551513671875,41.377288818359375,3.8536407947540283,12.809975624084473
1761397134907914800,5.500914794921875,41.91447448730469,3.3098719120025635,6.668198585510254
1761397134927305000,5.520304931640625,23.74637222290039,5.31984281539917,2.0709879398345947
1761397134946681900,5.539681884765625,5.863611698150635,6.945765972137451,2.0919251441955566
1761397134966045200,5.559045166015625,-6.041278839111328,7.372884750366211,2.8115665912628174
1761397134985435600,5.578435546875,-9.864411354064941,5.898906230926514,3.3816566467285156
1761397135004812300,5.597812255859375,-7.9244303703308105,2.417947292327881,3.324826955795288
1761397135024175600,5.617175537109375,-3.9110686779022217,-0.2386840581893921,1.0660024881362915
1761397135043565800,5.63656591796875,-0.2584248483181,-1.5260226726531982,-1.3692927360534668
1761397135062942700,5.655942626953125,1.3980066776275635,-1.5954145193099976,-2.8043880462646484
1761397135082319600,5.675319580078125,1.1419745683670044,-0.6131607890129089,-2.7038896083831787
1761397135101696500,5.694696533203125,-1.1024930477142334,0.6215356588363647,-1.607378602027893
1761397135121073200,5.7140732421875,-2.0673987865448,2.2911276817321777,-1.537388563156128
1761397135140436500,5.7334365234375,1.7647067308425903,4.268197536468506,-0.9936196208000183
1761397135159827000,5.752826904296875,9.591629981994629,5.937191009521484,1.9507486820220947
1761397135179203600,5.77220361328125,22.456043243408203,8.145766258239746,3.331407308578491
1761397135198567000,5.79156689453125,25.30888557434082,10.442875862121582,-0.7369893789291382
1761397135217957400,5.810957275390625,21.92603302001953,9.282357215881348,-1.8574285507202148
1761397135237334000,5.830333984375,25.150360107421875,7.6666035652160645,-0.08793623000383377
1761397135256697300,5.849697265625,25.928627014160156,6.3014984130859375,1.5906288623809814
1761397135276087800,5.869087890625,18.766908645629883,6.6729841232299805,2.5190439224243164
1761397135295464700,5.888464599609375,7.843672752380371,6.591030120849609,3.207578659057617
1761397135314828000,5.907828125,-0.3086741268634796,5.9060845375061035,1.805384635925293
1761397135334218200,5.92721826171875,-3.8075790405273438,4.644468784332275,0.9463613629341125
1761397135353595100,5.94659521484375,-3.8422749042510986,2.988037347793579,0.8638089895248413
1761397135372958500,5.96595849609375,-2.472383975982666,1.4159528017044067,1.176072359085083
1761397135392348700,5.9853486328125,0.11844471842050552,0.31405797600746155,0.9296116232872009
1761397135411725600,6.0047255859375,1.612762451171875,-0.09631111472845078,0.05922235921025276
1761397135431089000,6.0240888671875,0.8315058946609497,0.48514479398727417,-1.3824533224105835
1761397135450479000,6.04347900390625,-0.966102123260498,1.9369899034500122,-0.7513462901115417
1761397135469856000,6.06285595703125,-0.30568310618400574,4.024727821350098,1.0319048166275024
1761397135489219300,6.08221923828125,5.460421085357666,5.908477306365967,2.568096876144409
1761397135508609500,6.101609619140625,13.932807922363281,8.903095245361328,2.011765718460083
1761397135527986400,6.120986328125,20.840288162231445,10.301101684570312,2.3569302558898926
1761397135547349800,6.140349853515625,26.129024505615234,8.2157564163208,4.000201225280762
1761397135566740000,6.159739990234375,31.01875877380371,6.769893646240234,1.451246976852417
1761397135586116900,6.179116943359375,28.17129898071289,6.856633186340332,-1.648654818534851
1761397135605480200,6.198480224609375,18.458234786987305,8.200202941894531,-2.007578134536743
1761397135624870400,6.217870361328125,7.340581893920898,8.298309326171875,0.4325026869773865
1761397135644247300,6.237247314453125,-0.19322042167186737,6.93619441986084,2.36291241645813
1761397135663610600,6.256610595703125,-1.6342978477478027,4.842474937438965,3.6436707973480225
1761397135683000800,6.276000732421875,2.1260228157043457,2.7559335231781006,3.0005996227264404
1761397135702377700,6.295377685546875,6.299703598022461,1.5966109037399292,0.6879364848136902
1761397135721741000,6.314740966796875,6.634698867797852,0.7836494445800781,-0.7507480978965759
1761397135741131500,6.334131591796875,3.6735808849334717,0.37028929591178894,-1.0289137363433838
1761397135760508200,6.353508056640625,1.3806586265563965,0.6370890140533447,-0.23629122972488403
1761397135779871500,6.37287158203125,-1.0612168312072754,1.3286148309707642,1.6211373805999756
1761397135799262000,6.392261962890625,-1.908276081085205,1.827518343925476,2.705684185028076
1761397135818638600,6.411638671875,0.12921242415905,2.406581401824951,0.906281590461731
1761397135838002000,6.431001953125,3.4133615493774414,2.9276185035705566,-1.2185449600219727
1761397135857392400,6.450392333984375,7.94297456741333,3.61435866355896,-0.46420758962631226
1761397135876769000,6.46976904296875,12.155538558959961,4.860421180725098,0.9433703422546387
1761397135896132400,6.48913232421875,13.262219429016113,6.8171515464782715,-1.877767562866211
1761397135915522800,6.508522705078125,10.664212226867676,8.575278282165527,-5.315655708312988
1761397135934899700,6.527899658203125,9.682557106018066,9.684351921081543,-3.0370900630950928
1761397135954263000,6.547262939453125,13.640883445739746,8.57348346710205,4.6199421882629395
1761397135973653200,6.5666533203125,20.29173469543457,6.786643028259277,12.215359687805176
1761397135993030100,6.586030029296875,22.50090789794922,7.788039684295654,8.781659126281738
1761397136012393200,6.605393310546875,18.528223037719727,8.767900466918945,2.8594231605529785
1761397136031783700,6.62478369140625,13.619348526000977,8.456833839416504,3.6813576221466064
1761397136051160600,6.64416064453125,8.61475944519043,7.503293514251709,5.870192050933838
1761397136070524000,6.66352392578125,5.26899528503418,5.993422508239746,5.155934810638428
1761397136089914000,6.6829140625,4.256831645965576,4.43330192565918,3.6670007705688477
1761397136109291000,6.702291015625,4.5786662101745605,3.0382864475250244,2.7188446521759033
1761397136128654300,6.721654296875,5.093122959136963,1.960319995880127,2.135594129562378
1761397136148044500,6.74104443359375,4.446462631225586,1.2544373273849487,2.063211441040039
1761397136167421400,6.76042138671875,3.0658040046691895,1.0408778190612793,1.5571293830871582
1761397136186784800,6.77978466796875,1.2729816436767578,1.2526426315307617,0.503689169883728
1761397136206175000,6.799175048828125,0.17347964644432068,1.8604196310043335,0.05742774158716202
1761397136225552000,6.8185517578125,0.8961120843887329,2.3497519493103027,0.6532405614852905
1761397136244915200,6.837915283203125,3.697509288787842,2.946761131286621,1.7120646238327026
1761397136264305400,6.857305419921875,6.212964057922363,4.258028030395508,0.9852447509765625
1761397136283682300,6.876682373046875,7.703692436218262,6.058627128601074,-1.0348957777023315
1761397136303045600,6.896045654296875,9.584450721740723,9.288339614868164,-2.713460922241211
1761397136322435800,6.915435791015625,11.070992469787598,11.627323150634766,-1.9435701370239258
1761397136341812700,6.934812744140625,15.209379196166992,10.231709480285645,1.4901303052902222
1761397136361176000,6.954176025390625,21.87398910522461,7.204789161682129,3.1621150970458984
1761397136380566500,6.97356640625,22.179073333740234,6.5150580406188965,-0.5318048596382141
1761397136399943200,6.992943115234375,16.406389236450195,7.7180495262146,-4.316053867340088
1761397136419306500,7.012306396484375,10.76530933380127,9.20997428894043,-3.541975736618042
1761397136438696700,7.03169677734375,6.412764549255371,9.675378799438477,-1.4799607992172241
1761397136458073600,7.051073486328125,2.9551360607147217,7.617550849914551,0.3188436031341553
1761397136477437000,7.07043701171875,2.4646072387695312,5.019543647766113,3.1483564376831055
1761397136496827400,7.089827392578125,3.9427735805511475,2.6285157203674316,5.5244293212890625
1761397136516204000,7.1092041015625,5.228915691375732,1.389631748199463,4.746163845062256
1761397136535567400,7.1285673828125,5.045864582061768,0.9930213689804077,2.469393014907837
1761397136554957800,7.147957763671875,3.8009986877441406,0.8943174481391907,1.441077470779419
1761397136574334500,7.16733447265625,0.9876375198364258,0.9840483069419861,1.9728822708129883
1761397136593697800,7.18669775390625,-1.5702898502349854,0.8859425783157349,2.0817556381225586
1761397136613088300,7.206088134765625,-2.455035924911499,1.4111671447753906,1.1365907192230225
1761397136632465000,7.22546484375,-0.5970092415809631,1.9980069398880005,0.6203392744064331
1761397136651828200,7.244828125,3.786043643951416,2.902493953704834,0.5353940725326538
1761397136671218700,7.26421875,7.716254711151123,4.338187217712402,0.641276478767395
1761397136690595600,7.283595703125,11.417951583862305,6.327221393585205,-0.9397810697555542
1761397136709959000,7.302958984375,14.401203155517578,7.470392227172852,-2.65423846244812
1761397136729349000,7.32234912109375,16.244873046875,7.602595806121826,0.005383851006627083
1761397136748726000,7.34172607421875,18.46660804748535,7.548757076263428,2.9802606105804443
1761397136768102700,7.3611025390625,16.800006866455078,8.11944580078125,2.1403799057006836
1761397136787479600,7.3804794921875,13.883156776428223,8.571688652038574,0.41575294733047485
1761397136806856400,7.3998564453125,12.700504302978516,8.764310836791992,0.8213363885879517
1761397136826219800,7.4192197265625,11.051251411437988,8.25703239440918,2.8414769172668457
1761397136845610000,7.43860986328125,8.753543853759766,6.806384086608887,4.456034183502197
1761397136864987000,7.45798681640625,8.321639060974121,4.9262237548828125,4.491926193237305
1761397136884350200,7.47735009765625,8.776275634765625,4.347160339355469,3.1680972576141357
1761397136903740400,7.496740478515625,6.45523738861084,4.13060998916626,2.5250260829925537
1761397136923117300,7.516117431640625,3.2207393646240234,4.051048755645752,2.011765718460083
1761397136942480600,7.535480712890625,1.0133603811264038,3.2919256687164307,1.8149559497833252
1761397136961870800,7.554870849609375,0.44745782017707825,2.287538528442383,1.293320655822754
1761397136981247700,7.574247802734375,1.0103694200515747,1.9142581224441528,0.3164508044719696
1761397137000624600,7.593624755859375,1.9752750396728516,2.1535403728485107,-0.5198407173156738
1761397137020001500,7.61300146484375,3.6053855419158936,2.2845473289489746,-0.3008974492549896
1761397137039378200,7.632378173828125,6.777669906616211,2.3024935722351074,1.0480563640594482
1761397137058741500,7.651741455078125,9.631709098815918,2.0955145359039307,4.52781867980957
1761397137078131700,7.671131591796875,11.09192943572998,3.2177481651306152,5.863013744354248
1761397137097508600,7.690508544921875,11.258829116821289,5.4143595695495605,2.775674343109131
1761397137116872000,7.709871826171875,13.645071029663086,5.231308460235596,2.9276185035705566
1761397137136262400,7.729262451171875,16.014564514160156,5.49930477142334,4.629513740539551
1761397137155639000,7.74863916015625,15.02573013305664,5.695516109466553,5.07936429977417
1761397137175002400,7.76800244140625,14.517852783203125,5.907878875732422,3.087937593460083
1761397137194392800,7.787392822265625,15.334403991699219,6.6245293617248535,-1.0875378847122192
1761397137213769500,7.80676953125,15.78246021270752,7.284948348999023,-3.5742788314819336
1761397137233146400,7.826146484375,14.78824234008789,7.6049885749816895,-3.363112211227417
1761397137252523300,7.845523193359375,13.49611759185791,7.082755088806152,-0.3314059376716614
1761397137271900000,7.86489990234375,11.904891014099121,6.096911907196045,2.9766714572906494
1761397137291263200,7.88426318359375,9.488140106201172,4.942973613739014,3.9457645416259766
1761397137310653700,7.90365380859375,6.27996301651001,3.937389612197876,3.063411235809326
1761397137330030600,7.923030517578125,4.208376884460449,2.9599215984344482,2.3126630783081055
1761397137349394000,7.942393798828125,4.035495281219482,2.438286304473877,1.3615161180496216
1761397137368784100,7.9617841796875,4.54636287689209,2.0925233364105225,0.5952146053314209
1761397137388161000,7.9811611328125,4.811966419219971,1.948355793952942,-0.03409772366285324
1761397137407524400,8.0005244140625,3.947559118270874,1.950150489807129,0.3206382393836975
1761397137426914600,8.01991455078125,3.5431721210479736,2.383849620819092,1.2245270013809204
1761397137446291500,8.03929150390625,5.320441246032715,2.7702903747558594,1.6671991348266602
1761397137465668000,8.058668212890625,4.23230504989624,2.1846470832824707,2.3994028568267822
1761397137485045000,8.078044921875,3.1513473987579346,2.3670997619628906,2.2540390491485596
1761397137504422000,8.097421875,3.463012456893921,3.2093734741210938,1.7288143634796143
1761397137523785200,8.11678515625,6.182455539703369,3.965505361557007,0.8309076428413391
1761397137543175400,8.136175537109375,8.678768157958984,5.080560684204102,-1.2831511497497559
1761397137562552300,8.15555224609375,10.17428207397461,7.557132244110107,-3.260220766067505
1761397137581915600,8.17491552734375,12.308679580688477,10.923234939575195,-3.857828378677368
1761397137601305900,8.194305908203125,13.013365745544434,12.641282081604004,-1.1282159090042114
1761397137620682800,8.213682861328126,13.308280944824219,12.265608787536621,4.101896286010742
1761397137640046000,8.233046142578125,15.796218872070312,11.236695289611816,6.574878215789795
1761397137659436300,8.252436279296875,17.895919799804688,10.167701721191406,5.032105922698975
1761397137678813200,8.271813232421875,15.217753410339355,10.76530933380127,0.008973085321485996
1761397137698176500,8.291176513671875,11.132009506225586,10.517651557922363,-2.66560435295105
1761397137717566700,8.310566650390625,9.793225288391113,9.694520950317383,-2.2259232997894287
1761397137736943600,8.329943603515625,8.48734188079834,8.139185905456543,0.43190449476242065
1761397137756307000,8.349306884765625,5.154139995574951,6.425925254821777,2.846860647201538
1761397137775697400,8.368697509765624,3.2207393646240234,4.4721856117248535,3.7950167655944824
1761397137795074000,8.388073974609375,3.4277184009552,2.712862730026245,2.3611178398132324
1761397137814437400,8.407437255859374,4.05703067779541,1.4997016191482544,0.6993024349212646
1761397137833827800,8.426827880859374,3.634697675704956,1.0247262716293335,0.35473597049713135
1761397137853204500,8.44620458984375,2.5537400245666504,0.9810572862625122,0.714257538318634
1761397137872567800,8.46556787109375,1.789831280708313,1.2131611108779907,1.3094722032546997
1761397137891958300,8.484958251953126,1.1204391717910767,1.5415760278701782,1.3776676654815674
1761397137911335000,8.5043349609375,-0.2787638306617737,1.9692929983139038,0.4713860750198364
1761397137930698200,8.5236982421875,-0.035892341285943985,2.1774685382843018,-0.42293140292167664
1761397137950088700,8.543088623046875,1.6522440910339355,2.8073792457580566,-1.2029916048049927
1761397137969465600,8.562465576171874,3.6047873497009277,3.5886356830596924,-1.327418327331543
1761397137988829000,8.581828857421876,6.109474182128906,4.865804672241211,-1.9764715433120728
1761397138008219100,8.60121923828125,9.227322578430176,7.456035137176514,-4.210171222686768
1761397138027596000,8.620595947265626,11.163714408874512,9.348159790039062,-4.658825874328613
1761397138046959000,8.639958984375,11.795419692993164,10.399805068969727,-1.5960127115249634
1761397138066349600,8.659349609375,14.236696243286133,10.476375579833984,3.686143398284912
1761397138085726500,8.6787265625,16.98844337463379,10.323833465576172,5.391029357910156
1761397138105089800,8.69808984375,18.055044174194336,10.40758228302002,2.410768747329712
1761397138124480000,8.71747998046875,17.94437599182129,9.81117057800293,3.332005500793457
1761397138143857000,8.73685693359375,17.705093383789062,9.835099220275879,2.492722988128662
1761397138163220200,8.75622021484375,14.298910140991211,9.337990760803223,-1.4913266897201538
1761397138182610400,8.7756103515625,11.23908805847168,8.399405479431152,-1.6941183805465698
1761397138201987300,8.7949873046875,8.963513374328613,6.681358814239502,0.9116654396057129
1761397138221350700,8.8143505859375,6.937989234924316,5.068596363067627,2.9964120388031006
1761397138240740900,8.833740966796874,6.402595043182373,3.445066452026367,1.485344648361206
1761397138260117800,8.85311767578125,6.186044692993164,2.203789710998535,-0.8327022790908813
1761397138279481000,8.872481201171874,4.862813949584961,1.210170030593872,-1.2023934125900269
1761397138298871300,8.891871337890626,3.243471145629883,0.9511470198631287,0.5000999569892883
1761397138318248200,8.911248291015625,1.207179069519043,0.9092726111412048,2.3814568519592285
1761397138337611500,8.930611572265626,0.16331014037132263,1.2436695098876953,2.062613010406494
1761397138357001700,8.950001708984376,0.17706887423992157,1.3645070791244507,0.2632105052471161
1761397138376378600,8.969378662109374,1.714457392692566,1.6325032711029053,-1.7676976919174194
1761397138395755500,8.988755615234375,2.3060827255249023,2.289931297302246,-0.9320043921470642
1761397138415132400,9.00813232421875,1.6654045581817627,3.276970624923706,2.1888344287872314
1761397138434509000,9.027509033203126,3.0837502479553223,4.79102897644043,1.4093725681304932
1761397138453872400,9.046872314453125,6.926024913787842,5.757131099700928,-2.0745773315429688
1761397138473262600,9.0662626953125,10.381260871887207,7.698906898498535,-3.6287155151367188
1761397138492639500,9.085639404296876,12.827921867370605,9.449854850769043,-3.014956474304199
1761397138512002800,9.1050029296875,15.54796314239502,9.373882293701172,-0.6131607890129089
1761397138531393300,9.124393310546875,15.597614288330078,8.881559371948242,2.117648124694824
1761397138550770000,9.14377001953125,15.317055702209473,9.000602722167969,-0.44327038526535034
1761397138570133200,9.16313330078125,15.008381843566895,9.445069313049316,-4.3280181884765625
1761397138589523700,9.182523681640625,12.76750373840332,10.132407188415527,-4.198207378387451
1761397138608900400,9.201900390625,9.790233612060547,10.695917129516602,-2.03629207611084
1761397138628263700,9.221263671875,7.973483085632324,9.828518867492676,-0.833898663520813
1761397138647654100,9.240654052734374,7.787441253662109,8.026723861694336,-0.49232324957847595
1761397138667030800,9.26003076171875,7.762316703796387,5.797211170196533,1.2077772617340088
1761397138686394000,9.27939404296875,8.846264839172363,3.806980848312378,2.764308452606201
1761397138705784600,9.29878466796875,9.847661972045898,2.469393014907837,2.152942180633545
1761397138725161500,9.318161376953125,8.891130447387695,1.602592945098877,1.4638092517852783
1761397138744524800,9.33752490234375,6.495915412902832,1.134796142578125,1.3351950645446777
1761397138763915000,9.3569150390625,4.265804767608643,0.8991031050682068,0.7070791125297546
1761397138783292000,9.3762919921875,2.201396942138672,0.9732806086540222,0.698704183101654
1761397138802655200,9.3956552734375,1.095314621925354,1.2041879892349243,1.0432707071304321
1761397138822045400,9.41504541015625,0.8069794178009033,1.4859428405761719,0.8691928386688232
1761397138841422300,9.43442236328125,0.6035895347595215,2.0315065383911133,0.885344386100769
1761397138860785700,9.45378564453125,-0.1704886108636856,2.6428725719451904,1.211964726448059
1761397138880175900,9.47317578125,0.008973085321485996,3.3756744861602783,0.18125630915164948
1761397138899552800,9.492552734375,2.38265323638916,4.954339504241943,-1.6654045581817627
1761397138918916000,9.511916015625,5.55733060836792,7.639684677124023,-3.469592809677124
1761397138938306300,9.531306396484375,8.286943435668945,10.559526443481445,-3.5156545639038086
1761397138957683200,9.55068310546875,14.435898780822754,10.799407005310059,0.8123632669448853
1761397138977046500,9.570046630859375,21.86920166015625,10.719246864318848,4.983053207397461
1761397138996436700,9.589436767578125,25.766511917114258,10.086345672607422,3.7184464931488037
1761397139015813600,9.608813720703125,24.16631317138672,10.578070640563965,-1.609771490097046
1761397139035177000,9.628177001953125,20.608184814453125,11.505289077758789,-2.1337995529174805
1761397139054567200,9.647567138671874,15.686148643493652,11.693724632263184,0.6813562512397766
1761397139073944000,9.666944091796875,9.362516403198242,9.736394882202148,2.0380866527557373
1761397139093307400,9.686307373046875,5.269593715667725,7.3262248039245605,0.9433703422546387
1761397139112697600,9.705697509765624,3.2159535884857178,5.583651542663574,-0.4217349886894226
1761397139132074500,9.725074462890625,1.9674984216690063,4.165306091308594,0.2763710021972656
1761397139151437800,9.744437744140624,1.721037745475769,2.507079839706421,1.231107234954834
1761397139170828300,9.763828369140626,1.8939191102981567,0.9056833982467651,0.7058826684951782
1761397139190205000,9.783204833984374,1.165902853012085,-0.14656038582324982,0.29012975096702576
1761397139209568300,9.802568359375,-0.003589233849197626,-0.6855437159538269,0.48454657196998596
1761397139228958700,9.821958740234376,-1.0701899528503418,-0.40378883481025696,0.607776939868927
1761397139248335400,9.84133544921875,-1.8855443000793457,0.5934200286865234,1.3040883541107178
1761397139267712300,9.860712158203125,-1.8717855215072632,1.4219348430633545,1.2113664150238037
1761397139287089200,9.880089111328125,-0.11306086927652359,2.7828526496887207,-0.2512463629245758
1761397139306465800,9.8994658203125,4.101896286010742,4.086941242218018,0.7417750358581543
1761397139325829000,9.9188291015625,9.638289451599121,5.829514026641846,3.2213375568389893
1761397139345219600,9.938219482421875,16.111473083496094,8.669795036315918,1.3591232299804688
1761397139364596500,9.957596435546876,20.807985305786133,10.195816993713379,-1.7772690057754517
1761397139383959800,9.976959716796875,20.003997802734375,10.302896499633789,-0.4833501875400543
1761397139403350000,9.99635009765625,21.527029037475586,11.115259170532227,-0.3517449200153351
1761397139422726700,10.0157265625,23.215166091918945,11.01416301727295,-1.3806586265563965
1761397139442090200,10.03509033203125,20.522043228149414,10.886146545410156,-0.5826523303985596
1761397139461480400,10.05448046875,14.20020580291748,11.11346435546875,1.2903295755386353
1761397139480857300,10.073857421875,7.0648088455200195,9.949356079101562,4.29033088684082
1761397139500220700,10.093220703125,2.121835470199585,7.767102241516113,5.026721954345703
1761397139519611000,10.11261083984375,0.7740781307220459,4.719842433929443,2.874378204345703
1761397139538987800,10.13198779296875,3.019144058227539,1.8550357818603516,0.4205385744571686
1761397139558351000,10.15135107421875,4.112663745880127,0.18723836541175842,0.3086741268634796
1761397139577741300,10.1707412109375,4.1006999015808105,-0.1782652884721756,1.2646067142486572
1761397139597118200,10.1901181640625,3.8494534492492676,0.07537391036748886,1.472184181213379
1761397139616481500,10.2094814453125,2.8145575523376465,0.6687939167022705,1.1509476900100708
1761397139635871700,10.228871826171876,2.1104695796966553,1.1617153882980347,0.3732803463935852
1761397139655248600,10.24824853515625,2.53399920463562,1.6845471858978271,-0.2548356056213379
1761397139674625500,10.26762548828125,3.1519455909729004,2.3222343921661377,0.6550351977348328
1761397139694002200,10.287002197265625,4.109673023223877,3.078366279602051,1.332203984260559
1761397139713379000,10.306379150390624,5.859424591064453,3.5336008071899414,-0.062213387340307236
1761397139732742400,10.325742431640625,7.040282249450684,4.4751763343811035,-2.0033907890319824
1761397139752132600,10.345132568359375,7.101897716522217,7.2783684730529785,-2.1475582122802734
1761397139771509500,10.364509521484376,5.68893575668335,9.941579818725586,-1.4135600328445435
1761397139790872800,10.383872802734375,3.700500249862671,9.094520568847656,-1.5158531665802002
1761397139810263000,10.403262939453125,5.469394207000732,8.662017822265625,0.31465616822242737
1761397139829640000,10.422639892578125,16.98604965209961,6.9104719161987305,1.095314621925354
1761397139849003300,10.442003173828125,23.261825561523438,6.3738813400268555,-0.3403790295124054
1761397139868393700,10.461393798828125,18.049060821533203,8.21994400024414,-1.5936198234558105
1761397139887770400,10.480770263671875,9.426525115966797,8.24387264251709,1.7736797332763672
1761397139907147300,10.500147216796876,10.109675407409668,8.094919204711914,2.4951157569885254
1761397139926524200,10.519524169921874,13.666007995605469,8.501100540161133,-0.527019202709198
1761397139945900800,10.53890087890625,14.34856128692627,7.7940216064453125,1.0767701864242554
1761397139965264100,10.55826416015625,11.901301383972168,5.669793128967285,4.573880672454834
1761397139984654600,10.577654541015624,7.692924976348877,3.1627132892608643,4.792225360870361
1761397140004031200,10.59703125,8.200801849365234,4.598406791687012,-0.5910272002220154
1761397140023394600,10.61639453125,7.086942672729492,3.507878065109253,-1.444068431854248
1761397140042785000,10.635784912109376,5.294718265533447,2.8809585571289062,0.666999340057373
1761397140062161700,10.65516162109375,3.783052682876587,2.9359934329986572,2.321038007736206
1761397140081538600,10.67453857421875,6.561717987060547,2.4538395404815674,2.0656042098999023
1761397140100915500,10.69391552734375,6.987640380859375,2.5938198566436768,1.734796404838562
1761397140120292400,10.713292236328124,6.6352972984313965,2.727219581604004,1.820937991142273
1761397140139669000,10.7326689453125,7.3884382247924805,3.1387851238250732,0.778863787651062
1761397140159046000,10.7520458984375,6.753143787384033,3.492922782897949,1.7988044023513794
1761397140178422800,10.7714228515625,6.0161542892456055,4.226323127746582,1.571486234664917
1761397140197786000,10.7907861328125,7.837092399597168,5.376672267913818,-0.3978067636489868
1761397140217176300,10.81017626953125,5.8133625984191895,6.585646152496338,1.0055837631225586
1761397140236553200,10.82955322265625,4.267599105834961,8.176275253295898,2.0751755237579346
1761397140255916500,10.84891650390625,2.970689296722412,8.4771728515625,1.9573289155960083
1761397140275306800,10.868306640625,2.4951157569885254,8.123632431030273,2.052443504333496
1761397140294683600,10.88768359375,9.494122505187988,7.152745246887207,-0.010767702013254166
1761397140314047000,10.907046875,18.049659729003906,5.886343479156494,0.16331014037132263
1761397140333437200,10.926437255859375,17.405990600585938,5.429314613342285,3.31465744972229
1761397140352814000,10.94581396484375,9.4390869140625,5.672784328460693,2.3575284481048584
1761397140372177400,10.965177490234375,6.029912948608398,6.168098449707031,-2.2396819591522217
