time,seconds_elapsed,z,y,x
1761397129539430100,0.13243017578125,0.19837264716625214,0.6778877377510071,-0.1948602795600891
1761397129558807000,0.15180712890625,0.21333840489387512,0.6467345356941223,-0.07437065243721008
1761397129578183700,0.17118359375,0.30985227227211,0.5653391480445862,-0.0662769302725792
1761397129597560600,0.190560546875,0.46042612195014954,0.455539345741272,-0.10918894410133362
1761397129616937500,0.2099375,0.5661026835441589,0.33352261781692505,-0.12201674282550812
1761397129636314000,0.229314208984375,0.6337540149688721,0.237008735537529,-0.09315420687198639
1761397129655691000,0.24869091796875,0.6519267559051514,0.12659808993339539,-0.051922015845775604
1761397129675068000,0.26806787109375,0.6160394549369812,-0.0198525357991457,-0.055892523378133774
1761397129694444500,0.287444580078125,0.5415160655975342,-0.12522368133068085,-0.07009471952915192
1761397129713821400,0.306821533203125,0.44546034932136536,-0.10827267915010452,-0.0910162404179573
1761397129733198300,0.3261982421875,0.42011019587516785,-0.04947862774133682,-0.1638597846031189
1761397129752575200,0.3455751953125,0.3573456406593323,0.004123218823224306,-0.22555534541606903
1761397129771951900,0.364951904296875,0.31168481707572937,0.08093725889921188,-0.17088451981544495
1761397129791328800,0.384328857421875,0.37475478649139404,0.11865708231925964,-0.0390942245721817
1761397129810705700,0.40370556640625,0.43263256549835205,0.046424392610788345,0.12308572232723236
1761397129830082300,0.423082275390625,0.40575528144836426,-0.04703523963689804,0.25350162386894226
1761397129849459200,0.442459228515625,0.353985995054245,-0.025655584409832954,0.35505497455596924
1761397129868836000,0.461836181640625,0.3184041380882263,0.014507622458040714,0.3342861533164978
1761397129888212700,0.481212646484375,0.3136700689792633,-0.0397050715982914,0.20493926107883453
1761397129907589600,0.500589599609375,0.3382566571235657,-0.01252236869186163,0.15561333298683167
1761397129926966500,0.519966552734375,0.32939937710762024,-0.050394900143146515,0.13240113854408264
1761397129946343200,0.53934326171875,0.3374931216239929,-0.37383851408958435,-0.03542914241552353
1761397129965720000,0.558719970703125,0.36070531606674194,-0.7447755336761475,-0.3136700689792633
1761397129985097000,0.578096923828125,0.38132140040397644,-0.5140279531478882,-0.4500417113304138
1761397130004473600,0.5974736328125,0.5016583204269409,-0.17225892841815948,-0.41323816776275635
1761397130023850500,0.6168505859375,0.6653653979301453,-0.07711946964263916,-0.23975755274295807
1761397130043227400,0.636227294921875,0.7317950129508972,-0.04107947647571564,0.02626643143594265
1761397130062604300,0.655604248046875,0.6868977546691895,0.016340164467692375,0.3426853120326996
1761397130081967600,0.674967529296875,0.5422796607017517,0.13866232335567474,0.5584670901298523
1761397130101357800,0.69435791015625,0.4662291705608368,0.2767138183116913,0.5005893111228943
1761397130120734700,0.713734619140625,0.49325916171073914,0.18707197904586792,0.2951919436454773
1761397130140111400,0.733111328125,0.4164451062679291,0.009009997360408306,0.09926267713308334
1761397130159488300,0.75248828125,0.33230090141296387,-0.0916270911693573,-0.03787253051996231
1761397130178865200,0.771865234375,0.293664813041687,-0.3232909142971039,-0.1754658818244934
1761397130198228500,0.791228515625,0.2864873707294464,-0.5259394645690918,-0.23960483074188232
1761397130217618700,0.81061865234375,0.3698680102825165,-0.32130566239356995,-0.015576604753732681
1761397130236995600,0.82999560546875,0.5528167486190796,0.04062134400010109,0.29839888215065
1761397130256359000,0.84935888671875,0.7576032876968384,0.270452618598938,0.4543176591396332
1761397130275749000,0.8687490234375,0.9359707236289978,0.23181653022766113,0.3315373361110687
1761397130295126000,0.8881259765625,1.0027058124542236,0.0725381150841713,-0.07971556484699249
1761397130314502700,0.907502685546875,1.042868971824646,0.20555010437965393,-0.5322006940841675
1761397130333879600,0.926879638671875,1.106549859046936,0.3452814221382141,-0.8380824327468872
1761397130353256400,0.94625634765625,1.090667724609375,0.6175665855407715,-0.793337881565094
1761397130372619800,0.965619873046875,0.9396358132362366,0.9145910739898682,-0.5923691391944885
1761397130392010000,0.985010009765625,0.8296833038330078,0.645207405090332,-0.5247178077697754
1761397130411387000,1.004386962890625,0.8206732869148254,0.5587725043296814,-0.29259583353996277
1761397130430763800,1.023763671875,0.8107470273971558,0.9746068120002747,0.03695625811815262
1761397130450140400,1.043140380859375,0.9052756428718567,1.382652759552002,0.06994201242923737
1761397130469517300,1.062517333984375,0.941468358039856,1.4541219472885132,-0.1056765764951706
1761397130488880600,1.081880615234375,0.9943066239356995,1.825669765472412,-0.12140589207410812
1761397130508270800,1.101270751953125,1.191610336303711,2.337254285812378,0.21929416060447693
1761397130527647700,1.120647705078125,1.0782980918884277,2.652451515197754,0.8141067028045654
1761397130547011000,1.140010986328125,0.5109737515449524,2.426438093185425,1.0792144536972046
1761397130566401300,1.1594013671875,0.13514995574951172,1.684869408607483,0.4822639226913452
1761397130585778200,1.178778076171875,-0.12354385852813721,0.9268079996109009,-0.8819107413291931
1761397130605141500,1.1981416015625,-0.34161633253097534,-0.3020639717578888,-1.9208091497421265
1761397130624531700,1.21753173828125,-0.42484426498413086,-1.5408622026443481,-2.0234315395355225
1761397130643908600,1.23690869140625,-0.4769189953804016,-2.542957067489624,-1.7288504838943481
1761397130663272000,1.25627197265625,-0.19562382996082306,-3.766484260559082,-1.4025052785873413
1761397130682662400,1.275662353515625,0.16813570261001587,-4.240196228027344,-1.2719366550445557
1761397130702039000,1.2950390625,0.14186927676200867,-3.6319451332092285,-1.582399845123291
1761397130721402400,1.31440234375,-0.05894676223397255,-2.4401819705963135,-1.8720941543579102
1761397130740792800,1.333792724609375,-0.25212720036506653,-1.5135267972946167,-2.0089240074157715
1761397130760169500,1.35316943359375,-0.5703786015510559,-0.8515210747718811,-1.8980551958084106
1761397130779532800,1.37253271484375,-0.5790832042694092,0.3892624080181122,-1.4228159189224243
1761397130798923300,1.39192333984375,-0.1754658818244934,1.584079623222351,-0.48928865790367126
1761397130818300000,1.4112998046875,0.4671454429626465,2.10589599609375,0.6679614782333374
1761397130837663200,1.430663330078125,0.4637857675552368,1.2409361600875854,0.7815790772438049
1761397130857053700,1.4500537109375,0.19272230565547943,1.342336893081665,0.9608627557754517
1761397130876430300,1.469430419921875,0.21181128919124603,1.6054593324661255,1.4777922630310059
1761397130895793700,1.488793701171875,0.8661814332008362,1.1742011308670044,1.5417784452438354
1761397130915184000,1.50818408203125,0.8733588457107544,-2.120250940322876,0.09147437661886215
1761397130934560800,1.527560791015625,-0.4918847680091858,-3.7498385906219482,-1.608513593673706
1761397130953924400,1.54692431640625,-0.8371661901473999,-0.9978190064430237,-1.0598199367523193
1761397130973314600,1.566314453125,0.5563291311264038,2.085737943649292,0.9361234307289124
1761397130992691200,1.585691162109375,1.394106149673462,1.8511725664138794,1.9563910961151123
1761397131012054500,1.605054443359375,0.5433486104011536,-0.42728766798973083,1.7865755558013916
1761397131031445000,1.624445068359375,-0.8857285380363464,-2.340614080429077,1.1884033679962158
1761397131050822000,1.64382177734375,-1.699529767036438,-2.0608458518981934,0.08826743066310883
1761397131070185200,1.663185302734375,-2.0115199089050293,-0.6531484127044678,-0.9559759497642517
1761397131089575400,1.682575439453125,-2.0061750411987305,0.28908345103263855,-1.2855280637741089
1761397131108952300,1.701952392578125,-1.8763700723648071,0.23991025984287262,-0.6980457305908203
1761397131128315600,1.721315673828125,-1.6294350624084473,-0.21120044589042664,0.2588465213775635
1761397131147705900,1.740705810546875,-1.2983558177947998,-0.5363239049911499,0.7820371985435486
1761397131167082800,1.760082763671875,-1.1824475526809692,-0.8707627654075623,0.7230904698371887
1761397131186446000,1.779446044921875,-1.3301198482513428,-1.1515997648239136,0.28037887811660767
1761397131205836300,1.798836181640625,-1.5718626976013184,-1.1488510370254517,-0.2160872220993042
1761397131225213200,1.818213134765625,-1.737096905708313,-1.1320526599884033,-0.5242596864700317
1761397131244576500,1.837576416015625,-1.7204513549804688,-1.4576343297958374,-0.8034168481826782
1761397131263966700,1.856966796875,-1.3657017946243286,-1.1331216096878052,-0.23884128034114838
1761397131283343600,1.876343505859375,-1.446639060974121,-0.9895725846290588,0.7612683773040771
1761397131302707000,1.89570703125,-1.7216730117797852,-1.7952800989151,0.5387672781944275
1761397131322097200,1.91509716796875,-1.6850221157073975,-2.3526782989501953,-0.111632339656353
1761397131341474000,1.93447412109375,-1.4139586687088013,-0.8412894010543823,0.23655059933662415
1761397131360837400,1.95383740234375,-0.8987090587615967,1.30476975440979,1.3072131872177124
1761397131380227600,1.9732275390625,-0.652384877204895,1.8391083478927612,1.7847429513931274
1761397131399604500,1.9926044921875,-0.7699729800224304,1.213906168937683,1.5944640636444092
1761397131418967800,2.0119677734375,-0.9014578461647034,0.30084228515625,1.1317472457885742
1761397131438358000,2.03135791015625,-0.6615476012229919,-0.2367033064365387,0.44362783432006836
1761397131457735000,2.05073486328125,-0.8191461563110352,-0.3828485310077667,-0.21532365679740906
1761397131477098200,2.07009814453125,-1.5179554224014282,-0.386208176612854,-0.5787777900695801
1761397131496488400,2.089488525390625,-1.8733158111572266,-0.40697699785232544,-0.5340332388877869
1761397131515865300,2.108865234375,-1.747175931930542,-0.5506787896156311,-0.23273280262947083
1761397131535228700,2.128228759765625,-1.4060176610946655,-0.5906893014907837,-0.03588727489113808
1761397131554619100,2.147619140625,-1.2168077230453491,-0.43141087889671326,-0.14492350816726685
1761397131573995800,2.166995849609375,-1.268424391746521,-0.5169295072555542,-0.3268032968044281
1761397131593359000,2.186359130859375,-1.3317997455596924,-1.0915840864181519,-0.4343124032020569
1761397131612749300,2.205749267578125,-1.3634110689163208,-1.7277814149856567,-0.6106945276260376
1761397131632126200,2.225126220703125,-1.5171918869018555,-1.9417307376861572,-0.7270609736442566
1761397131651489500,2.244489501953125,-1.4926053285598755,-1.386928677558899,-0.12812520563602448
1761397131670880000,2.2638798828125,-0.7959339618682861,-0.36131614446640015,0.35826191306114197
1761397131690256600,2.283256591796875,-0.7934905886650085,-1.0330954790115356,-1.0062181949615479
1761397131709620000,2.302619873046875,-1.2691879272460938,-2.091999053955078,-2.5712087154388428
1761397131729010400,2.322010498046875,-1.0202676057815552,-0.4359922409057617,-1.5495667457580566
1761397131748387000,2.341386962890625,-0.12934690713882446,0.9529217481613159,0.8637380003929138
1761397131767750400,2.36075048828125,0.6624638438224792,0.5115845799446106,2.9491705894470215
1761397131787140900,2.380140869140625,0.26755109429359436,-0.5996993184089661,3.104172945022583
1761397131806517500,2.399517578125,-0.1175880953669548,-0.3840702176094055,1.6208832263946533
1761397131825880800,2.418880859375,-0.1701209545135498,0.7423321604728699,-0.45049986243247986
1761397131845271300,2.438271240234375,-0.4813476502895355,0.497229665517807,-1.8684290647506714
1761397131864648000,2.45764794921875,-0.7650861740112305,-0.4928010404109955,-1.8395664691925049
1761397131884011300,2.47701123046875,-0.7820371985435486,-1.1766445636749268,-0.8867974877357483
1761397131903401700,2.496401611328125,-0.3461976945400238,-1.0659284591674805,-0.11392301321029663
1761397131922778600,2.515778564453125,0.06978929787874222,-0.45523393154144287,0.10750912129878998
1761397131942142000,2.535141845703125,0.2307475507259369,0.11010521650314331,0.029626091942191124
1761397131961532200,2.5545322265625,-0.02764083817601204,0.09208522737026215,-0.18142163753509521
1761397131980908800,2.57390869140625,-0.43263256549835205,-0.32878854870796204,-0.4115583300590515
1761397132000272100,2.593272216796875,-0.5627430081367493,-0.4683671295642853,-0.376740038394928
1761397132019662600,2.61266259765625,-0.5132644176483154,-0.5491516590118408,-0.07498150318861008
1761397132039039500,2.63203955078125,-0.5685460567474365,-0.8756495714187622,0.17531315982341766
1761397132058402800,2.65140283203125,-0.7443174123764038,-1.1274713277816772,0.28725093603134155
1761397132077793000,2.67079296875,-0.6019899845123291,-0.5679352283477783,0.3900259733200073
1761397132097170000,2.690169921875,-0.25976279377937317,-0.011300674639642239,-0.01832541823387146
1761397132116533200,2.709533203125,-0.737750768661499,-1.316528558731079,-1.2806413173675537
1761397132135923500,2.72892333984375,-0.9423846006393433,-0.7994463443756104,-0.8565605878829956
1761397132155300400,2.74830029296875,-0.3480302393436432,0.8733588457107544,0.8596147894859314
1761397132174663700,2.76766357421875,0.4468347728252411,0.9866710305213928,2.0674126148223877
1761397132194054000,2.787053955078125,0.37231141328811646,0.3049654960632324,2.010298252105713
1761397132213430800,2.8064306640625,-0.26251161098480225,-0.14278554916381836,1.1112838983535767
1761397132232794000,2.825794189453125,-0.36131614446640015,0.4286620616912842,-0.10216420143842697
1761397132252184300,2.845184326171875,-0.24250635504722595,0.8893936276435852,-1.186418056488037
1761397132271561200,2.864561279296875,-0.21746163070201874,0.5483881235122681,-1.677844762802124
1761397132290924500,2.883924560546875,-0.072232685983181,-0.3315373361110687,-1.0518789291381836
1761397132310314800,2.903314697265625,0.10582929104566574,-0.7153021693229675,0.12048961967229843
1761397132329691600,2.922691650390625,-0.08383878320455551,-0.8238802552223206,0.7782194018363953
1761397132349055000,2.942054931640625,-0.6051968932151794,-0.7142331600189209,0.9355126023292542
1761397132368445200,2.961445068359375,-1.0213366746902466,-0.5146388411521912,0.6670452356338501
1761397132387822000,2.980822021484375,-1.2357439994812012,-0.23899398744106293,0.21425467729568481
1761397132407185400,3.000185302734375,-1.2140588760375977,0.07299624383449554,-0.20570281147956848
1761397132426575600,3.01957568359375,-1.0031639337539673,-0.05375456064939499,-0.3035911023616791
1761397132445952500,3.038952392578125,-0.9455915689468384,-0.550373375415802,-0.19531841576099396
1761397132465315800,3.05831591796875,-0.9935430884361267,-1.0236272811889648,-0.059710320085287094
1761397132484706000,3.0777060546875,-0.6621584296226501,-1.0138537883758545,0.36162158846855164
1761397132504083000,3.0970830078125,-0.1378987729549408,-0.5572454333305359,1.1764918565750122
1761397132523446300,3.1164462890625,-0.34787750244140625,-1.240783452987671,1.0973870754241943
1761397132542836700,3.135836669921875,-0.7437065243721008,-2.664821147918701,-0.7763868570327759
1761397132562213400,3.15521337890625,-1.0085088014602661,-1.3101146221160889,-2.909770965576172
1761397132581576700,3.17457666015625,-0.49890950322151184,2.2251639366149902,-2.149876832962036
1761397132600967200,3.19396728515625,0.9985825419425964,2.722698926925659,-0.611152708530426
1761397132620343800,3.21334375,1.6929631233215332,0.5810684561729431,0.2354816198348999
1761397132639707100,3.23270703125,1.0999832153320312,-1.4567179679870605,0.1372879147529602
1761397132659097600,3.25209765625,0.36162158846855164,-1.654937982559204,-0.4909684956073761
1761397132678474200,3.27147412109375,-0.09926267713308334,-0.6413896083831787,-1.2707149982452393
1761397132697837600,3.290837646484375,-0.3245126008987427,0.47890424728393555,-1.3794457912445068
1761397132717228000,3.31022802734375,-0.24785128235816956,0.7846332788467407,-0.5880932211875916
1761397132736604700,3.329604736328125,-0.258999228477478,0.3972034156322479,0.36910444498062134
1761397132755968000,3.348968017578125,-0.3764346241950989,-0.009620844386518002,0.8220477104187012
1761397132775358500,3.3683583984375,-0.6397097706794739,-0.2990097403526306,0.5129590034484863
1761397132794735000,3.387735107421875,-0.9023740887641907,-0.14690876007080078,-0.09422318637371063
1761397132814098400,3.407098388671875,-0.8782456517219543,0.2680092453956604,-0.32313820719718933
1761397132833489000,3.426489013671875,-0.7438592314720154,0.2993151545524597,-0.1388150453567505
1761397132852865500,3.445865478515625,-0.73255854845047,-0.07360709458589554,0.0004581354442052543
1761397132872228900,3.465228759765625,-0.7786775231361389,-0.6583406329154968,0.1525591015815735
1761397132891619300,3.484619384765625,-0.825101912021637,-0.872137188911438,0.5231906771659851
1761397132910996200,3.503996337890625,-0.7771504521369934,-0.4784461259841919,0.6270347237586975
1761397132930359600,3.523359619140625,-0.3649812340736389,-0.49524441361427307,0.12400199472904205
1761397132949749800,3.542749755859375,-0.4193466305732727,-1.3566917181015015,-1.0576820373535156
1761397132969126700,3.562126708984375,-0.9284878373146057,-0.34757208824157715,-1.6111096143722534
1761397132988489700,3.58148974609375,-0.8026533126831055,0.9465078115463257,-1.0692881345748901
1761397133007880200,3.600880126953125,-0.051922015845775604,0.6404733657836914,-0.0853659063577652
1761397133027257000,3.620257080078125,0.27381229400634766,-0.23242738842964172,0.9190196990966797
1761397133046620400,3.639620361328125,0.08460234850645065,-1.2200146913528442,1.4461809396743774
1761397133066010600,3.6590107421875,0.15469707548618317,-2.001746416091919,1.0094250440597534
1761397133085387500,3.678387451171875,0.36009445786476135,-2.2092819213867188,0.3504736125469208
1761397133104750800,3.697750732421875,0.23319093883037567,-1.696628212928772,-0.19150061905384064
1761397133124141000,3.71714111328125,-0.14186927676200867,-0.7759287357330322,-0.8394568562507629
1761397133143518000,3.73651806640625,-0.40468630194664,0.1898207813501358,-1.4863440990447998
1761397133162881300,3.75588134765625,-0.5537330508232117,0.559841513633728,-1.8823258876800537
1761397133182271500,3.775271484375,-0.46210595965385437,0.37887802720069885,-1.6262280941009521
1761397133201648400,3.7946484375,-0.31000497937202454,-0.14141114056110382,-0.6849125027656555
1761397133221011700,3.81401171875,-0.3898732662200928,-0.8568660020828247,0.37231141328811646
1761397133240402000,3.83340185546875,-0.7893673777580261,-0.6065713167190552,0.6765133142471313
1761397133259778800,3.85277880859375,-0.9413156509399414,0.04428642615675926,0.47050508856773376
1761397133279142100,3.87214208984375,-0.7128587365150452,0.26663482189178467,0.003359660040587187
1761397133298532400,3.891532470703125,0.022601349279284477,0.4037700295448303,0.10796725004911423
1761397133317909200,3.9109091796875,0.38727715611457825,1.0410364866256714,0.06001574173569679
1761397133337272600,3.9302724609375,0.20661908388137817,0.5193728804588318,-1.3177502155303955
1761397133356662800,3.949662841796875,-0.6351284384727478,-1.466338872909546,-1.4203726053237915
1761397133376039700,3.969039794921875,-1.1245697736740112,-0.07635590434074402,-0.3423798978328705
1761397133395403000,3.988403076171875,-0.3252761662006378,1.1149489879608154,0.04062134400010109
1761397133414793200,4.007793212890625,-0.23685602843761444,0.11987877637147903,0.4683671295642853
1761397133434170000,4.027170166015625,-0.818840742111206,-1.232231616973877,0.6983511447906494
1761397133453533400,4.046533447265625,-0.9164236187934875,-1.486954927444458,0.02489202655851841
1761397133472924000,4.065923828125,-1.0366077423095703,-0.9112313985824585,-0.650094211101532
1761397133492300500,4.085300537109375,-1.3527212142944336,-0.6986565589904785,-0.6354338526725769
1761397133511663900,4.104663818359375,-1.550330400466919,-0.9732323884963989,-0.43446511030197144
1761397133531054300,4.124054443359375,-1.6845639944076538,-1.258650779724121,-0.15347537398338318
1761397133550431000,4.143430908203125,-1.6928104162216187,-1.0292776823043823,0.266176700592041
1761397133569794300,4.162794189453125,-1.4950486421585083,-0.48959407210350037,0.6378772258758545
1761397133589184800,4.182184814453125,-1.2555965185165405,-0.09071081876754761,0.7740961909294128
1761397133608561400,4.2015615234375,-1.1538904905319214,-0.10033166408538818,0.6772769093513489
1761397133627938300,4.220938232421875,-1.2762126922607422,-0.43477052450180054,0.48241662979125977
1761397133647315200,4.240315185546875,-1.4492350816726685,-0.6184828281402588,0.26495498418807983
1761397133666691800,4.25969189453125,-1.552315592765808,-0.5972558856010437,0.36605021357536316
1761397133686055200,4.27905517578125,-1.6233265399932861,-0.5729747414588928,0.8454126119613647
1761397133705445600,4.298445556640625,-1.5764440298080444,-0.540905237197876,0.9527690410614014
1761397133724822500,4.317822509765625,-1.3635637760162354,-0.5024218559265137,0.5541911721229553
1761397133744185900,4.337185791015625,-1.18046236038208,-1.260941505432129,-0.33321717381477356
1761397133763576000,4.356576171875,-1.0694408416748047,-1.1641221046447754,-0.8003626465797424
1761397133782953000,4.375952880859375,-1.0726478099822998,0.02626643143594265,-0.8874083757400513
1761397133802316000,4.39531591796875,-0.7163711190223694,0.874427855014801,-0.5780141949653625
1761397133821706500,4.41470654296875,-0.24220094084739685,0.6503996253013611,-0.13988402485847473
1761397133841083400,4.43408349609375,-0.23975755274295807,-0.1175880953669548,0
1761397133860446700,4.45344677734375,-0.3286358118057251,-0.4778352677822113,-0.4100312292575836
1761397133879837000,4.4728369140625,-0.37918344140052795,-0.08200624585151672,-0.9886562824249268
1761397133899213800,4.4922138671875,-0.6126797795295715,0.3202366828918457,-1.1740484237670898
1761397133918577200,4.5115771484375,-0.8968765139579773,0.2217375487089157,-0.8695410490036011
1761397133937967400,4.53096728515625,-1.1948171854019165,-0.2348707765340805,-0.28007346391677856
1761397133957344300,4.55034423828125,-1.4009782075881958,-0.5398362874984741,0.3277195692062378
1761397133976707600,4.56970751953125,-1.3539429903030396,-0.4712686538696289,0.8412894010543823
1761397133996097800,4.589097900390625,-1.1531269550323486,-0.14858859777450562,1.4052541255950928
1761397134015474700,4.608474609375,-1.0677610635757446,-0.24021568894386292,1.6303513050079346
1761397134034838000,4.627838134765625,-1.1213628053665161,-0.5674771070480347,1.2154333591461182
1761397134054228200,4.647228271484375,-1.0251544713974,-1.3791403770446777,0.42850935459136963
1761397134073605000,4.666605224609375,-0.7146912813186646,-2.5214247703552246,-0.3596363365650177
1761397134092968400,4.685968505859375,-0.3680354654788971,-2.736901044845581,-0.7137750387191772
1761397134112358700,4.705358642578125,-0.3924693763256073,-3.005215883255005,-1.3672288656234741
1761397134131735600,4.724735595703125,-0.638029932975769,-1.7351115942001343,-1.7140374183654785
1761397134151099000,4.744098876953125,-1.0944855213165283,1.0505045652389526,-0.980715274810791
1761397134170489000,4.763489013671875,-0.7143858671188354,1.322178840637207,-0.531742513179779
1761397134189866000,4.782865966796875,-0.3846810758113861,0.04703523963689804,-0.06749862432479858
1761397134209229300,4.802229248046875,-0.4856235682964325,-0.14782503247261047,0.33917292952537537
1761397134228619500,4.82161962890625,-0.5960342288017273,0.5937435626983643,0.17348061501979828
1761397134247996400,4.840996337890625,-0.645207405090332,0.917645275592804,-0.25258535146713257
1761397134267359700,4.86035986328125,-0.8640434741973877,0.6757497787475586,-0.2414373755455017
1761397134286750200,4.879750244140625,-1.1581664085388184,0.18722468614578247,0.033596597611904144
1761397134306126800,4.899126953125,-1.2044380903244019,-0.3477247953414917,0.35505497455596924
1761397134325490200,4.918490234375,-1.0227110385894775,-0.7614210844039917,0.8770239353179932
1761397134344880600,4.937880615234375,-0.9935430884361267,-1.143964171409607,1.3455437421798706
1761397134364257300,4.95725732421875,-1.164427638053894,-1.5825525522232056,1.2100883722305298
1761397134383620600,4.97662060546875,-1.3273711204528809,-1.8881288766860962,0.46134239435195923
1761397134403011000,4.996010986328125,-1.2126845121383667,-2.0350377559661865,-0.6229115128517151
1761397134422387700,5.0153876953125,-0.934290885925293,-1.8559067249298096,-1.5747642517089844
1761397134441751000,5.0347509765625,-0.9364288449287415,-1.1969552040100098,-1.6152328252792358
1761397134461141500,5.0541416015625,-1.2716312408447266,-0.23090025782585144,-0.9652913808822632
1761397134480518400,5.073518310546875,-1.22627592086792,-0.7149966955184937,-1.1798515319824219
1761397134499881500,5.092881591796875,-0.8939749598503113,-0.8652651309967041,-1.479777455329895
1761397134519272000,5.11227197265625,-0.4011739492416382,-0.09941539168357849,-0.5937435626983643
1761397134538648800,5.13164892578125,0.07070557028055191,-0.6470399498939514,0.6056550741195679
1761397134558012200,5.15101220703125,0.19959434866905212,-1.045770525932312,1.298966646194458
1761397134577402400,5.17040234375,-0.09651386737823486,-0.43415969610214233,0.8643488883972168
1761397134596779300,5.189779296875,-0.5169295072555542,0.28999972343444824,-0.06826218217611313
1761397134616142600,5.209142578125,-0.8846595287322998,0.34787750244140625,-0.3658975064754486
1761397134635532800,5.22853271484375,-1.0679137706756592,0.1701209545135498,0.013896775431931019
1761397134654909700,5.24790966796875,-1.0578347444534302,-0.3501681983470917,0.5694623589515686
1761397134674273000,5.26727294921875,-1.1578609943389893,-1.107618808746338,1.1005940437316895
1761397134693663200,5.286663330078125,-1.4649643898010254,-1.370893955230713,1.4831371307373047
1761397134713040100,5.3060400390625,-1.6676130294799805,-1.350888729095459,1.4675605297088623
1761397134732403500,5.325403564453125,-1.7068599462509155,-1.2723948955535889,0.9840749502182007
1761397134751793700,5.344793701171875,-1.6433318853378296,-1.2869024276733398,0.24632415175437927
1761397134771170600,5.364170654296875,-1.5962965488433838,-1.4255647659301758,-0.24632415175437927
1761397134790534000,5.383533935546875,-1.5136795043945312,-1.4527474641799927,-0.2848075330257416
1761397134809924000,5.402924072265625,-1.4006727933883667,-1.5907989740371704,-0.5996993184089661
1761397134829301000,5.422301025390625,-1.41762375831604,-1.233605980873108,-1.10364830493927
1761397134848664300,5.441664306640625,-0.9164236187934875,-1.6524945497512817,-1.558882236480713
1761397134868054500,5.461054443359375,-0.7452336549758911,-3.5419979095458984,-3.1250946521759033
1761397134887431400,5.480431396484375,-0.8997780084609985,-1.8635423183441162,-3.337974786758423
1761397134906794800,5.499794677734375,-0.5900784730911255,1.2652174234390259,-0.30633988976478577
1761397134926185000,5.51918505859375,-0.13927318155765533,1.462062954902649,2.3425991535186768
1761397134945561900,5.538561767578125,-0.010995250195264816,1.0256125926971436,3.1916768550872803
1761397134964925200,5.55792529296875,-0.30374380946159363,0.7831062078475952,2.2752532958984375
1761397134984315600,5.577315673828125,-0.8796200752258301,0.7632536292076111,0.48363831639289856
1761397135003692300,5.5966923828125,-1.5524682998657227,0.8171609044075012,-0.9772028923034668
1761397135023055600,5.6160556640625,-1.9527260065078735,0.8889354467391968,-1.5933951139450073
1761397135042445800,5.63544580078125,-1.9701350927352905,1.0920422077178955,-1.288735032081604
1761397135061822700,5.65482275390625,-1.6527999639511108,0.9677347540855408,-0.36131614446640015
1761397135081199600,5.67419970703125,-1.3062968254089355,0.09391776472330093,0.7072083950042725
1761397135100576500,5.693576416015625,-1.223679780960083,-1.2406307458877563,1.309045672416687
1761397135119953200,5.712953125,-1.2939271926879883,-2.3566486835479736,1.0567657947540283
1761397135139316500,5.73231640625,-1.2238324880599976,-2.8312771320343018,0.12659808993339539
1761397135158707000,5.75170703125,-1.0741748809814453,-2.3494713306427,-0.911384105682373
1761397135178083600,5.77108349609375,-1.2384928464889526,-0.9092461466789246,-1.0207257270812988
1761397135197447000,5.790447021484375,-1.424801230430603,0.1244601309299469,-0.07757759839296341
1761397135216837400,5.80983740234375,-1.3435585498809814,-1.149767279624939,-0.5160132050514221
1761397135236214000,5.829214111328125,-0.9828532338142395,-2.118112802505493,-1.3066022396087646
1761397135255577300,5.848577392578125,-0.47676628828048706,-1.4574815034866333,-0.7346965670585632
1761397135274967800,5.8679677734375,-0.07666133344173431,-0.6833853721618652,0.5862606763839722
1761397135294344700,5.8873447265625,-0.2376195788383484,-0.6285618543624878,1.346307396888733
1761397135313708000,5.9067080078125,-0.6236750483512878,-1.0392038822174072,1.068677306175232
1761397135333098200,5.92609814453125,-0.8203678727149963,-1.2719366550445557,0.25502872467041016
1761397135352475100,5.94547509765625,-0.8484668135643005,-0.9982771277427673,-0.46928340196609497
1761397135371838500,5.96483837890625,-0.9290986657142639,-0.6270347237586975,-0.8389987349510193
1761397135391228700,5.984228759765625,-1.1606098413467407,-0.44362783432006836,-0.746913492679596
1761397135410605600,6.00360546875,-1.350888729095459,-0.27472856640815735,-0.07742489129304886
1761397135429969000,6.022968994140625,-1.2870551347732544,-0.3286358118057251,0.719730794429779
1761397135449359000,6.042359130859375,-1.0848647356033325,-0.9242119193077087,0.9797990322113037
1761397135468736000,6.061736083984375,-1.0874608755111694,-1.5727789402008057,0.4485146105289459
1761397135488099300,6.081099365234375,-1.3255385160446167,-1.8623205423355103,-0.5661026835441589
1761397135507489500,6.100489501953125,-1.365243673324585,-1.077534556388855,-1.2320789098739624
1761397135526866400,6.119866455078125,-1.2284138202667236,-0.0662769302725792,-1.4481661319732666
1761397135546229800,6.139229736328125,-1.478097677230835,-0.5570927262306213,-1.8762173652648926
1761397135565620000,6.158619873046875,-1.364021897315979,-0.2238755226135254,-1.4347275495529175
1761397135584996900,6.177996826171875,-0.6265766024589539,0.492495596408844,0.05925218388438225
1761397135604360200,6.197360107421875,0.05360184609889984,-0.25594499707221985,1.088987946510315
1761397135623750400,6.21675048828125,0.284654825925827,-1.4805409908294678,1.0152281522750854
1761397135643127300,6.236127197265625,0.12323843687772751,-2.1249849796295166,-0.16095824539661407
1761397135662490600,6.25549072265625,-0.12140589207410812,-1.5174973011016846,-1.590951681137085
1761397135681880800,6.274880859375,-0.5522059202194214,-0.6594096422195435,-2.3760430812835693
1761397135701257700,6.2942578125,-0.9225320816040039,-0.3023693859577179,-1.9637212753295898
1761397135720621000,6.31362109375,-0.9524635672569275,-0.2586938142776489,-0.6485670804977417
1761397135740011500,6.333011474609375,-0.8189934492111206,-0.510515570640564,0.4159869849681854
1761397135759388200,6.35238818359375,-0.6534538269042969,-0.5679352283477783,1.0248489379882812
1761397135778751500,6.37175146484375,-0.6562026739120483,-0.21394924819469452,1.286138892173767
1761397135798142000,6.391141845703125,-1.035691499710083,0.02764083817601204,1.0063709020614624
1761397135817518600,6.4105185546875,-1.4225105047225952,0.2593046724796295,0.5717530250549316
1761397135836882000,6.4298818359375,-1.3487507104873657,0.3014531135559082,0.26968905329704285
1761397135856272400,6.4492724609375,-0.9940012097358704,-0.09009996801614761,0.18142163753509521
1761397135875649000,6.46864892578125,-0.8431219458580017,-0.19928891956806183,0.5958815217018127
1761397135895012400,6.488012451171875,-0.7863131165504456,0.010231691412627697,1.4645062685012817
1761397135914402800,6.50740283203125,-0.27442312240600586,-0.6449019908905029,1.6005725860595703
1761397135933779700,6.52677978515625,0.3665083646774292,-2.311598777770996,0.4656183123588562
1761397135953143000,6.54614306640625,0.5835118293762207,-4.0483903884887695,-1.2998830080032349
1761397135972533200,6.565533203125,0.21623992919921875,-3.4691543579101562,-2.1249849796295166
1761397135991910100,6.58491015625,-0.07528692483901978,-0.5065450668334961,-1.4718364477157593
1761397136011273200,6.604273193359375,0.48073679208755493,1.3985347747802734,-0.42240089178085327
1761397136030663700,6.62366357421875,0.7980719208717346,1.006523609161377,0.14095300436019897
1761397136050040600,6.64304052734375,0.23425991833209991,-0.31321191787719727,0.17057909071445465
1761397136069404000,6.66240380859375,-0.4590517282485962,-0.7482879161834717,-0.20585553348064423
1761397136088794000,6.681794189453125,-0.7340856790542603,-0.1122431829571724,-0.5694623589515686
1761397136108171000,6.7011708984375,-0.811357855796814,0.6267293095588684,-0.7246175408363342
1761397136127534300,6.720534423828125,-0.9413156509399414,0.9927794933319092,-0.4871506989002228
1761397136146924500,6.739924560546875,-1.1415208578109741,0.8926005363464355,0.0261137206107378
1761397136166301400,6.759301513671875,-1.3763915300369263,0.580763041973114,0.5383091568946838
1761397136185664800,6.778664794921875,-1.4921470880508423,0.4300364851951599,0.8582404255867004
1761397136205055000,6.798054931640625,-1.399909257888794,0.39078953862190247,0.8971819281578064
1761397136224431900,6.817431884765625,-1.368603229522705,0.3432961702346802,0.7310314774513245
1761397136243795200,6.836795166015625,-1.5060439109802246,0.2673983871936798,0.7383615970611572
1761397136263185400,6.856185302734375,-1.7520626783370972,-0.023975754156708717,1.0544750690460205
1761397136282562300,6.875562255859375,-1.6912833452224731,-0.2924431264400482,1.1839747428894043
1761397136301925600,6.894925537109375,-1.354095697402954,0.06749862432479858,1.1030374765396118
1761397136321315800,6.91431591796875,-1.0853228569030762,-0.23685602843761444,0.5653391480445862
1761397136340692700,6.933692626953125,-1.391204595565796,-2.011061906814575,-0.8614473342895508
1761397136360056000,6.95305615234375,-1.491536259651184,-1.802457571029663,-1.5161229372024536
1761397136379446500,6.972446533203125,-0.8441908955574036,0.8709154725074768,-0.5183038711547852
1761397136398823200,6.9918232421875,0.11483928561210632,2.2428784370422363,0.5410579442977905
1761397136418186500,7.0111865234375,0.631463348865509,1.2346750497817993,0.8994725942611694
1761397136437576700,7.03057666015625,0.31687700748443604,-0.8883246183395386,0.5984776020050049
1761397136456953600,7.04995361328125,-0.04703523963689804,-2.0237369537353516,-0.21791976690292358
1761397136476317000,7.06931689453125,0.02748812735080719,-1.6214940547943115,-1.0984560251235962
1761397136495707400,7.088707275390625,-0.07101099193096161,-0.5885513424873352,-1.5104725360870361
1761397136515084000,7.108083984375,-0.5149442553520203,0.2605263590812683,-1.261246919631958
1761397136534447400,7.127447265625,-0.8046385645866394,0.4856235682964325,-0.567018985748291
1761397136553837800,7.146837890625,-0.8689302206039429,0.17622943222522736,0.24510246515274048
1761397136573214700,7.166214599609375,-0.8761076927185059,-0.19302773475646973,0.8655705451965332
1761397136592577800,7.185577880859375,-1.0547804832458496,-0.4217900335788727,0.9455915689468384
1761397136611968300,7.20496826171875,-1.1813786029815674,-0.5341859459877014,0.5836645364761353
1761397136631345000,7.224344970703125,-1.207645058631897,-0.716829240322113,0.049173206090927124
1761397136650708200,7.243708251953125,-1.235133171081543,-1.1160179376602173,-0.3158080279827118
1761397136670098700,7.2630986328125,-1.2299410104751587,-1.2009257078170776,-0.29717719554901123
1761397136689475600,7.2824755859375,-1.2313153743743896,-1.0042328834533691,-0.0984991192817688
1761397136708839000,7.3018388671875,-1.0451596975326538,-1.543458342552185,0.0018325417768210173
1761397136728229000,7.32122900390625,-0.6951441764831543,-3.037590742111206,-0.42041563987731934
1761397136747606000,7.34060595703125,-0.5885513424873352,-3.329728364944458,-0.6943806409835815
1761397136766982700,7.359982666015625,-0.46760356426239014,-2.2751007080078125,-0.553274929523468
1761397136786359600,7.379359619140625,-0.14309096336364746,-1.5819417238235474,-0.8855758309364319
1761397136805736400,7.398736328125,0.3436015844345093,-1.4415994882583618,-1.2387982606887817
1761397136825099800,7.418099853515625,0.3898732662200928,-1.7709989547729492,-1.3878449201583862
1761397136844490000,7.437489990234375,0.0022906772792339325,-2.369629144668579,-1.6483713388442993
1761397136863867000,7.456866943359375,-0.41171106696128845,-2.3676440715789795,-1.9001930952072144
1761397136883230200,7.476230224609375,-0.47951510548591614,-1.4542746543884277,-1.5303250551223755
1761397136902620400,7.495620361328125,-0.45294323563575745,-0.17118994891643524,-0.7379034757614136
1761397136921997300,7.514997314453125,-0.6722373962402344,0.6548282504081726,-0.20051060616970062
1761397136941360600,7.534360595703125,-1.045770525932312,0.880994439125061,-0.013438640162348747
1761397136960750800,7.553750732421875,-1.466338872909546,0.5024218559265137,-0.060779303312301636
1761397136980127700,7.573127685546875,-1.725643515586853,-0.016340164467692375,-0.08032641559839249
1761397136999504600,7.592504638671875,-1.8030683994293213,-0.499673068523407,-0.0261137206107378
1761397137018881500,7.611881591796875,-1.7989451885223389,-1.2372710704803467,-0.13713520765304565
1761397137038258200,7.631258056640625,-1.771762490272522,-2.1976757049560547,-0.3348970115184784
1761397137057621500,7.65062158203125,-1.8409409523010254,-2.609081268310547,-0.24724042415618896
1761397137077011700,7.67001171875,-2.2784602642059326,-1.7354170083999634,0.1453816443681717
1761397137096388600,7.689388671875,-2.427506923675537,-0.7453863620758057,0.305576354265213
1761397137115752000,7.708751953125,-2.204547643661499,-0.8522846102714539,-0.06001574173569679
1761397137135142400,7.728142333984375,-1.9554747343063354,-1.1436587572097778,-0.2883199155330658
1761397137154519000,7.74751904296875,-1.6608936786651611,-0.6288672685623169,-0.4784461259841919
1761397137173882400,7.76688232421875,-1.4889402389526367,0.5462501645088196,-0.8180772066116333
1761397137193272800,7.78627294921875,-1.188708782196045,1.1977187395095825,-1.0853228569030762
1761397137212649500,7.8056494140625,-0.6146650314331055,0.9243646264076233,-1.0767710208892822
1761397137232026400,7.8250263671875,-0.13179029524326324,0.2667875289916992,-0.9469659924507141
1761397137251403300,7.8444033203125,0.12720894813537598,-0.27625566720962524,-0.8964183330535889
1761397137270780000,7.86377978515625,0.11178504675626755,-0.2886253297328949,-0.8693883419036865
1761397137290143200,7.883143310546875,-0.10094250738620758,0.1369825005531311,-0.7124006152153015
1761397137309533700,7.90253369140625,-0.34192174673080444,0.6694886088371277,-0.5476245880126953
1761397137328910600,7.92191064453125,-0.6449019908905029,0.6639909744262695,-0.5699204802513123
1761397137348274000,7.94127392578125,-0.9553651213645935,0.12110047042369843,-0.5951179265975952
1761397137367664000,7.9606640625,-1.0624160766601562,-0.49493899941444397,-0.40636613965034485
1761397137387041000,7.980041015625,-1.0046910047531128,-0.8712208867073059,-0.046577103435993195
1761397137406404400,7.999404296875,-0.8197570443153381,-0.9885035753250122,0.3533751368522644
1761397137425794600,8.018794677734375,-0.7223268747329712,-0.7760814428329468,0.6575770974159241
1761397137445171500,8.03817138671875,-0.7977665066719055,-1.2659809589385986,0.7945595979690552
1761397137464548000,8.057548095703124,-1.1314418315887451,-1.1697725057601929,1.161220669746399
1761397137483925000,8.076925048828125,-1.4385453462600708,-0.5390726923942566,1.3485980033874512
1761397137503302000,8.096302001953125,-1.552010178565979,-0.002748812548816204,1.203063726425171
1761397137522665200,8.115665283203125,-1.5407094955444336,0.43858832120895386,1.0972343683242798
1761397137542055400,8.135055419921875,-1.349361538887024,0.7157602906227112,1.354095697402954
1761397137561432300,8.154432373046875,-1.0619579553604126,0.5497625470161438,1.6686819791793823
1761397137580795600,8.173795654296875,-0.7574505805969238,-0.20157960057258606,1.7572548389434814
1761397137600185900,8.193185791015624,-0.4330907166004181,-1.2610942125320435,1.4435847997665405
1761397137619562800,8.212562744140625,-0.4718795120716095,-1.9128681421279907,0.3211529552936554
1761397137638926000,8.231926025390624,-0.6455128192901611,-1.187639832496643,-0.7502731680870056
1761397137658316300,8.25131640625,-0.6496360301971436,0.44637662172317505,-0.8742751479148865
1761397137677693200,8.270693115234375,-0.46699273586273193,1.71678626537323,-0.40483900904655457
1761397137697056500,8.290056396484376,-0.14339639246463776,1.5203988552093506,-0.3310792148113251
1761397137716446700,8.30944677734375,0.10842538625001907,0.28847262263298035,-0.5691569447517395
1761397137735823600,8.32882373046875,0.2017323076725006,-0.5222744345664978,-0.5978667736053467
1761397137755187000,8.34818701171875,0.10888352245092392,-0.43614494800567627,-0.6700994372367859
1761397137774577400,8.367577392578125,-0.17928366363048553,0.05100574716925621,-0.9984298348426819
1761397137793954000,8.3869541015625,-0.530062735080719,0.3961344361305237,-1.2006202936172485
1761397137813317400,8.4063173828125,-0.6783458590507507,0.5335750579833984,-0.9935430884361267
1761397137832707800,8.425707763671875,-0.520594596862793,0.4953971207141876,-0.41919392347335815
1761397137852084500,8.44508447265625,-0.29748260974884033,0.26128992438316345,0.10613471269607544
1761397137871447800,8.46444775390625,-0.279920756816864,0.14034216105937958,0.4874561131000519
1761397137890838300,8.48383837890625,-0.5044071078300476,-0.016187451779842377,0.7353073954582214
1761397137910215000,8.50321484375,-0.7133168578147888,0.029473381116986275,0.7600467205047607
1761397137929578200,8.522578125,-0.6983511447906494,0.2235700935125351,0.4883723855018616
1761397137948968700,8.54196875,-0.5535803437232971,0.1957765519618988,0.25472331047058105
1761397137968345600,8.561345703125,-0.40071579813957214,0.028251685202121735,0.18371231853961945
1761397137987709000,8.580708984375,-0.2279987335205078,-0.11483928561210632,0.23624517023563385
1761397138007099100,8.60009912109375,0.04046862944960594,-0.09834641218185425,0.5517477989196777
1761397138026476000,8.61947607421875,0.2713688910007477,-0.3184041380882263,1.0737167596817017
1761397138045839000,8.638839111328124,0.3124483823776245,-1.3476817607879639,0.8486195802688599
1761397138065229600,8.6582294921875,0.009773556143045425,-2.7269749641418457,0.004581354558467865
1761397138084606500,8.6776064453125,-0.7069029808044434,-2.3471806049346924,-0.7204943299293518
1761397138103969800,8.6969697265625,-0.8180772066116333,-1.0304993391036987,-1.107924222946167
1761397138123360000,8.716360107421876,-0.5706840753555298,-0.20035789906978607,-1.1355650424957275
1761397138142737000,8.73573681640625,-1.0422581434249878,-0.0781884491443634,-0.9242119193077087
1761397138162100200,8.755100341796876,-1.0810469388961792,-0.25625041127204895,-0.615428626537323
1761397138181490400,8.774490478515625,-0.5793886184692383,-0.4318690001964569,-0.5925218462944031
1761397138200867300,8.793867431640624,-0.23563432693481445,-0.5349494814872742,-0.6012263894081116
1761397138220230700,8.813230712890626,-0.3045073449611664,-0.22097399830818176,-0.672695517539978
1761397138239620900,8.832620849609375,-0.5334223508834839,0.270452618598938,-0.7383615970611572
1761397138258997800,8.851997802734376,-0.41980478167533875,0.49173203110694885,-0.5360184907913208
1761397138278361000,8.871361083984375,-0.09483403712511063,0.4637857675552368,-0.16996824741363525
1761397138297751300,8.890751220703125,0.18279604613780975,0.4220954477787018,0.22021043300628662
1761397138317128200,8.910128173828125,0.07742489129304886,0.45508119463920593,0.46302223205566406
1761397138336491500,8.929491455078125,-0.2892361879348755,0.5473191738128662,0.46989426016807556
1761397138355881700,8.9488818359375,-0.5558710098266602,0.4187358021736145,0.41201648116111755
1761397138375258600,8.968258544921875,-0.4627167880535126,0.0716218426823616,0.4002576768398285
1761397138394635500,8.987635498046876,-0.11361759155988693,-0.14186927676200867,0.5980194807052612
1761397138414012400,9.007012451171875,-0.2113531529903412,-0.2148655205965042,0.5441122055053711
1761397138433389000,9.02638916015625,-0.6578825116157532,-0.007177455350756645,0.22662433981895447
1761397138452752400,9.04575244140625,-0.7452336549758911,0.13942588865756989,0.05864133685827255
1761397138472142600,9.065142578125,-0.48012593388557434,0.0910162404179573,0.279920756816864
1761397138491519500,9.08451953125,-0.3038965165615082,-0.1889045089483261,0.5551074743270874
1761397138510882800,9.1038828125,-0.26434415578842163,-0.8962656259536743,0.5338805317878723
1761397138530273300,9.123273193359376,-0.4366030693054199,-0.9756757616996765,0.291374146938324
1761397138549650000,9.14264990234375,-0.5233433842658997,0.2492256760597229,-0.07391251623630524
1761397138569013200,9.16201318359375,-0.07543963938951492,0.9686510562896729,-0.07635590434074402
1761397138588403700,9.18140380859375,0.3174878656864166,0.38788801431655884,0.02473931387066841
1761397138607780400,9.2007802734375,0.26724568009376526,-0.41323816776275635,-0.07757759839296341
1761397138627143700,9.220143798828126,-0.01695101149380207,-0.760657548904419,-0.4659237563610077
1761397138646534100,9.2395341796875,-0.018783552572131157,-0.6679614782333374,-0.823116660118103
1761397138665910800,9.258910888671876,0.10094250738620758,-0.6230642199516296,-1.080436110496521
1761397138685274000,9.278274169921875,0.009620844386518002,-0.5132644176483154,-1.1570974588394165
1761397138704664600,9.29766455078125,-0.14675605297088623,-0.26251161098480225,-0.8533536195755005
1761397138724041500,9.31704150390625,-0.16309621930122375,-0.06810946762561798,-0.2779355049133301
1761397138743404800,9.33640478515625,-0.1719534993171692,0.0590994730591774,0.2241809368133545
1761397138762795000,9.355794921875,-0.13591352105140686,0.11865708231925964,0.525175929069519
1761397138782172000,9.375171875,-0.010995250195264816,0.21791976690292358,0.6371136903762817
1761397138801535200,9.39453515625,0.02214321307837963,0.2924431264400482,0.6074876189231873
1761397138820925400,9.413925537109375,-0.04092676565051079,0.23090025782585144,0.5859552621841431
1761397138840302300,9.43330224609375,-0.09391776472330093,0.15591876208782196,0.6375718116760254
1761397138859665700,9.452665771484375,-0.23777230083942413,0.017714571207761765,0.6536065936088562
1761397138879056000,9.472055908203124,-0.3915531039237976,-0.1898207813501358,0.38452833890914917
1761397138898432800,9.491432861328125,-0.2886253297328949,-0.17592400312423706,0.09330692142248154
1761397138917796000,9.510796142578124,-0.037414394319057465,-0.22647161781787872,0.11147962510585785
1761397138937186300,9.530186279296874,0.28786176443099976,-0.7032378911972046,0.1695101112127304
1761397138956563200,9.549563232421875,0.12995775043964386,-2.2401297092437744,-0.33627140522003174
1761397138975926500,9.568926513671874,-0.49738237261772156,-3.1202077865600586,-0.9823951125144958
1761397138995316700,9.588316650390626,-0.728282630443573,-1.2462811470031738,-0.9246700406074524
1761397139014693600,9.607693603515624,-0.17363333702087402,0.8448017835617065,-0.4975350797176361
1761397139034057000,9.627056884765626,0.42606595158576965,0.8919897079467773,-0.2707580327987671
1761397139053447200,9.646447265625,0.51341712474823,0.3692571818828583,-0.007330167107284069
1761397139072824000,9.665823974609374,0.1882936656475067,0.21089501678943634,0.03176405653357506
1761397139092187400,9.6851875,-0.024433890357613564,0.44988900423049927,-0.24662958085536957
1761397139111577600,9.70457763671875,0.12659808993339539,0.7553126215934753,-0.4411844313144684
1761397139130954500,9.72395458984375,0.3046600818634033,0.7064448595046997,-0.5163186192512512
1761397139150317800,9.74331787109375,0.14904673397541046,0.38132140040397644,-0.448361873626709
1761397139169708300,9.762708251953125,-0.0844496339559555,0.04107947647571564,-0.11743538826704025
1761397139189085000,9.7820849609375,-0.07559234648942947,-0.15179555118083954,0.3868190348148346
1761397139208448300,9.8014482421875,0.038636088371276855,-0.20570281147956848,0.8000571727752686
1761397139227838700,9.820838623046875,0.11560284346342087,-0.2498365342617035,0.9721634387969971
1761397139247215400,9.84021533203125,0.10201149433851242,-0.293664813041687,0.9718579649925232
1761397139266592300,9.85959228515625,-0.16080553829669952,-0.5570927262306213,0.700794517993927
1761397139285969200,9.87896923828125,-0.24815669655799866,-0.9190196990966797,0.14858859777450562
1761397139305345800,9.898345703125,-0.09330692142248154,-1.2530004978179932,-0.4450022280216217
1761397139324709000,9.917709228515625,-0.20875705778598785,-1.0181297063827515,-0.8121214509010315
1761397139344099600,9.937099609375,-0.4903576374053955,-0.0522274412214756,-0.6296308040618896
1761397139363476500,9.9564765625,-0.5610632300376892,-0.06658235192298889,-0.12644538283348083
1761397139382839800,9.97583984375,-0.5774033665657043,-1.28018319606781,-0.1453816443681717
1761397139402230000,9.99522998046875,-0.4631749391555786,-1.0645540952682495,-0.6795675754547119
1761397139421606700,10.014606689453124,0.05024218559265137,0.22127941250801086,-0.48516544699668884
1761397139440970200,10.03397021484375,0.5202891230583191,0.5453338623046875,0.12278030067682266
1761397139460360400,10.0533603515625,0.5920637249946594,0.30756160616874695,0.6577298045158386
1761397139479737300,10.0727373046875,0.31596073508262634,0.03771981969475746,0.7304205894470215
1761397139499100700,10.0921005859375,-0.20677179098129272,0.11438114941120148,0.25808295607566833
1761397139518491000,10.111490966796875,-0.5925218462944031,0.4963133931159973,-0.47172680497169495
1761397139537867800,10.13086767578125,-0.5813738703727722,0.6244385838508606,-0.848314106464386
1761397139557231000,10.150231201171875,-0.3483356535434723,0.3849864900112152,-0.666128933429718
1761397139576621300,10.169621337890625,-0.2579302489757538,0.1322484314441681,-0.37444937229156494
1761397139595998200,10.188998291015626,-0.2548760175704956,0.15378080308437347,-0.060779303312301636
1761397139615361500,10.208361572265625,-0.28938889503479004,0.34604495763778687,0.1776038408279419
1761397139634751700,10.227751708984375,-0.3239017724990845,0.5717530250549316,0.24449162185192108
1761397139654128600,10.247128662109375,-0.27029991149902344,0.43354883790016174,0.28373855352401733
1761397139673505500,10.266505615234376,-0.2588465213775635,0.04688252881169319,0.372464120388031
1761397139692882200,10.285882080078125,-0.399952232837677,-0.14721418917179108,0.49616068601608276
1761397139712259000,10.305259033203125,-0.5202891230583191,-0.17317520081996918,0.6644490957260132
1761397139731622400,10.324622314453125,-0.36543938517570496,-0.34665581583976746,0.9419264793395996
1761397139751012600,10.3440126953125,0.08521319180727005,-0.2313583940267563,1.1085350513458252
1761397139770389500,10.363389404296875,0.31626617908477783,0.2608317732810974,1.2247487306594849
1761397139789752800,10.3827529296875,0.09422318637371063,-0.4987567961215973,0.3301629424095154
1761397139809143000,10.40214306640625,0.11346487700939178,-1.0488247871398926,-1.6486767530441284
1761397139828520000,10.42152001953125,0.4088095426559448,0.4011739492416382,-2.5276858806610107
1761397139847883300,10.44088330078125,0.45523393154144287,0.7177455425262451,-1.3059914112091064
1761397139867273700,10.460273681640626,0.3874298632144928,-0.7653915882110596,0.19287502765655518
1761397139886650400,10.479650390625,0.37261682748794556,-1.1089931726455688,0.2476985603570938
1761397139906027300,10.49902734375,0.14751961827278137,-0.3626905679702759,-0.6545228362083435
1761397139925404200,10.518404052734375,0.2548760175704956,0.2501419484615326,-0.9831586480140686
1761397139944780800,10.53778076171875,0.5118899941444397,-0.014813045971095562,-0.5992411375045776
1761397139964144000,10.55714404296875,0.19974705576896667,-0.22708246111869812,-0.07177454978227615
1761397139983534600,10.57653466796875,-0.4940227270126343,-0.35658207535743713,-0.12461283802986145
1761397140002911200,10.5959111328125,-0.5957288146018982,-0.3292466700077057,-0.1253764033317566
1761397140022274600,10.615274658203125,-0.15897299349308014,0.056808795779943466,0.21120044589042664
1761397140041665000,10.6346650390625,0.15271180868148804,0.02351761981844902,0.4262186884880066
1761397140061041700,10.654041748046875,0.04428642615675926,0.0331384651362896,0.22876229882240295
1761397140080418600,10.67341845703125,-0.16767756640911102,0.10750912129878998,0.13484452664852142
1761397140099795500,10.69279541015625,-0.23334364593029022,0.14996300637722015,0.4002576768398285
1761397140119172400,10.71217236328125,-0.27808821201324463,0.4506525695323944,0.5992411375045776
1761397140138549000,10.731549072265626,-0.27029991149902344,0.49646610021591187,0.8561024069786072
1761397140157926000,10.75092578125,-0.2736595869064331,0.41232189536094666,1.155417561531067
1761397140177302800,10.770302734375,-0.45416492223739624,0.4534013867378235,1.2284138202667236
1761397140196666000,10.789666015625,-0.48959407210350037,0.15714046359062195,1.3620367050170898
1761397140216056300,10.809056396484374,-0.4859289824962616,-0.14965757727622986,1.3559281826019287
1761397140235433200,10.82843310546875,-0.7507312893867493,-0.4691306948661804,1.0862390995025635
1761397140254796500,10.847796630859374,-1.0085088014602661,-0.41171106696128845,0.38162681460380554
1761397140274186800,10.867186767578126,-1.0702043771743774,0.08231166750192642,-0.5496098399162292
1761397140293563600,10.886563720703125,-1.0495883226394653,-0.14431266486644745,-1.5628527402877808
1761397140312927000,10.905927001953126,-0.6126797795295715,-0.6116108298301697,-1.2490298748016357
1761397140332317200,10.925317138671875,-0.4819584786891937,-0.4727957844734192,0.3106158375740051
1761397140351694000,10.944694091796874,-0.8441908955574036,-0.41858309507369995,1.1123528480529785
1761397140371057400,10.964057373046876,-0.6989619731903076,-0.38666632771492004,0.8646543025970459
