time,seconds_elapsed,z,y,x
1761299737248773600,0.074773681640625,-0.8474842593312263,-1.4831956535071134,1.4720938292562962
1761299737268895700,0.094895751953125,-0.6419032345533371,-0.4872305592358112,2.7558132046014068
1761299737289017600,0.115017578125,-1.6966899356275795,-1.0083943677335976,1.9755489625841378
1761299737309138400,0.135138427734375,-2.0767413921266793,-1.2721721454143524,0.8975527969665825
1761299737329260500,0.155260498046875,-1.242679508948326,-2.0501047296136616,0.8695813787184655
1761299737349381600,0.175381591796875,-0.9773159233808517,-2.3254227229624984,2.072541894610226
1761299737369503500,0.19550341796875,-2.532158178472519,-1.3918459880650043,2.5584546492457387
1761299737389625600,0.21562548828125,-5.079246799573302,-0.33061142602562904,2.0511042620450257
1761299737409746700,0.23574658203125,-4.949864632856846,0.4569166695147753,1.1004540080759673
1761299737429868800,0.255868896484375,-1.2910907808959484,0.3857458687484264,1.3861924923479556
1761299737449989600,0.27598974609375,1.5250684635967016,-0.06742459997534751,1.0869614162310957
1761299737470111500,0.296111572265625,2.2311136231929063,-0.20053134017288685,0.9902165406819432
1761299737490233600,0.316233642578125,1.0890461135506628,0.05640577783286571,0.9557781914420426
1761299737510354400,0.3363544921875,0.5318459460318088,0.11217851845920085,0.3633201019287109
1761299737530476500,0.3564765625,0.5929033490628004,-0.056877486997842785,-0.25716325491182507
1761299737550597600,0.37659765625,-0.22253274410068988,0.0014811784684658049,-0.6033349093692377
1761299737570719500,0.396719482421875,-0.9014613487124442,0.6850918034166097,-0.31109091566074637
1761299737590841600,0.416841552734375,-0.9565607201218604,1.232092063960433,0.6037414078108966
1761299737610962700,0.436962646484375,0.6103314537256955,1.8158435537964104,1.0879119218889624
1761299737631084800,0.457084716796875,2.0852081916987895,1.8712983145147561,1.1513441642925142
1761299737651206100,0.4772060546875,3.237932119911909,1.9108213466078041,0.728927291881293
1761299737671328000,0.497327880859375,3.0316239499032496,2.0266677399247883,0.5399647358838469
1761299737691448800,0.51744873046875,2.1134476132333275,2.2354718184024094,0.6102423141375184
1761299737711571000,0.537571044921875,2.2997172038197515,2.3788380868077277,0.5741227338124066
1761299737731693000,0.557693115234375,1.623774921542406,1.8349118268817661,0.2569508542701602
1761299737751814000,0.57781396484375,0.45149522898793215,1.7402946840763092,-0.4649619557391852
1761299737771936000,0.59793603515625,0.1738414861679077,1.5764900232762098,-0.9377509518422186
1761299737792057000,0.61805712890625,-0.2908446483045816,1.5462439380943773,-0.8845938005417585
1761299737812179200,0.63817919921875,-1.4550082544207572,1.5602625265747307,-1.1558528738886118
1761299737832300800,0.65830078125,-2.2481506827116013,1.5642928050041198,-1.604728714158386
1761299737852422000,0.678421875,-2.004063109406829,1.26063192974627,-1.994851336686313
1761299737872544000,0.6985439453125,-0.2901327006429434,0.767360336780548,-2.2749020576454697
1761299737892664800,0.718664794921875,0.8209042954415082,-0.12237491830289363,-2.379418663174659
1761299737912787000,0.738786865234375,0.7530074017792939,-0.6373106460660696,-2.705178411385417
1761299737932909000,0.758908935546875,-0.7162152559548616,-0.8928396508395672,-2.8186370327830312
1761299737953030000,0.77902978515625,-2.9776901151418684,-0.5114125220730901,-2.6889070755422115
1761299737973152000,0.799152099609375,-4.438022779455781,0.13198971886634825,-1.7533344906523822
1761299737993273000,0.819273193359375,-3.534401037839055,0.3383466964527964,-0.6985849067181349
1761299738013395000,0.83939501953125,-1.5338257705479859,-0.08537818981707096,-0.44258769991099833
1761299738033516800,0.859516845703125,-0.2960691049546003,-0.48035979668349027,-0.8869694436319172
1761299738053638000,0.879637939453125,0.04406885882914066,-0.67134618665874,-1.2349310867786407
1761299738073760000,0.899760009765625,-0.10198153409361839,-0.6401008613064885,-1.002083431021124
1761299738093880800,0.919880859375,0.10095569817721843,-0.6904091990470885,-0.9861417655237018
1761299738114003000,0.9400029296875,0.6777776810109615,-0.7992375302955508,-1.2716066204860805
1761299738134125000,0.960125,1.326159171667695,-0.7292983171507715,-0.7782302519716322
1761299738154246100,0.98024609375,1.6244021135300397,-0.473489618653059,-0.17752265889868138
1761299738174368000,1.000367919921875,2.463385671019554,-0.3987418361827731,0.1625254711771384
1761299738194489000,1.020489013671875,2.6073089887857437,-0.5640510563269258,0.5704073665510863
1761299738214611000,1.04061083984375,2.2040672108352184,-0.48217649071663615,0.9456676432508975
1761299738234732800,1.06073291015625,2.1119746180713177,-0.6159992702290416,0.9610390345796942
1761299738254854000,1.08085400390625,1.8074235159754752,-0.7178191840201615,0.752518376153335
1761299738274976000,1.10097607421875,0.7323924837738275,-0.753894998268783,0.3644290860839188
1761299738295096800,1.121096923828125,-0.3135585844159126,-0.8737894979327917,-0.1645413045115769
1761299738315219000,1.141218994140625,-0.524512534403801,-0.8063485313445329,-0.31285321262553334
1761299738335341000,1.161341064453125,0.3285071472227573,-0.8781739966273308,0.5655062235713004
1761299738355462100,1.181462158203125,1.058750928530097,-0.782823278850317,1.4761591789990662
1761299738375584000,1.201583984375,0.7692606174439192,-0.9365914065435528,1.3295401924081145
1761299738395705000,1.221705078125,0.040806057640910144,-1.083586971361935,0.4407069276656955
1761299738415827000,1.241826904296875,-0.6829086141586304,-1.0790163024455308,-0.2019108848977834
1761299738435949000,1.261948974609375,-1.1130647025197744,-1.1976631401360034,0.07668781062215566
1761299738456070000,1.28206982421875,-1.5375269631534814,-1.998743960210681,-0.330837380268611
1761299738476192000,1.30219189453125,-3.4984155322223898,-2.0076324923262,-1.2226888603210448
1761299738496312800,1.322312744140625,-5.79628973852396,-0.9410124378561973,-1.2380381128832698
1761299738516435000,1.34243505859375,-5.30336710512638,-0.16886720488667487,0.034692104805260894
1761299738536557000,1.36255712890625,-2.566931970211863,-0.18894407049268483,1.0190316432125865
1761299738556678100,1.38267822265625,-0.38078210886120795,-0.12614946840554475,1.3808498161457479
1761299738576799700,1.4027998046875,0.9618822074055671,-0.44863545564264057,0.6222548234924674
1761299738596921000,1.422921142578125,1.549547655814886,-0.7798439707785845,-0.2739918775779195
1761299738617043000,1.44304296875,1.3109306228756903,-0.8925313155427574,-0.4596646165160462
1761299738637164500,1.46316455078125,0.792782362806797,-0.6442872070804238,-0.16375017240019515
1761299738657285400,1.483285400390625,0.1568751537978649,-0.4054793277442455,0.19670385430660098
1761299738677407500,1.503407470703125,-0.7158534369051456,0.07180033084154129,0.23202830219864845
1761299738697528600,1.523528564453125,-1.0899340023010968,0.49065147359520195,0.11611253343988209
1761299738717650400,1.543650390625,-0.5667816503345966,0.7819400662750006,-0.29903080430440604
1761299738737772500,1.5637724609375,0.9585124387115239,1.0566522026851772,-0.6449509316861629
1761299738757893600,1.5838935546875,2.0947750614672898,1.0352768217012285,-0.547669757303223
1761299738778015500,1.604015380859375,2.3515900143980977,1.333024381262064,-0.31917982183117416
1761299738798136600,1.624136474609375,1.9743220511376856,1.5562702420681713,-0.5910028126711026
1761299738818258400,1.644258544921875,0.8187696215003728,1.5872855580568312,-0.8460941201470792
1761299738838380500,1.664380615234375,-0.2323094572275877,2.0109961235404015,-1.7608150556661188
1761299738858501400,1.68450146484375,0.8043892139703035,2.1788953601777554,-1.3762234715193509
1761299738878623500,1.70462353515625,1.832937311938405,1.909083563029766,-0.18446363714300096
1761299738898744600,1.72474462890625,1.7430109572976826,1.9049217671751975,0.28544209514129903
1761299738918866700,1.74486669921875,0.5244488215178251,1.9226994159281252,-0.7101521565236151
1761299738938988500,1.764988525390625,-0.20166239002943037,1.7904969310939312,-1.176002950861305
1761299738959109600,1.785109619140625,-0.13505904330909252,1.415660578894615,-1.3524521353095769
1761299738979231500,1.8052314453125,-0.24548691870868206,1.1545809542566536,-1.4263741344802081
1761299738999352600,1.8253525390625,-0.14559095871746539,0.8077794409304857,-1.2562062222585082
1761299739019474400,1.845474365234375,-0.23830957442522047,0.22197218760848045,-1.408526781491935
1761299739039596500,1.865596435546875,-0.6018553018033505,-0.1629211559638381,-1.5239472044818103
1761299739059717400,1.88571728515625,-1.7649387114673851,-0.35259529429674147,-2.091292772309482
1761299739079839500,1.905839599609375,-2.853053097125888,-0.2738087578296661,-2.4694065387442707
1761299739099960600,1.925960693359375,-2.7679028708457944,-0.04522328956127167,-2.465067632757127
1761299739120082700,1.946082763671875,-1.8508534923791884,0.002823240727186203,-1.648854563871771
1761299739140204500,1.96620458984375,-1.5291139395952225,0.041833062601089474,-1.111653739743307
1761299739160325600,1.98632568359375,-1.2357424031615256,-0.25920740102529527,-1.8591757689140735
1761299739180447500,2.006447509765625,-0.34969548120200633,-0.4184668196111917,-2.7245450828954576
1761299739200568300,2.026568359375,0.5595692347377539,-0.19948972216546534,-2.5661919654995202
1761299739220690400,2.0466904296875,0.9271312120199203,0.07696107460558414,-1.903059772695601
1761299739240812500,2.0668125,0.3856581904649734,0.16413725375533103,-1.0987529763117432
1761299739260933400,2.086933349609375,-0.14159750516712666,0.37940234494060276,-0.7284099900089204
1761299739281055500,2.107055419921875,0.6985404830545187,0.35378450408130885,-0.22683440508367492
1761299739301176600,2.127176513671875,2.306596441939473,0.16700258005857466,0.15798574538826943
1761299739321298700,2.147298583984375,3.277240632471442,-0.004786942015588283,0.08203284317823127
1761299739341420300,2.167420166015625,3.7166017715513706,0.06545622251182794,0.4112777118247002
1761299739361541600,2.187541748046875,3.397244729989767,-0.359850964513421,0.7936495740953833
1761299739381663500,2.20766357421875,2.489533088710904,-0.5897405011177063,1.052033018451929
1761299739401784300,2.227784423828125,2.0345745675265787,-1.0507818493470549,0.8333945783760398
1761299739421906400,2.247906494140625,1.5838427241265773,-1.4100281259655951,0.5786984442301094
1761299739442028500,2.268028564453125,0.19259236386716364,-1.50657974396497,0.12002390733049251
1761299739462149600,2.288149658203125,-0.8360562718659639,-1.60656279771775,0.44119602635689076
1761299739482271500,2.308271484375,-1.3551532109618185,-1.5229165462598204,1.2721410196237266
1761299739502392600,2.328392578125,-1.447459154215455,-1.4814628383651376,1.5136619573108852
1761299739522514700,2.3485146484375,-1.664109270018339,-1.3874173579677938,0.9379569958083331
1761299739542636500,2.368636474609375,-1.2589701340138912,-1.2367162166297434,0.2047577987615019
1761299739562757400,2.38875732421875,-0.340893166065216,-1.7465785866513848,-0.11217455467013641
1761299739582879500,2.40887939453125,-1.319650520426035,-2.051694921414554,-0.46457682887911794
1761299739603000300,2.429000244140625,-3.542947916910052,-1.2659370504170655,-0.018587677361024544
1761299739623122400,2.449122314453125,-5.226979446494579,-0.2784030998826027,0.18963676546458152
1761299739643244500,2.46924462890625,-4.656247597229481,0.6304647256940603,0.2612440214194357
1761299739663365400,2.489365478515625,-1.7485171534985302,0.4794736614987254,0.22876133629195392
1761299739683487500,2.509487548828125,0.8079957140296697,0.2532569681882858,0.2276806283831596
1761299739703608600,2.529608642578125,1.7083336116701364,0.07543430342972278,0.6158792971111834
1761299739723730700,2.549730712890625,1.50632810729146,0.08214812185466289,0.005177402637898921
1761299739743852300,2.569852294921875,0.915384075602889,0.1456011878505349,-1.0621608100388198
1761299739763973400,2.589973388671875,0.42271746279299255,-0.05084142170399427,-2.2004348456822336
1761299739784095500,2.610095458984375,-0.605129208907485,0.004569792133569717,-3.0788030497074126
1761299739804216300,2.63021630859375,-0.9487690433323382,0.3011214199081063,-2.70694483653605
1761299739824338400,2.65033837890625,-0.28467969593405723,0.7549652578487992,-1.404561969514191
1761299739844460500,2.67046044921875,0.45301732398867606,0.8852174853980541,-0.5409628800757229
1761299739864581600,2.69058154296875,1.500856397882104,0.8119643253996968,-0.20500981902750207
1761299739884703500,2.710703369140625,2.083126124727726,0.9030766749545931,-0.13361290875454432
1761299739904824600,2.730824462890625,2.0028776990145443,1.0567594624519348,-0.3178861652914434
1761299739924946400,2.750946533203125,2.0630016205877064,1.1033423499286175,-0.9378918216176331
1761299739945068300,2.771068359375,2.0612562382251025,1.0135957357689738,-1.4804766038067638
1761299739965189400,2.791189453125,1.5448229653805494,1.4011182588011026,-1.1877939264200628
1761299739985311500,2.8113115234375,0.8562380591511726,1.8989497070282697,-0.36143947581388053
1761299740005433600,2.83143359375,0.8232885602295398,1.9853712684184313,-0.5113478228064253
1761299740025554400,2.851554443359375,1.2328805839896202,1.9469757790505884,-0.8158076298896223
1761299740045676500,2.871676513671875,1.7178145567208527,1.8808394653201101,-1.0832065206769854
1761299740065797600,2.891797607421875,1.8775170428991317,1.5351409447997808,-0.878344603953883
1761299740085919500,2.91191943359375,1.2833417742043733,1.4981085604786872,-0.28200258567929265
1761299740106040600,2.93204052734375,0.2262877127200365,1.0634151209488512,-0.5306758793391287
1761299740126162400,2.952162353515625,-1.8905945511370896,0.6066106796368956,-1.2303351372905076
1761299740146284500,2.972284423828125,-4.432855021429062,0.3818324946969747,-2.1926310400635
1761299740166405400,2.9924052734375,-5.075336348131299,0.3227478530436754,-2.824874173606932
1761299740186527500,3.012527587890625,-4.02818993267715,-0.10650514899790287,-2.564319741886854
1761299740206649600,3.032649658203125,-3.6706963449448344,0.4363841690957546,-1.252722764056921
1761299740226770400,3.0527705078125,-3.348405003497004,0.48210488678514957,-0.9892058292694389
1761299740246892500,3.072892578125,-2.161533891010284,0.30215602365285155,-1.5742754159666597
1761299740267013600,3.093013671875,-1.2148895847469567,-0.2668070623740554,-2.0262122512422502
1761299740287135500,3.113135498046875,-0.8826280534267426,-0.9745809454590082,-3.5533924462959168
1761299740307257300,3.13325732421875,-0.2966442744940519,-1.238387949234247,-3.9301404773354527
1761299740327378400,3.15337841796875,0.4798825345605611,-1.1271613246724008,-2.8134382950961587
1761299740347500500,3.17350048828125,0.8455927464962005,-0.5960410625666379,-1.4921043516278265
1761299740367621400,3.193621337890625,0.7896721218317747,-0.22461393428891896,-0.9869762435864656
1761299740387743500,3.213743408203125,1.2358990550279616,-0.16252280429601668,-1.124107051668316
1761299740407865600,3.233865478515625,2.5427485460698604,-0.1985720227986574,-1.181504470887035
1761299740427986400,3.253986328125,3.722192138904333,-0.22097703909128902,-0.8389798311624675
1761299740448108500,3.274108642578125,4.204830694174766,-0.0906874021410942,-0.3266358003929257
1761299740468229600,3.294229736328125,3.7844524879842996,-0.2585053902357817,0.21373550699781627
1761299740488351500,3.3143515625,2.4175796131342646,-0.11790069549828767,0.4844137482494116
1761299740508473300,3.334473388671875,1.3646908546358345,-0.30250089156776666,0.44398452456425874
1761299740528594400,3.354594482421875,0.8905074084997177,-0.6417021590232849,0.37737226388510314
1761299740548716500,3.374716552734375,0.6575403641462325,-0.7786760960429906,1.0048234504442661
1761299740568837400,3.39483740234375,0.6909416984885931,-1.2250520823210478,1.8192057237058876
1761299740588959500,3.41495947265625,-0.6125064596772194,-1.5705597564443945,1.780779400808364
1761299740609081600,3.43508154296875,-2.177670202296972,-1.7434563629776239,1.1471542383220046
1761299740629203200,3.455203125,-1.6218442457407711,-1.8333143285572528,0.9229298878725618
1761299740649324800,3.47532470703125,-0.24431553684175014,-2.215902902318537,0.21241719094086436
1761299740669446000,3.49544580078125,-0.7954413528829812,-2.8868527831360695,-0.09113185797296464
1761299740689568000,3.515568115234375,-2.743410819146037,-2.8693747018516063,0.08400596988210454
1761299740709689900,3.53568994140625,-3.93083547386229,-2.149436625981331,0.2760858541824855
1761299740729811000,3.55581103515625,-4.087772586980462,-0.9458876426771282,0.02850826507117599
1761299740749933000,3.57593310546875,-2.869077180209756,-0.013642156383395195,-1.0775887538604438
1761299740770054000,3.596053955078125,-1.3994886117726564,0.07751315553039312,-1.6004693031482398
1761299740790176000,3.616176025390625,-1.0080682045191527,0.8817313968479633,-1.2960304292552172
1761299740810297900,3.6362978515625,0.4874702132105827,0.6088400461241602,-0.8442208736211061
1761299740830419000,3.6564189453125,1.545536082085967,0.47516778099834917,-0.8350286093186586
1761299740850540800,3.676540771484375,1.0628162782728672,0.26168168218433857,-1.513762056684494
1761299740870662000,3.696661865234375,-0.13483283333778381,0.08427110535800457,-2.414528847261518
1761299740890784000,3.716783935546875,-1.0298778852671384,0.26431056938320396,-2.235603043566644
1761299740910906000,3.736906005859375,-1.1949965512752532,0.6434264985978603,-1.6172895050458609
1761299740931027000,3.75702685546875,-0.27974107048809527,0.8642775732219219,-1.135849950301647
1761299740951149000,3.777149169921875,0.6957792016476392,1.1295724774673581,-0.35019378611296414
1761299740971270100,3.797270263671875,1.554597924941778,1.187621054071188,0.01372778884023428
1761299740991392000,3.81739208984375,2.2027841852873564,1.2610235594123602,0.023737981929443774
1761299741011513900,3.837513916015625,2.5296838973134754,1.3874725952863693,-0.3792864634759724
1761299741031635000,3.857635009765625,2.922403112205863,1.4269786762446164,-0.6575544657368213
1761299741051756800,3.8777568359375,3.180594614186883,1.3251751290664076,-0.8361698883082718
1761299741071879000,3.89787890625,2.7950761244535443,1.2811170838922261,-0.6497438650511205
1761299741092000000,3.918,1.984948074570298,1.2545885579288005,-0.5207506245870143
1761299741112122000,3.9381220703125,2.1221014598101378,1.2342612246930598,-0.6259139305219054
1761299741132243000,3.958242919921875,2.308808272770047,1.0299860218167305,-1.347472593331337
1761299741152365000,3.978364990234375,1.4365771101951599,0.9794985281169414,-2.661579508155584
1761299741172487000,3.99848681640625,1.0250959116876124,0.8112935865312815,-2.724221842290461
1761299741192608000,4.01860791015625,0.2807727516233921,0.9477893846452236,-2.3107485931828617
1761299741212729000,4.03872900390625,-1.9125147065222263,1.0935808343708515,-1.2869970818415284
1761299741232851000,4.058850830078125,-3.744974464076757,0.7208715573281049,-0.7090808009650558
1761299741252971800,4.0789716796875,-3.359850526618957,-0.11864274603724478,-0.3884958250436932
1761299741273094000,4.099093994140625,-2.8294483496546743,-0.6813315741002559,-0.5456224693845957
1761299741293216000,4.119216064453125,-4.148327885708213,-0.5133601490095258,-1.2164420748859643
1761299741313337000,4.139337158203125,-6.060621058434248,0.3758613113328814,-1.6664521798826752
1761299741333459000,4.159458984375,-5.890553830108046,1.1042375452026725,-1.3309937522172928
1761299741353580000,4.179580078125,-3.1842221570342777,0.9963456180214881,-0.7553357716616242
1761299741373702100,4.1997021484375,-0.41805239359140395,0.8877791525796055,-1.2480763995558022
1761299741393823700,4.21982373046875,1.0743751986414194,0.29536972451359034,-2.4935946390613912
1761299741413944800,4.23994482421875,1.3318278649538755,-0.010367957018315792,-3.45123117172122
1761299741434067000,4.26006689453125,0.6211340027689933,0.026307576689124104,-3.171327019625902
1761299741454187800,4.280187744140625,0.12576982143819332,0.4156076307877898,-1.7227521592535078
1761299741474310000,4.300309814453125,0.5004729026466608,0.9183949478566646,0.04486888663303107
1761299741494432000,4.320431884765625,1.2443249380677939,0.946315220439434,1.1402619945902377
1761299741514553000,4.340552978515625,2.0402935296952722,0.8922790943473577,1.4595030816219747
1761299741534675000,4.360675048828125,3.0768653596431017,0.6155398360237478,0.8696478680834173
1761299741554796000,4.380796142578125,4.202059475895762,0.20160890627652406,0.5771878935366869
1761299741574919000,4.4009189453125,4.860079147991538,-0.20327157879173754,0.8170729736503213
1761299741595040000,4.4210400390625,4.202426555642486,-0.3462704751893878,1.525901407289505
1761299741615161900,4.441161865234375,2.501819154310226,-0.106538466745615,1.4486369658231735
1761299741635284000,4.461283935546875,1.1173246980518101,-0.6090279699116945,0.8422090954072773
1761299741655405000,4.481405029296875,0.17517419607639312,-1.044703698477149,0.4903574956173077
1761299741675527200,4.501527099609375,-0.4151443971902132,-1.3169453531205653,0.41454076874125745
1761299741695648000,4.52164794921875,-0.8279851936131716,-1.7381889439687133,0.8115450770743191
1761299741715770000,4.54177001953125,-0.8824322385936975,-1.9991563404038548,1.2439736404120922
1761299741735891200,4.56189111328125,-0.5456599518507719,-2.5554823554366823,0.8145039999451488
1761299741756012800,4.5820126953125,-0.7791460516422987,-3.1284494164079426,-0.42669367294758553
1761299741776135000,4.602135009765625,-1.308430622753501,-3.423895713289082,-1.3927971513099968
1761299741796256000,4.622256103515625,-2.1428537404596804,-3.532260518679023,-1.094180261568725
1761299741816378000,4.642378173828125,-2.8488153134256597,-3.2820456946656105,-0.32560996447652574
1761299741836500000,4.6625,-4.105843081200122,-2.274409744083881,0.5679010462859645
1761299741856621000,4.68262109375,-5.199145098629594,-1.1850091180071234,0.6549075314246118
1761299741876743200,4.7027431640625,-3.8368613051354883,-0.6650713441729545,-0.25431692556999624
1761299741896864000,4.722864013671875,-0.8629320038318633,-0.6368190631568431,-0.9025506052538752
1761299741916986000,4.742986083984375,1.0015227283984423,-0.5978592179045081,-1.012170379140973
1761299741937108000,4.76310791015625,1.1793079837560654,-0.25512130075544115,-1.1896531444206833
1761299741957228800,4.783228759765625,-0.1235001229405403,0.24460955135226248,-1.564804407788068
1761299741977351000,4.803350830078125,-0.8903151007980108,0.6599193682372569,-1.6724413372948765
1761299741997472000,4.823471923828125,-0.6554027675956487,1.0721344339773058,-1.2308943786084652
1761299742017594000,4.843593994140625,0.20548516318798063,1.4872542812481522,-0.5580781559297815
1761299742037716000,4.863716064453125,1.1797381918668746,1.869897800067067,-0.01396896805181168
1761299742057837000,4.883837158203125,1.8684744892656802,2.245017645382881,0.6475722201004624
1761299742077959200,4.903959228515625,2.322553305006027,2.2257827835589645,0.6271165843099356
1761299742098080000,4.924080078125,2.719762817054987,2.232458608061075,0.29126181427072734
1761299742118201900,4.944201904296875,3.3624680156409736,1.9980530553370712,-0.08809247201075777
1761299742138324000,4.964323974609375,4.276558544301986,1.6944389418303965,-0.6770655141536146
1761299742158445000,4.984445068359375,4.469738352668285,0.9994242948144674,-1.197054360587895
1761299742178567000,5.00456689453125,2.7004350162506103,0.8323568328261375,-1.3653789830304681
1761299742198688000,5.02468798828125,0.25055530801415443,1.2608774289399385,-1.033237717089057
1761299742218810000,5.04481005859375,-0.9651672204256058,1.6204706193000078,-0.7338179134670645
1761299742238932200,5.06493212890625,-0.714506113949418,1.589839334192872,-0.01343852357007563
1761299742259053000,5.085052978515625,0.23263328235447406,1.4467805243015288,0.23057481545470654
1761299742279175200,5.105175048828125,1.1692045228928327,0.7042410327836871,-0.2877688210558146
1761299742299297000,5.125297119140625,0.8287281209349632,0.09269026639610528,-0.973821578459069
1761299742319417900,5.14541796875,-0.30826340061724183,0.1009656350493431,-1.242908933790028
1761299742339540000,5.1655400390625,-0.9682260234743356,-0.23858400745242833,-1.508513196245581
1761299742359661000,5.1856611328125,-1.107382565230131,-0.5912602580308914,-1.696795734089613
1761299742379783000,5.205782958984375,-0.8182301077961921,-0.5350806901693343,-1.2090786334458739
1761299742399905000,5.225905029296875,-0.8986369389414787,-0.24713965435177088,-1.0134333848141133
1761299742420026000,5.246026123046875,-3.880878141516447,1.0063859505206345,-1.4937446661807596
1761299742440148200,5.266148193359375,-6.186444071364402,2.033321060334146,-1.304953155901283
1761299742460269000,5.28626904296875,-4.725157467326522,1.8998603921324013,-0.419897911860235
1761299742480391000,5.306390869140625,-1.5482336506068706,0.7291732294663786,-0.34950467133764174
1761299742500513000,5.326512939453125,0.30087445940971375,-1.0462585267037152,-1.7803896708384155
1761299742520633900,5.3466337890625,1.0157207650989293,-2.224348366841674,-3.911592428731918
1761299742540756000,5.366755859375,1.025402785679698,-2.929791761152446,-5.051953718978166
1761299742560877000,5.386876953125,0.5951268703311682,-2.5691654283523557,-4.122401417291164
1761299742580999000,5.4069990234375,-0.222526898881793,-1.6961004453018307,-3.0596345311179753
1761299742601121000,5.42712109375,-0.4483469940900802,-1.0164143003210424,-1.7719520973607896
1761299742621242000,5.4472421875,0.2821621601551771,-0.4752902383342385,-0.6573710719939321
1761299742641363500,5.467363525390625,1.6367138980925082,-0.10450462283045053,-0.23195468897316604
1761299742661485300,5.4874853515625,2.670684605631232,-0.18388152640610933,-0.5387841112645343
1761299742681606400,5.5076064453125,3.2685137206584214,-0.2407832710623741,-0.9610638767600059
1761299742701728300,5.527728271484375,3.151535692963004,-0.5361234772205352,-0.5864012371597811
1761299742721849300,5.547849365234375,2.58961668022871,-0.9323939548537135,-0.1680228995496407
1761299742741971200,5.56797119140625,2.2461562940239905,-1.2135223880469799,-0.19090667580254375
1761299742762093300,5.58809326171875,1.757995760461688,-1.296326343461871,0.3644987172540277
1761299742782214400,5.60821435546875,1.4238812947511672,-1.591883114980161,0.7771978401839733
1761299742802336500,5.62833642578125,0.7869850747048854,-1.7400956543728707,0.7181449088431895
1761299742822457300,5.648457275390625,-0.2618582077950239,-1.801450286784768,1.0680915883272886
1761299742842579500,5.668579345703125,-1.519341902643442,-1.7011849089592694,0.9930717109173536
1761299742862701300,5.688701416015625,-2.503294487559795,-1.828662703359127,0.7794248685836791
1761299742882822400,5.708822509765625,-3.73252940852344,-2.0930115589261056,0.05589908868605271
1761299742902944300,5.7289443359375,-4.490007818236947,-1.938998224300146,-0.21647958154156802
1761299742923065300,5.7490654296875,-4.02236867917776,-1.566457581822574,0.21528231631470843
1761299742943187200,5.769187255859375,-4.212203853291273,-0.9382257297471165,0.12909720316207968
1761299742963309300,5.789309326171875,-4.024676371598243,-0.20258798044174908,-0.06814735215879045
1761299742983430400,5.809430419921875,-1.7278613189607859,-0.12002923195958137,-0.033977599860355256
1761299743003552500,5.829552490234375,1.1137439169555903,-0.24183073428869245,0.08801473973258397
1761299743023674400,5.84967431640625,1.6835609894633292,-0.15332067618668077,1.1778818234104662
1761299743043795500,5.86979541015625,0.4532967254519462,0.4028478101968765,1.232410920651257
1761299743063917300,5.889917236328125,-0.4576151731729507,0.3484925351530313,0.7772305003445595
1761299743084038100,5.9100380859375,-0.44816228517293927,0.4725640282407403,0.2221703405290842
1761299743104160300,5.93016015625,0.07694879964590072,0.44707098280489443,-0.1548581696859561
1761299743124282400,5.950282470703125,0.786424518212676,0.641506051929295,-0.5999690861979499
1761299743144403500,5.970403564453125,1.4951087941408157,0.7609738506138324,-0.7793607173062861
1761299743164525300,5.990525390625,1.8551321926116942,1.1427701049536465,-0.4441902397368103
1761299743184646400,6.010646484375,1.8477368216633796,1.412842598864436,-0.024462295882310716
1761299743204768500,6.0307685546875,2.179516706946492,1.2118003865599631,0.21293701356388628
1761299743224890000,6.05089013671875,2.7357126658588644,0.8869307190567255,-0.277559306002222
1761299743245011500,6.071011474609375,2.632968915221095,0.792998635905981,-0.35537904326375575
1761299743265133300,6.09113330078125,1.379686763715744,1.297320615196228,0.39933220329135655
1761299743285255400,6.11125537109375,0.472844306486845,1.5431050555467605,0.5113081118505448
1761299743305376300,6.131376220703125,0.1758154165893793,1.538933907341957,0.16676095332242546
1761299743325498400,6.151498291015625,-0.05998480536341667,1.4916916791737078,-0.4298692342437804
1761299743345619500,6.171619384765625,0.06855038913488387,1.5243863265514372,-0.827529266539216
1761299743365741300,6.1917412109375,0.5996791268080472,1.2875263664126395,-0.56221430588644
1761299743385863400,6.211863525390625,-0.42856560429930685,1.2933078724235296,-0.35102888523023573
1761299743405984500,6.231984619140625,-1.0711439616352318,1.0252595778167246,-0.5110243264731019
1761299743426106400,6.2521064453125,-0.7632716061621904,0.7525836234092712,-0.6970852427449077
1761299743446227200,6.272227294921875,-0.6940373264163732,0.1557856049954891,-1.1184446419924496
1761299743466349300,6.292349365234375,-1.5212158798217772,-0.11884937452524899,-1.9288902333922684
1761299743486471400,6.312471435546875,-2.06355399377346,-0.0742699358254671,-2.415185557604581
1761299743506592300,6.33259228515625,-2.4801117648929356,0.22460516646057366,-2.0476253338880834
1761299743526714400,6.35271435546875,-3.575171439644694,0.6056564476519822,-1.4510668233186006
1761299743546836500,6.37283642578125,-3.917918124622106,1.060153196543455,-0.9683109252788126
1761299743566957300,6.392957275390625,-2.2024200281500814,1.1296817830607295,-0.577811103468947
1761299743587079200,6.4130791015625,0.7122995438158511,0.766013890607655,-0.2970003944553435
1761299743607200500,6.433200439453125,2.5555682801544664,0.2380924245432019,0.002886917080543935
1761299743627322600,6.453322509765625,2.8180478347182274,0.010297229869663714,-0.4973102373646572
1761299743647444700,6.47344482421875,1.6168325550585985,-0.12521043398976325,-0.8650720115352422
1761299743667565800,6.49356591796875,0.17265432220995425,-0.047427521607279775,-1.1598162976268678
1761299743687687700,6.513687744140625,-1.0119120204657315,0.18709201288521288,-1.5718965580061077
1761299743707808800,6.533808837890625,-0.05665536867976188,0.4725456158012151,-0.918959303741157
1761299743727931000,6.553930908203125,1.7849509874045848,0.38542204362154003,0.1527929625181481
1761299743748052700,6.574052734375,3.1751907093167304,0.13946107766032217,0.674139909030497
1761299743768173600,6.594173583984375,3.3080250623136758,-0.08752835358828305,0.7295712888732552
1761299743788295700,6.614295654296875,2.424392800280452,-0.1828024989977479,0.5480861560843885
1761299743808417800,6.634417724609375,1.6093576891332864,-0.2508250648662448,0.3033561566902324
1761299743828538600,6.65453857421875,1.7725012556761501,-0.522393642553687,0.24094332046229391
1761299743848660700,6.67466064453125,1.2761872262746095,-0.9253720933929085,0.16345900743389502
1761299743868781800,6.69478173828125,0.4631067563265562,-1.0304837422057986,0.23465603862004353
1761299743888903700,6.714903564453125,-0.14016075036227701,-1.0323214790269732,1.0887480073869227
1761299743909025800,6.73502587890625,-0.8104208953499793,-0.8492676356166601,1.307635672983527
1761299743929147000,6.75514697265625,-1.4212030154526232,-1.1695388694137334,0.4241942573472857
1761299743949268700,6.775268798828125,-1.2062789927899837,-1.504755743408203,-0.23346235358975825
1761299743969389600,6.7953896484375,-0.310801394662261,-1.5708657536536454,0.4879753862537443
1761299743989511700,6.81551171875,-0.1599468163281679,-1.4279443064063786,1.5444240291908382
1761299744009633800,6.8356337890625,-1.361905607831478,-1.4999036272019146,1.667532668595761
1761299744029754600,6.855754638671875,-2.6604747617840765,-1.188495498818159,0.764310155429691
1761299744049876700,6.875876708984375,-4.375839002743363,-0.6230903975337744,0.2433859095751308
1761299744069998800,6.895998779296875,-3.895800400838256,-0.03486234680563211,0.4856473086323589
1761299744090120000,6.916119873046875,-1.7572493260085582,0.32237638938277957,0.7923330846693366
1761299744110241500,6.936241455078125,0.07015899337530136,-0.21000497869998216,1.1069717924721538
1761299744130362600,6.956362548828125,0.8435679626703262,-0.2002913939371705,1.5933477807052432
1761299744150484700,6.976484619140625,0.7355512400656938,-0.24470395163744688,0.9861911576233804
1761299744170606600,6.996606689453125,0.1278226623147726,0.012172668352723121,0.7069231845397502
1761299744190727700,7.016727783203125,0.3387251743763685,0.29896278056949377,0.3010822204088792
1761299744210849800,7.036849853515625,0.27158056038618084,-0.02064239053428173,-0.5189454383285715
1761299744230970600,7.056970703125,-0.025967969471216202,0.6619140491858124,-1.1853148229554296
1761299744251092700,7.0770927734375,0.26548224351108074,1.1470651717990636,-0.7194238427378237
1761299744271214800,7.09721484375,0.5923462997019291,1.2802347480997442,0.07210742402933537
1761299744291336000,7.1173359375,1.9417232653498648,1.215301088157296,0.6926802857842296
1761299744311457500,7.13745751953125,3.4273037681668996,0.6927157224237919,0.5435876756213605
1761299744331579600,7.15757958984375,3.5527982797950504,0.49303866099268195,0.15416706388294696
1761299744351700700,7.17770068359375,2.034042652606964,0.3898267083212733,0.02836973338332027
