time,seconds_elapsed,z,y,x
1761396086564026600,0.212026611328125,-0.1410503387451172,0.031655311584472656,0.03237318992614746
1761396086583404000,0.231404052734375,-0.06677722930908203,0.0632624626159668,0.06766557693481445
1761396086602781700,0.25078173828125,0.20357847213745117,0.03754425048828125,0.044795989990234375
1761396086622159000,0.2701591796875,0.25865888595581055,0.018903732299804688,0.0655217170715332
1761396086641536800,0.289536865234375,0.14464712142944336,0.004364013671875,0.11088871955871582
1761396086660914400,0.30891455078125,0.046439170837402344,-0.015086174011230469,0.1306924819946289
1761396086680291800,0.328291748046875,-0.11760282516479492,-0.014976978302001953,0.17444300651550293
1761396086699669500,0.34766943359375,-0.19945621490478516,0.004215717315673828,0.1810312271118164
1761396086719047200,0.367047119140625,-0.1531987190246582,0.037523746490478516,0.19022631645202637
1761396086738424600,0.386424560546875,-0.05845022201538086,0.023064136505126953,0.12212395668029785
1761396086757802200,0.40580224609375,0.1082773208618164,0.04888153076171875,0.03373217582702637
1761396086777180000,0.425179931640625,0.32982444763183594,0.07421731948852539,0.07402896881103516
1761396086796557300,0.444557373046875,0.29738426208496094,0.08187532424926758,0.18980884552001953
1761396086815935000,0.46393505859375,0.16375160217285156,0.05514049530029297,0.07440781593322754
1761396086835312400,0.4833125,0.013567924499511719,0.03914690017700195,-0.038420677185058594
1761396086854690000,0.50268994140625,0.0014896392822265625,0.00868988037109375,0.05581545829772949
1761396086874067700,0.522067626953125,0.00004482269287109375,-0.06926441192626953,0.07265448570251465
1761396086893445000,0.541445068359375,-0.05388069152832031,-0.10041332244873047,-0.03387618064880371
1761396086912822800,0.56082275390625,-0.05772066116333008,-0.10018062591552734,-0.06196880340576172
1761396086932200400,0.580200439453125,-0.0609283447265625,-0.0643157958984375,-0.15595412254333496
1761396086951577900,0.599577880859375,-0.12643861770629883,-0.0345616340637207,-0.14871668815612793
1761396086970955500,0.61895556640625,-0.12555789947509766,-0.011035919189453125,0.0071086883544921875
1761396086990333000,0.6383330078125,-0.1290740966796875,0.0474390983581543,0.16112041473388672
1761396087009710600,0.657710693359375,0.022439002990722656,0.03256416320800781,0.2122950553894043
1761396087029088300,0.677088134765625,0.2713460922241211,-0.003654003143310547,0.05193328857421875
1761396087048465700,0.696465576171875,0.4070429801940918,-0.01701211929321289,-0.05971574783325195
1761396087067843300,0.71584326171875,0.20040178298950195,0.037432193756103516,0.03306460380554199
1761396087087220700,0.735220703125,-0.09108829498291016,0.08210277557373047,0.08151960372924805
1761396087106598400,0.754598388671875,-0.14048290252685547,0.06376266479492188,0.1008765697479248
1761396087125976000,0.77397607421875,-0.057665348052978516,0.00987100601196289,0.09636926651000977
1761396087145353500,0.793353515625,-0.040753841400146484,-0.023456096649169922,0.10933613777160645
1761396087164731100,0.812731201171875,-0.014041423797607422,-0.028996944427490234,0.06168174743652344
1761396087184108500,0.832108642578125,0.10547685623168945,0.0021615028381347656,0.09655523300170898
1761396087203486200,0.851486328125,0.18688583374023438,0.03307008743286133,0.1750776767730713
1761396087222864000,0.87086376953125,0.08371591567993164,0.031713008880615234,0.2579071521759033
1761396087242241300,0.8902412109375,-0.2510247230529785,0.0189361572265625,0.15570282936096191
1761396087261619000,0.909618896484375,-0.23689508438110352,-0.0025501251220703125,-0.03967881202697754
1761396087280996600,0.92899658203125,0.10970592498779297,-0.06484031677246094,-0.1889970302581787
1761396087300374000,0.9483740234375,0.26189708709716797,-0.07698488235473633,-0.1795797348022461
1761396087319751700,0.967751708984375,0.023741722106933594,-0.0653696060180664,-0.09229373931884766
1761396087339129000,0.987129150390625,-0.07667350769042969,-0.03658485412597656,-0.11298942565917969
1761396087358506800,1.0065068359375,-0.02384042739868164,-0.030822277069091797,-0.2516498565673828
1761396087377884400,1.025884521484375,0.045166015625,-0.02858591079711914,-0.2229442596435547
1761396087397261800,1.04526171875,0.2215137481689453,-0.0011277198791503906,-0.03757786750793457
1761396087416639500,1.064639404296875,0.28266334533691406,0.013901233673095703,0.09420442581176758
1761396087436017200,1.08401708984375,-0.009661674499511719,0.03693246841430664,0.1769397258758545
1761396087455394600,1.10339453125,-0.17874956130981445,0.07843303680419922,0.240631103515625
1761396087474772200,1.122772216796875,-0.03970813751220703,0.07888936996459961,0.21361446380615234
1761396087494149600,1.142149658203125,0.20039701461791992,0.04737043380737305,0.11311101913452148
1761396087513527300,1.16152734375,0.19420814514160156,0.034955501556396484,0.15127015113830566
1761396087532905000,1.180905029296875,0.01905345916748047,0.0384221076965332,0.3128201961517334
1761396087552282400,1.200282470703125,-0.08597707748413086,0.002990245819091797,0.2729520797729492
1761396087571660000,1.219659912109375,-0.01025390625,0.02353811264038086,0.07887625694274902
1761396087591037400,1.239037353515625,0.17348384857177734,0.05801105499267578,0.10484957695007324
1761396087610415000,1.2584150390625,0.19930171966552734,0.07373857498168945,0.23534274101257324
1761396087629792800,1.277792724609375,-0.06303977966308594,0.027460575103759766,0.12176179885864258
1761396087649170200,1.297170166015625,-0.4180479049682617,0.015096664428710938,-0.0720968246459961
1761396087668547800,1.3165478515625,-0.42229175567626953,-0.07720184326171875,-0.11377596855163574
1761396087687925200,1.33592529296875,-0.06923437118530273,-0.11963033676147461,-0.18027162551879883
1761396087707303000,1.355302978515625,0.16558361053466797,-0.11078643798828125,-0.14417815208435059
1761396087726680600,1.3746806640625,0.026398181915283203,-0.09851408004760742,-0.12217473983764648
1761396087746058000,1.39405810546875,-0.09525060653686523,-0.06659078598022461,-0.10842180252075195
1761396087765435600,1.413435546875,-0.016548633575439453,0.11082983016967773,-0.0688638687133789
1761396087784813000,1.43281298828125,-0.1297450065612793,-0.055741310119628906,0.2716817855834961
1761396087804190700,1.452190673828125,-0.3977847099304199,-0.006118297576904297,0.09048318862915039
1761396087823568400,1.471568359375,-0.04927635192871094,-0.08280038833618164,-0.1882307529449463
1761396087842945800,1.49094580078125,0.5258002281188965,-0.057524681091308594,-0.3137795925140381
1761396087862323500,1.510323486328125,0.7291088104248047,0.04010581970214844,-0.1682605743408203
1761396087881701000,1.529701171875,0.5144925117492676,0.05859661102294922,-0.08348464965820312
1761396087901078500,1.54907861328125,0.10819768905639648,0.11631107330322266,0.03258967399597168
1761396087920456200,1.568456298828125,-0.18535375595092773,0.06698799133300781,0.2470231056213379
1761396087939833600,1.58783349609375,-0.1461653709411621,-0.025864124298095703,0.1448650360107422
1761396087959211300,1.607211181640625,-0.00012874603271484375,-0.08040857315063477,0.0533754825592041
1761396087978589000,1.6265888671875,0.02161264419555664,-0.10746002197265625,0.1270456314086914
1761396087997966300,1.64596630859375,-0.014248847961425781,-0.0038552284240722656,-0.06523442268371582
1761396088017344000,1.665343994140625,0.010054588317871094,0.01684284210205078,-0.05950164794921875
1761396088036721400,1.684721435546875,-0.1315779685974121,0.03228282928466797,0.14240121841430664
1761396088056099000,1.70409912109375,-0.1366267204284668,0.02555561065673828,0.23238492012023926
1761396088075476700,1.723476806640625,-0.0656428337097168,0.10994243621826172,0.14832830429077148
1761396088094854100,1.742854248046875,0.0570378303527832,0.06523990631103516,0.5433475971221924
1761396088114231800,1.762231689453125,0.020430564880371094,-0.008208274841308594,0.5802702903747559
1761396088133609200,1.781609130859375,-0.06377887725830078,0.002243518829345703,0.20602822303771973
1761396088152987000,1.80098681640625,-0.06693696975708008,0.023630142211914062,-0.0014841556549072266
1761396088172364300,1.8203642578125,0.046190738677978516,0.06616926193237305,-0.006067752838134766
1761396088191742000,1.839741943359375,0.11998891830444336,0.04006814956665039,0.10090899467468262
1761396088211119600,1.85911962890625,0.0251617431640625,0.020205020904541016,0.06431698799133301
1761396088230497000,1.8784970703125,0.06532001495361328,0.0008063316345214844,0.008427143096923828
1761396088249874700,1.897874755859375,0.2507166862487793,-0.06228923797607422,-0.041406869888305664
1761396088269252000,1.917252197265625,0.20798301696777344,-0.062204837799072266,-0.1423647403717041
1761396088288629800,1.936629638671875,0.009607791900634766,-0.04036378860473633,-0.17366838455200195
1761396088308007400,1.95600732421875,-0.1648268699645996,-0.0346980094909668,-0.109832763671875
1761396088327384800,1.975384765625,-0.2309727668762207,0.00334930419921875,-0.03211092948913574
1761396088346762500,1.994762451171875,-0.03717756271362305,-0.036640167236328125,-0.010507583618164062
1761396088366140000,2.014139892578125,0.18779802322387695,-0.026658058166503906,-0.06325364112854004
1761396088385517600,2.033517578125,0.12038469314575195,-0.03380918502807617,0.045279502868652344
1761396088404895200,2.052895263671875,0.022369861602783203,-0.0132293701171875,-0.05975675582885742
1761396088424272600,2.072272705078125,0.05139732360839844,0.015105724334716797,-0.08645963668823242
1761396088443650300,2.091650390625,-0.018598556518554688,-0.009141921997070312,0.09914493560791016
1761396088463027700,2.11102783203125,0.10904598236083984,0.027174949645996094,0.0922393798828125
1761396088482405400,2.1304052734375,0.285245418548584,0.0037965774536132812,0.05905866622924805
1761396088501783000,2.149782958984375,0.04503154754638672,-0.016308307647705078,0.010513067245483398
1761396088521160400,2.169160400390625,-0.21558761596679688,0.01601123809814453,-0.02787017822265625
1761396088540538000,2.1885380859375,-0.1603107452392578,-0.0030498504638671875,0.0737311840057373
1761396088559915500,2.20791552734375,0.041097164154052734,-0.023072242736816406,-0.02958965301513672
1761396088579293200,2.227293212890625,0.11153078079223633,-0.029811382293701172,-0.006247282028198242
1761396088598670800,2.2466708984375,-0.008302688598632812,-0.022527694702148438,-0.00617218017578125
1761396088618048300,2.26604833984375,-0.021771907806396484,0.008593082427978516,-0.05601954460144043
1761396088637426000,2.285426025390625,0.026012420654296875,-0.019832611083984375,0.06447005271911621
1761396088656803300,2.30480322265625,0.013289928436279297,-0.03521251678466797,0.06945323944091797
1761396088676181000,2.324180908203125,-0.09740018844604492,0.005553722381591797,0.07618069648742676
1761396088695558700,2.34355859375,-0.13580894470214844,0.01387166976928711,0.1615281105041504
1761396088714936000,2.36293603515625,-0.06056356430053711,0.0015673637390136719,0.08151388168334961
1761396088734313700,2.382313720703125,0.10839557647705078,-0.00011444091796875,0.011853933334350586
1761396088753691100,2.401691162109375,0.269744873046875,0.02008199691772461,0.1416454315185547
1761396088773068800,2.42106884765625,0.08811140060424805,0.06204652786254883,0.2883814573287964
1761396088792446200,2.4404462890625,-0.08675050735473633,0.09366893768310547,0.1892533302307129
1761396088811823900,2.459823974609375,-0.026076316833496094,0.03549528121948242,0.08783483505249023
1761396088831201500,2.479201416015625,0.10309648513793945,-0.012801170349121094,-0.011043548583984375
1761396088850579000,2.498578857421875,0.1404118537902832,-0.008002758026123047,0.016820907592773438
1761396088869956600,2.51795654296875,0.08569145202636719,0.026859760284423828,0.15288233757019043
1761396088889334000,2.537333984375,0.015848636627197266,0.0658869743347168,0.24010610580444336
1761396088908711700,2.556711669921875,-0.07086992263793945,0.08809804916381836,0.1737346649169922
1761396088928089300,2.57608935546875,-0.010850906372070312,0.06824398040771484,0.02016139030456543
1761396088947466800,2.595466796875,0.16403913497924805,0.0027441978454589844,0.03729677200317383
1761396088966844400,2.614844482421875,0.22566509246826172,-0.03647565841674805,0.0046999454498291016
1761396088986221800,2.634221923828125,0.11367034912109375,-0.011227130889892578,-0.1500110626220703
1761396089005599500,2.653599609375,0.043871402740478516,-0.02117300033569336,-0.15505242347717285
1761396089024977200,2.67297705078125,0.16211318969726562,-0.04862403869628906,-0.018620014190673828
1761396089044354600,2.6923544921875,0.05329322814941406,-0.0750126838684082,0.13682794570922852
1761396089063732200,2.711732177734375,-0.4431309700012207,-0.06581258773803711,0.1258554458618164
1761396089083109600,2.731109619140625,-0.6621713638305664,-0.05182790756225586,-0.03713083267211914
1761396089102487300,2.7504873046875,-0.2489466667175293,-0.05295562744140625,-0.1336979866027832
1761396089121864700,2.76986474609375,0.3467392921447754,-0.038881778717041016,-0.048090457916259766
1761396089141242400,2.789242431640625,0.48064279556274414,-0.0027213096618652344,0.08772730827331543
1761396089160619800,2.808619873046875,0.17429542541503906,0.06614160537719727,0.14902281761169434
1761396089179997400,2.82799755859375,-0.1399374008178711,0.08183622360229492,0.24475741386413574
1761396089199375000,2.847375,-0.09681081771850586,0.08701896667480469,0.15396928787231445
1761396089218752500,2.86675244140625,0.3058943748474121,0.06133127212524414,0.1188511848449707
1761396089238130200,2.886130126953125,0.35720300674438477,0.023862361907958984,0.08954977989196777
1761396089257507800,2.9055078125,0.0504918098449707,0.013938426971435547,-0.025934457778930664
1761396089276885200,2.92488525390625,-0.08033275604248047,0.011930465698242188,-0.0708608627319336
1761396089296263000,2.944262939453125,-0.06302118301391602,-0.0038743019104003906,0.006726503372192383
1761396089315640300,2.963640380859375,-0.12784385681152344,-0.035915374755859375,0.05155158042907715
1761396089335018000,2.98301806640625,-0.2506542205810547,-0.05368185043334961,-0.014113187789916992
1761396089354395400,3.0023955078125,-0.02299976348876953,-0.04033613204956055,-0.07625794410705566
1761396089373773000,3.02177294921875,0.2393655776977539,-0.020878314971923828,-0.01312875747680664
1761396089393150500,3.041150390625,0.12015438079833984,-0.00940704345703125,0.10010933876037598
1761396089412528000,3.060528076171875,-0.07927131652832031,0.015158653259277344,0.10657954216003418
1761396089431905800,3.07990576171875,-0.014932632446289062,0.009316444396972656,0.06918859481811523
1761396089451283200,3.099283203125,0.08486413955688477,-0.008512496948242188,0.021224498748779297
1761396089470660900,3.118660888671875,0.08403301239013672,0.014616966247558594,0.009551525115966797
1761396089490038300,3.138038330078125,0.02714395523071289,0.011290550231933594,0.08710908889770508
1761396089509416000,3.157416015625,0.04056882858276367,0.014067649841308594,0.11055135726928711
1761396089528793600,3.176793701171875,0.031488895416259766,-0.02597665786743164,0.10761332511901855
1761396089548171000,3.1961708984375,0.029739856719970703,-0.007251262664794922,0.03762483596801758
1761396089567548700,3.215548583984375,-0.0341792106628418,0.02231884002685547,0.06198716163635254
1761396089586926000,3.234926025390625,-0.17883729934692383,0.049564361572265625,0.12016868591308594
1761396089606303700,3.2543037109375,-0.17130708694458008,0.05283164978027344,0.09619998931884766
1761396089625681200,3.27368115234375,0.18883419036865234,0.009453296661376953,0.05855226516723633
1761396089645058800,3.293058837890625,0.29929161071777344,-0.006358146667480469,0.14485597610473633
1761396089664436500,3.3124365234375,0.06261014938354492,0.00892496109008789,0.1111752986907959
1761396089683814000,3.33181396484375,-0.14543914794921875,0.02749490737915039,0.058437347412109375
1761396089703191600,3.351191650390625,-0.07416296005249023,-0.05590343475341797,-0.11371278762817383
1761396089722569000,3.37056884765625,0.16554975509643555,-0.05756425857543945,-0.11278295516967773
1761396089741946600,3.389946533203125,-0.029897212982177734,-0.03973865509033203,0.13083338737487793
1761396089761324000,3.409323974609375,-0.3248438835144043,-0.016097545623779297,0.018361568450927734
1761396089780701700,3.42870166015625,-0.19950199127197266,-0.011327743530273438,-0.09745907783508301
1761396089800079000,3.4480791015625,0.18175745010375977,-0.04424238204956055,-0.14149045944213867
1761396089819456800,3.467456787109375,0.27408313751220703,-0.055426597595214844,-0.18859004974365234
1761396089838834400,3.48683447265625,0.1956319808959961,-0.015603065490722656,-0.12273836135864258
1761396089858211800,3.5062119140625,0.22818231582641602,0.01569986343383789,0.05602002143859863
1761396089877589500,3.525589599609375,0.23150062561035156,0.020235061645507812,0.07478165626525879
1761396089896967000,3.544966796875,0.14357757568359375,0.03842639923095703,0.04709267616271973
1761396089916344600,3.564344482421875,0.008358955383300781,0.04629659652709961,0.12022042274475098
1761396089935722000,3.583721923828125,-0.11084556579589844,0.019702434539794922,0.12175965309143066
1761396089955099600,3.603099609375,-0.05322980880737305,0.01755046844482422,0.06701421737670898
1761396089974477300,3.622477294921875,0.008460044860839844,-0.037763118743896484,0.07651376724243164
1761396089993854700,3.641854736328125,0.053075313568115234,-0.052149295806884766,-0.05869746208190918
1761396090013232400,3.661232421875,0.14395809173583984,-0.026641845703125,-0.07250022888183594
1761396090032609800,3.68060986328125,0.06675004959106445,-0.027482032775878906,0.04199051856994629
1761396090051987500,3.699987548828125,-0.1114492416381836,0.016208648681640625,0.06986236572265625
1761396090071365000,3.719365234375,-0.21466445922851562,0.050760746002197266,0.22409093379974365
1761396090090742500,3.738742431640625,-0.0947723388671875,0.022481918334960938,0.27574288845062256
1761396090110120200,3.7581201171875,-0.05731678009033203,0.0024313926696777344,0.027985572814941406
1761396090129497600,3.77749755859375,0.13510465621948242,-0.023121356964111328,-0.24063944816589355
1761396090148875300,3.796875244140625,0.3608980178833008,0.0025072097778320312,-0.13328146934509277
1761396090168252700,3.816252685546875,0.3353767395019531,0.03396415710449219,0.13710832595825195
1761396090187630300,3.83563037109375,0.018384933471679688,0.07300424575805664,0.24048471450805664
1761396090207007700,3.8550078125,-0.11545276641845703,0.07037830352783203,0.21321463584899902
1761396090226385400,3.874385498046875,-0.09734058380126953,0.017838001251220703,0.2588768005371094
1761396090245762800,3.8937626953125,-0.11386728286743164,-0.05162811279296875,0.22933697700500488
1761396090265140500,3.913140380859375,-0.10717487335205078,-0.0833578109741211,0.04302334785461426
1761396090284518100,3.93251806640625,-0.09171199798583984,-0.04523324966430664,-0.005845308303833008
1761396090303895600,3.9518955078125,-0.11533927917480469,0.006465911865234375,0.1322917938232422
1761396090323273200,3.971273193359375,-0.08337020874023438,0.0011806488037109375,0.19682812690734863
1761396090342650600,3.990650634765625,0.06273746490478516,-0.08379697799682617,0.07814788818359375
1761396090362028300,4.0100283203125,0.3157815933227539,-0.04929637908935547,0.10676455497741699
1761396090381405700,4.02940576171875,0.5656447410583496,-0.14189910888671875,0.3338346481323242
1761396090400783400,4.048783447265625,0.6362471580505371,0.32799863815307617,0.10787296295166016
1761396090420160800,4.068160888671875,0.2741570472717285,0.46977949142456055,-0.2194197177886963
1761396090439538400,4.087538330078125,-0.4702024459838867,-0.024363040924072266,-0.4604940414428711
1761396090458916000,4.106916015625,-0.7202434539794922,-0.2525291442871094,-0.6908133029937744
1761396090478293500,4.12629345703125,-0.33990478515625,-0.3467435836791992,-0.15065574645996094
1761396090497671200,4.145671142578125,0.08354043960571289,-0.20278692245483398,0.15434908866882324
1761396090517048600,4.165048583984375,-0.17030811309814453,-0.14781999588012695,0.06554532051086426
1761396090536426200,4.18442626953125,-0.26993513107299805,-0.023834705352783203,-0.3110964298248291
1761396090555803600,4.2038037109375,0.22107458114624023,0.19777393341064453,-0.4430983066558838
1761396090575181300,4.223181396484375,0.6324658393859863,0.09908533096313477,-0.01532602310180664
1761396090594559000,4.24255908203125,0.31995058059692383,-0.07995986938476562,0.5901825428009033
1761396090613936400,4.261936279296875,-0.00813150405883789,-0.02326345443725586,0.7674468755722046
1761396090633314000,4.28131396484375,-0.1775202751159668,0.13503170013427734,0.37719154357910156
1761396090652691500,4.30069140625,-0.008603572845458984,0.05739641189575195,-0.02743244171142578
1761396090672069000,4.320069091796875,0.16987133026123047,-0.01674032211303711,-0.11590981483459473
1761396090691446500,4.339446533203125,0.2212963104248047,0.02637481689453125,0.06748270988464355
1761396090710824200,4.35882421875,0.09559822082519531,0.01893758773803711,0.31659865379333496
1761396090730201600,4.37820166015625,-0.0871124267578125,0.03325366973876953,0.23373329639434814
1761396090749579300,4.397579345703125,-0.13201570510864258,0.0879826545715332,0.06164717674255371
1761396090768956700,4.416956787109375,-0.2299175262451172,0.08675336837768555,0.05979013442993164
1761396090788334300,4.436334228515625,-0.28484106063842773,0.031371116638183594,-0.044428348541259766
1761396090807712000,4.4557119140625,-0.05403757095336914,-0.030886173248291016,-0.20045781135559082
1761396090827089400,4.47508935546875,0.3315300941467285,-0.10008859634399414,-0.12052798271179199
1761396090846467000,4.494467041015625,0.2748546600341797,-0.1701641082763672,0.10315775871276855
1761396090865844500,4.513844482421875,-0.03683757781982422,-0.048143863677978516,-0.09242582321166992
1761396090885222100,4.53322216796875,-0.017203330993652344,0.05019092559814453,-0.24026703834533691
1761396090904599600,4.552599609375,0.17952537536621094,-0.033110618591308594,-0.13164234161376953
1761396090923977200,4.571977294921875,0.2075052261352539,-0.06173515319824219,0.0412750244140625
1761396090943354600,4.591354736328125,0.1541457176208496,0.02275705337524414,0.17914462089538574
1761396090962732300,4.610732177734375,0.006520748138427734,0.10324764251708984,0.28046131134033203
1761396090982110000,4.63010986328125,-0.22719621658325195,0.1128077507019043,0.24683785438537598
1761396091001487400,4.6494873046875,-0.19325017929077148,0.040749549865722656,-0.058539628982543945
1761396091020865000,4.668864990234375,0.06900930404663086,-0.0457615852355957,-0.15984296798706055
1761396091040242400,4.688242431640625,0.1421031951904297,-0.05946683883666992,0.021127939224243164
1761396091059620000,4.7076201171875,0.1075444221496582,-0.0022916793823242188,0.16945290565490723
1761396091078997500,4.72699755859375,0.06166553497314453,0.04725217819213867,0.22511303424835205
1761396091098375200,4.746375244140625,-0.11102724075317383,0.04881715774536133,0.1396176815032959
1761396091117752600,4.765752685546875,-0.15722227096557617,-0.023784160614013672,-0.06175732612609863
1761396091137130200,4.785130126953125,0.032174110412597656,0.014811992645263672,-0.052649497985839844
1761396091156507600,4.804507568359375,0.1525554656982422,-0.030187606811523438,0.18123245239257812
1761396091175885300,4.82388525390625,0.15733861923217773,-0.015194892883300781,0.15541625022888184
1761396091195263000,4.843262939453125,0.0012493133544921875,-0.06264400482177734,0.11971473693847656
1761396091214640400,4.862640380859375,-0.06556940078735352,-0.02111339569091797,-0.09003257751464844
1761396091234018000,4.88201806640625,-0.0009331703186035156,-0.033905029296875,-0.061158180236816406
1761396091253395500,4.9013955078125,-0.062375545501708984,-0.03302717208862305,0.01957535743713379
1761396091272773000,4.920773193359375,-0.1471099853515625,-0.03403186798095703,0.12452936172485352
1761396091292150500,4.940150634765625,-0.11109638214111328,0.029651165008544922,0.07079911231994629
1761396091311528200,4.959528076171875,0.0658426284790039,0.07337713241577148,-0.07492351531982422
1761396091330905600,4.978905517578125,0.2483820915222168,0.07216262817382812,-0.004422664642333984
1761396091350283300,4.998283203125,0.32150745391845703,0.04410600662231445,0.2978717088699341
1761396091369660700,5.01766064453125,0.17295074462890625,0.0027256011962890625,0.24583077430725098
1761396091389038300,5.037038330078125,-0.08223390579223633,0.016554832458496094,-0.044068098068237305
1761396091408415700,5.056415771484375,-0.12150239944458008,-0.024950027465820312,-0.2976388931274414
1761396091427793400,5.07579345703125,0.0016818046569824219,-0.09639644622802734,-0.22192692756652832
1761396091447171000,5.095171142578125,-0.0006899833679199219,-0.10466957092285156,-0.0623631477355957
1761396091466548500,5.114548583984375,-0.10571479797363281,-0.06638383865356445,-0.03963875770568848
1761396091485926100,5.133926025390625,-0.037970542907714844,-0.04673147201538086,-0.05243802070617676
1761396091505303600,5.153303466796875,0.15213966369628906,-0.04987955093383789,-0.04872632026672363
1761396091524681200,5.17268115234375,0.16345930099487305,-0.0035791397094726562,-0.0475773811340332
1761396091544058600,5.19205859375,0.07099676132202148,0.05073404312133789,0.07312536239624023
1761396091563436300,5.211436279296875,0.03599882125854492,0.08258676528930664,0.14293432235717773
1761396091582813700,5.230813720703125,0.07161474227905273,0.07457923889160156,0.1859450340270996
1761396091602191400,5.25019140625,0.06011343002319336,0.06435441970825195,0.23923254013061523
1761396091621568800,5.26956884765625,-0.021123409271240234,0.00019931793212890625,0.22191941738128662
1761396091640946400,5.288946533203125,-0.0656290054321289,-0.03036785125732422,0.05169796943664551
1761396091660323800,5.30832373046875,-0.06388235092163086,0.002727985382080078,-0.04064822196960449
1761396091679701500,5.327701416015625,0.03771400451660156,-0.0005331039428710938,0.03514432907104492
1761396091699079000,5.347078857421875,0.023826122283935547,-0.01252126693725586,0.1372077465057373
1761396091718456600,5.36645654296875,-0.06066274642944336,-0.009432315826416016,0.06160688400268555
1761396091737834200,5.385834228515625,0.02359628677368164,-0.019034385681152344,0.0014367103576660156
1761396091757211600,5.405211669921875,0.13284730911254883,0.011757373809814453,-0.04843330383300781
1761396091776589300,5.42458935546875,0.13241958618164062,-0.03321695327758789,-0.0881195068359375
1761396091795966700,5.443966796875,0.11758947372436523,-0.0552825927734375,-0.10078191757202148
1761396091815344400,5.463344482421875,0.09179162979125977,-0.04021596908569336,0.014215469360351562
1761396091834721800,5.4827216796875,-0.09872817993164062,-0.01918792724609375,0.08490610122680664
1761396091854099500,5.502099365234375,-0.26212549209594727,-0.022279739379882812,0.1499009132385254
1761396091873476900,5.521476806640625,-0.4259672164916992,0.0015459060668945312,0.09083318710327148
1761396091892854500,5.5408544921875,-0.25322628021240234,-0.03214073181152344,0.057515859603881836
1761396091912232000,5.56023193359375,0.11826372146606445,-0.0070018768310546875,0.012760162353515625
1761396091931609600,5.579609619140625,0.42739295959472656,0.04063129425048828,-0.0185697078704834
1761396091950987000,5.598987060546875,0.3711385726928711,0.04264688491821289,0.13198232650756836
1761396091970364700,5.61836474609375,0.27866697311401367,0.11319398880004883,0.23651933670043945
1761396091989742000,5.6377421875,0.23493528366088867,0.09593391418457031,0.24134206771850586
1761396092009119700,5.65711962890625,0.1914815902709961,0.028476715087890625,0.12766456604003906
1761396092028497200,5.6764970703125,0.03940010070800781,-0.03240203857421875,-0.0291593074798584
1761396092047874800,5.695874755859375,-0.06067705154418945,-0.03666496276855469,-0.025913000106811523
1761396092067252200,5.715252197265625,-0.11625480651855469,-0.042661190032958984,0.03772878646850586
1761396092086630000,5.7346298828125,-0.18634843826293945,-0.02302694320678711,0.03084111213684082
1761396092106007600,5.754007568359375,-0.1935887336730957,0.00010633468627929688,0.03604412078857422
1761396092125385000,5.773385009765625,-0.1237797737121582,-0.011786460876464844,0.01800060272216797
1761396092144762600,5.7927626953125,0.0033431053161621094,-0.007697105407714844,0.03170156478881836
1761396092164140000,5.81214013671875,0.11708879470825195,-0.014673709869384766,0.031964778900146484
1761396092183517700,5.831517578125,0.022153377532958984,-0.015605926513671875,-0.09533119201660156
1761396092202895000,5.85089501953125,0.11926507949829102,-0.013164520263671875,-0.11194586753845215
1761396092222272800,5.870272705078125,0.26041603088378906,-0.027923583984375,-0.03530454635620117
1761396092241650200,5.889650146484375,0.11411142349243164,-0.012265205383300781,-0.12830209732055664
1761396092261027800,5.90902783203125,-0.07526016235351562,-0.0511322021484375,-0.1780993938446045
1761396092280405200,5.9284052734375,-0.0436091423034668,-0.012889862060546875,0.018018007278442383
1761396092299783000,5.947782958984375,0.06898212432861328,-0.02129983901977539,0.21320509910583496
1761396092319160300,5.967160400390625,0.006133556365966797,0.023441791534423828,0.03670668601989746
1761396092338538000,5.9865380859375,-0.060044288635253906,0.010504722595214844,-0.10614204406738281
1761396092357915400,6.005915283203125,0.057379722595214844,-0.019179344177246094,-0.09169673919677734
1761396092377293000,6.02529296875,0.12959957122802734,-0.03837299346923828,0.06904149055480957
1761396092396670500,6.04467041015625,-0.011793136596679688,0.006648540496826172,0.19502568244934082
1761396092416048000,6.064048095703125,-0.06661510467529297,0.02881145477294922,0.16501283645629883
1761396092435425500,6.083425537109375,0.03962421417236328,0.04324150085449219,0.020360469818115234
1761396092454803200,6.10280322265625,0.17888164520263672,-0.007300376892089844,0.02533578872680664
1761396092474180900,6.122180908203125,0.05585002899169922,-0.011753082275390625,0.08196163177490234
1761396092493558300,6.141558349609375,-0.09624242782592773,0.028430461883544922,0.09444713592529297
1761396092512936000,6.16093603515625,-0.0832662582397461,0.020970821380615234,0.061959028244018555
1761396092532313300,6.180313232421875,0.06397628784179688,-0.001865386962890625,-0.07590985298156738
1761396092551691000,6.19969091796875,0.18388795852661133,-0.0365900993347168,-0.1620779037475586
1761396092571068400,6.219068359375,0.08386373519897461,-0.037041664123535156,-0.0462946891784668
1761396092590446000,6.238446044921875,-0.1250615119934082,-0.019529342651367188,0.0773167610168457
1761396092609823500,6.257823486328125,-0.10103464126586914,-0.005241870880126953,0.04171943664550781
1761396092629201200,6.277201171875,-0.010197162628173828,-0.018943309783935547,0.23475992679595947
1761396092648578600,6.29657861328125,-0.006440639495849609,0.029300689697265625,0.2629958391189575
1761396092667956200,6.315956298828125,0.03186321258544922,0.019678115844726562,0.08006787300109863
1761396092687333600,6.335333740234375,0.060932159423828125,0.03331708908081055,-0.02878427505493164
1761396092706711300,6.354711181640625,0.1867070198059082,-0.0085906982421875,0.0219876766204834
1761396092726088700,6.374088623046875,0.1118001937866211,-0.05274343490600586,0.036484479904174805
1761396092745466400,6.39346630859375,-0.09973955154418945,-0.04493856430053711,-0.00872659683227539
1761396092764843800,6.41284375,-0.052351951599121094,-0.01070547103881836,-0.007370471954345703
1761396092784221400,6.432221435546875,0.04405498504638672,-0.019057750701904297,0.00432896614074707
1761396092803598800,6.451598876953125,0.03016948699951172,-0.0074367523193359375,-0.06980252265930176
1761396092822976500,6.4709765625,0.1623682975769043,0.005096435546875,-0.014003515243530273
1761396092842354000,6.49035400390625,0.14270544052124023,-0.01755523681640625,0.09477972984313965
1761396092861731600,6.509731689453125,-0.07082271575927734,0.020539283752441406,0.015950441360473633
1761396092881109000,6.52910888671875,-0.13449430465698242,0.0018129348754882812,0.10120749473571777
1761396092900486700,6.548486572265625,-0.012640953063964844,-0.003665447235107422,0.0778656005859375
1761396092919864000,6.567864013671875,0.09393453598022461,0.011855602264404297,0.04734444618225098
1761396092939241700,6.58724169921875,0.0745396614074707,0.014454364776611328,0.084014892578125
1761396092958619100,6.606619140625,0.0875086784362793,0.017472267150878906,0.0939023494720459
1761396092977996800,6.625996826171875,0.09582185745239258,0.0029325485229492188,0.09688735008239746
1761396092997374200,6.645374267578125,0.00127410888671875,-0.0010080337524414062,0.07863163948059082
1761396093016751900,6.664751953125,-0.07214879989624023,0.012720108032226562,0.07311034202575684
1761396093036129300,6.68412939453125,-0.056754112243652344,-0.004828929901123047,0.07805657386779785
1761396093055507000,6.7035068359375,-0.013324737548828125,-0.017859458923339844,0.0070476531982421875
1761396093074884600,6.722884521484375,0.02190113067626953,-0.039965152740478516,0.003942012786865234
1761396093094262000,6.742261962890625,0.11718893051147461,-0.02169513702392578,0.014272928237915039
1761396093113639400,6.761639404296875,0.15353059768676758,0.0027246475219726562,0.04797101020812988
1761396093133017000,6.78101708984375,0.06061744689941406,0.0339818000793457,0.028981447219848633
1761396093152394500,6.80039453125,-0.028231143951416016,0.016922473907470703,0.0502772331237793
1761396093171772200,6.819772216796875,-0.0712594985961914,0.01748180389404297,0.07135295867919922
1761396093191149600,6.839149658203125,-0.006576061248779297,0.005287647247314453,0.019046545028686523
1761396093210527200,6.85852734375,0.1264324188232422,-0.016313552856445312,-0.04274344444274902
1761396093229904600,6.877904541015625,0.16791057586669922,-0.04968976974487305,0.016467809677124023
1761396093249282300,6.8972822265625,0.057051658630371094,-0.017673492431640625,0.07647871971130371
1761396093268660000,6.916659912109375,0.06642341613769531,-0.0034613609313964844,0.12282085418701172
1761396093288037400,6.936037353515625,0.04973411560058594,0.011027336120605469,0.060594797134399414
1761396093307414800,6.955414794921875,-0.03848600387573242,-0.019975662231445312,0.0011494159698486328
1761396093326792400,6.97479248046875,-0.05138063430786133,-0.03284168243408203,0.023685455322265625
1761396093346170000,6.994170166015625,-0.04325437545776367,0.0016131401062011719,0.038701534271240234
1761396093365547500,7.013547607421875,-0.07324838638305664,0.02475118637084961,0.04253673553466797
1761396093384925200,7.03292529296875,0.0352473258972168,0.00487518310546875,-0.08316659927368164
1761396093404302600,7.052302490234375,0.21195363998413086,-0.021631240844726562,-0.07649970054626465
1761396093423680300,7.07168017578125,0.2301793098449707,-0.017618656158447266,0.00304412841796875
1761396093443057700,7.0910576171875,0.06651973724365234,0.027404308319091797,0.028650999069213867
1761396093462435300,7.110435302734375,0.01725149154663086,0.03528451919555664,0.0909271240234375
1761396093481812700,7.129812744140625,-0.07814311981201172,0.008679866790771484,0.16279315948486328
1761396093501190100,7.149190185546875,-0.1323704719543457,-0.03726911544799805,0.07526016235351562
1761396093520567800,7.16856787109375,0.0028028488159179688,-0.031169891357421875,0.01667928695678711
1761396093539945500,7.187945556640625,0.17988252639770508,-0.046938419342041016,0.0011761188507080078
1761396093559323000,7.207322998046875,0.00024890899658203125,-0.03756380081176758,0.047423362731933594
1761396093578700500,7.226700439453125,-0.16143274307250977,-0.013565540313720703,0.07164216041564941
1761396093598078000,7.246077880859375,-0.025741100311279297,0.01605844497680664,0.06373739242553711
1761396093617455400,7.265455322265625,0.08157777786254883,0.023407459259033203,0.0436244010925293
1761396093636833000,7.2848330078125,0.04716634750366211,0.007071971893310547,0.11369991302490234
1761396093656210700,7.304210693359375,0.08635425567626953,-0.008736610412597656,0.032408952713012695
1761396093675588000,7.323588134765625,0.14505672454833984,0.00754547119140625,-0.06534266471862793
1761396093694965800,7.3429658203125,0.1559767723083496,0.006826877593994141,-0.05493593215942383
1761396093714343200,7.36234326171875,0.03770303726196289,0.01735973358154297,-0.005876064300537109
1761396093733720800,7.381720947265625,-0.10768270492553711,0.012110233306884766,0.05946016311645508
1761396093753098200,7.40109814453125,-0.06436538696289062,-0.017035484313964844,0.07516121864318848
1761396093772476000,7.420475830078125,0.08330821990966797,-0.029851436614990234,-0.027329206466674805
1761396093791853300,7.439853271484375,0.0616002082824707,-0.03166341781616211,-0.01577448844909668
1761396093811230700,7.459230712890625,-0.06447887420654297,-0.003445148468017578,0.02845144271850586
1761396093830608400,7.4786083984375,-0.08075714111328125,-0.009020805358886719,0.08338522911071777
1761396093849986000,7.497986083984375,0.012603282928466797,-0.019979000091552734,0.08465766906738281
1761396093869363500,7.517363525390625,0.0702357292175293,-0.01403188705444336,0.04484677314758301
1761396093888741000,7.5367412109375,0.09685659408569336,0.0003829002380371094,0.010516881942749023
1761396093908118500,7.556118408203125,0.10796976089477539,0.000293731689453125,-0.02765655517578125
1761396093927496000,7.575495849609375,0.0835413932800293,-0.010210514068603516,0.049829721450805664
1761396093946873600,7.59487353515625,0.0014033317565917969,-0.0018181800842285156,0.11322999000549316
1761396093966251300,7.614251220703125,-0.024636268615722656,0.019564151763916016,0.04839920997619629
1761396093985628700,7.633628662109375,-0.015843868255615234,0.01946258544921875,0.026001453399658203
1761396094005006000,7.653006103515625,-0.0207672119140625,-0.002644062042236328,0.02064681053161621
1761396094024383700,7.6723837890625,0.025606632232666016,-0.009906768798828125,0.008996248245239258
1761396094043761200,7.69176123046875,0.034216880798339844,-0.034501075744628906,0.033531904220581055
1761396094063138800,7.711138916015625,0.0017199516296386719,-0.015265464782714844,-0.0247957706451416
1761396094082516500,7.7305166015625,0.010179996490478516,-0.024176597595214844,0.004427909851074219
1761396094101894000,7.749893798828125,0.02044820785522461,-0.0371551513671875,-0.010422945022583008
1761396094121271300,7.769271240234375,0.05805826187133789,-0.008416175842285156,-0.05351758003234863
1761396094140649000,7.78864892578125,0.0858449935913086,-0.008285045623779297,0.022937536239624023
1761396094160026400,7.8080263671875,0.031748294830322266,-0.01420736312866211,0.03962087631225586
1761396094179404000,7.827404052734375,0.05910539627075195,0.024803638458251953,0.03975677490234375
1761396094198781700,7.84678173828125,0.0147857666015625,0.018045425415039062,0.18566060066223145
1761396094218159000,7.8661591796875,-0.30338478088378906,0.048041343688964844,0.17610764503479004
1761396094237536500,7.88553662109375,-0.21294927597045898,0.011305809020996094,0.05373692512512207
1761396094256914200,7.9049140625,0.22475910186767578,-0.0791006088256836,-0.18523836135864258
1761396094276291600,7.92429150390625,0.2886934280395508,-0.0733180046081543,-0.20074224472045898
1761396094295669200,7.943669189453125,0.10675191879272461,0.000007152557373046875,0.13878607749938965
1761396094315046700,7.963046630859375,0.09695148468017578,0.006454944610595703,0.21140098571777344
1761396094334424300,7.98242431640625,-0.10079431533813477,0.006409645080566406,0.10444521903991699
1761396094353801700,8.0018017578125,-0.0776820182800293,0.0316462516784668,0.051619529724121094
1761396094373179400,8.021179443359374,0.18804216384887695,0.030600547790527344,-0.12082028388977051
1761396094392556800,8.040556884765625,0.2418675422668457,0.007457256317138672,-0.1046900749206543
1761396094411934500,8.0599345703125,0.17499876022338867,0.006148338317871094,0.16543269157409668
1761396094431312000,8.079311767578124,-0.03357362747192383,0.009596824645996094,0.26441478729248047
1761396094450689500,8.098689453125,-0.2962226867675781,0.006224632263183594,0.08949613571166992
1761396094470067000,8.11806689453125,-0.12509632110595703,0.013240337371826172,-0.09404921531677246
1761396094489444600,8.137444580078125,0.12622690200805664,0.02749013900756836,0.09487557411193848
1761396094508822000,8.156822021484375,0.28624486923217773,-0.049425601959228516,0.21551012992858887
1761396094528199700,8.17619970703125,0.10402441024780273,0.03696775436401367,0.025530576705932617
1761396094547577000,8.1955771484375,-0.06061220169067383,-0.0029354095458984375,0.05177593231201172
1761396094566954800,8.214954833984375,-0.005446910858154297,-0.014409065246582031,0.09529900550842285
1761396094586332200,8.234332275390624,0.07729148864746094,0.009987831115722656,-0.03365969657897949
1761396094605709800,8.253709716796875,0.11846160888671875,-0.007794380187988281,-0.04011082649230957
1761396094625087200,8.273087158203126,-0.13607072830200195,0.0889730453491211,-0.0428774356842041
1761396094644465000,8.29246484375,-0.06493616104125977,0.008855342864990234,-0.10033130645751953
1761396094663842300,8.31184228515625,0.1828322410583496,-0.014415264129638672,-0.06422781944274902
1761396094683220000,8.331219970703126,0.02060222625732422,-0.0813288688659668,0.04496455192565918
1761396094702597400,8.350597412109375,0.06934690475463867,-0.027738571166992188,-0.00875711441040039
1761396094721975000,8.36997509765625,0.14998579025268555,-0.035515785217285156,0.05821108818054199
1761396094741352400,8.3893525390625,-0.1485447883605957,-0.05699443817138672,0.052951812744140625
1761396094760730000,8.408730224609375,-0.2824273109436035,-0.02247476577758789,-0.05557084083557129
1761396094780107500,8.428107421875,-0.13937997817993164,-0.00017881393432617188,0.12587666511535645
1761396094799485200,8.447485107421874,0.06365108489990234,0.002112865447998047,0.11464858055114746
1761396094818862600,8.466862548828125,0.2270793914794922,-0.03963327407836914,0.06026053428649902
1761396094838240000,8.486239990234376,0.24347877502441406,-0.007830142974853516,0.017693758010864258
1761396094857617700,8.50561767578125,0.0031256675720214844,-0.014645099639892578,0.015122652053833008
1761396094876995000,8.5249951171875,-0.0020074844360351562,-0.014287471771240234,-0.11425900459289551
1761396094896372700,8.544372802734374,0.0708918571472168,0.0477147102355957,-0.02648782730102539
1761396094915750100,8.563750244140625,-0.09757518768310547,0.07995748519897461,0.2654585838317871
1761396094935127800,8.5831279296875,-0.15701675415039062,0.03968334197998047,0.21261334419250488
1761396094954505200,8.602505126953124,0.13482093811035156,0.030167102813720703,-0.03382444381713867
1761396094973883000,8.6218828125,0.30316781997680664,-0.047130584716796875,-0.034548282623291016
1761396094993260300,8.64126025390625,0.26800060272216797,-0.06656885147094727,-0.17163634300231934
1761396095012638000,8.660637939453125,-0.2984175682067871,-0.057505130767822266,-0.014507770538330078
1761396095032015400,8.680015380859375,-0.4713449478149414,0.028387069702148438,0.15722227096557617
1761396095051393000,8.69939306640625,0.1730360984802246,-0.011443138122558594,0.195145845413208
1761396095070770400,8.7187705078125,0.8461117744445801,-0.0940542221069336,0.004641056060791016
1761396095090148000,8.738148193359375,1.1228599548339844,-0.028261184692382812,-0.0924985408782959
1761396095109525500,8.757525390625,-0.06842660903930664,-0.06571054458618164,-0.2810499668121338
1761396095128903200,8.776903076171875,-0.8236594200134277,0.06788969039916992,-0.17818641662597656
1761396095148280600,8.796280517578126,-0.5266819000244141,-0.038445472717285156,0.10987973213195801
1761396095167658200,8.815658203125,-0.10896825790405273,0.02615499496459961,0.1725461483001709
1761396095187035600,8.83503564453125,-0.279599666595459,0.08350086212158203,0.3127772808074951
