time,seconds_elapsed,z,y,x
1761396086476827400,0.124827392578125,5.19541597366333,7.872984886169434,-2.578864574432373
1761396086496205000,0.144205078125,5.355136871337891,7.82692289352417,-2.485544443130493
1761396086515582700,0.163582763671875,5.400002479553223,7.8077802658081055,-2.4580271244049072
1761396086534960000,0.182960205078125,5.371886730194092,7.82692289352417,-2.5016961097717285
1761396086554337800,0.202337890625,5.224130153656006,7.892725467681885,-2.4670002460479736
1761396086573715200,0.221715087890625,5.150550842285156,7.936394691467285,-2.3910279273986816
1761396086593092900,0.2410927734375,5.381458282470703,7.93579626083374,-2.3982064723968506
1761396086612470500,0.260470458984375,5.566303730010986,7.899305820465088,-2.3916261196136475
1761396086631848000,0.279847900390625,5.526822090148926,7.901698589324951,-2.3611178398132324
1761396086651225600,0.2992255859375,5.358128070831299,7.8819580078125,-2.2923240661621094
1761396086670603000,0.31860302734375,5.293521881103516,7.8819580078125,-2.297708034515381
1761396086689980700,0.337980712890625,5.073980331420898,7.895716667175293,-2.2229323387145996
1761396086709358300,0.3573583984375,5.1182475090026855,7.934001445770264,-2.2636101245880127
1761396086728735700,0.37673583984375,5.150550842285156,7.929215908050537,-2.249253273010254
1761396086748113400,0.396113525390625,5.292923450469971,7.93579626083374,-2.3641088008880615
1761396086767491000,0.415490966796875,5.499902725219727,7.967501163482666,-2.3922245502471924
1761396086786868500,0.434868408203125,5.637490272521973,7.99083137512207,-2.2749760150909424
1761396086806246100,0.45424609375,5.511867046356201,7.969295978546143,-2.2755744457244873
1761396086825623800,0.473623779296875,5.3455657958984375,7.960920810699463,-2.4400808811187744
1761396086845001200,0.493001220703125,5.258227825164795,7.9381890296936035,-2.459223508834839
1761396086864379000,0.51237890625,5.269593715667725,7.878368377685547,-2.352144718170166
1761396086883756300,0.53175634765625,5.224728107452393,7.820342540740967,-2.444268226623535
1761396086903134000,0.551134033203125,5.181657314300537,7.811967849731445,-2.5118656158447266
1761396086922511600,0.57051171875,5.196014404296875,7.825128078460693,-2.572882652282715
1761396086941889000,0.589888916015625,5.139184951782227,7.8765740394592285,-2.6422743797302246
1761396086961266700,0.6092666015625,5.116453170776367,7.892725467681885,-2.5363919734954834
1761396086980644400,0.628644287109375,5.111069202423096,7.934001445770264,-2.3563320636749268
1761396087000021800,0.648021728515625,5.185844898223877,7.963912010192871,-2.227717876434326
1761396087019399400,0.6673994140625,5.419743061065674,7.920242786407471,-2.3030917644500732
1761396087038776800,0.68677685546875,5.648257732391357,7.882555961608887,-2.472383975982666
1761396087058154500,0.706154541015625,5.610570907592773,7.913064479827881,-2.472383975982666
1761396087077532200,0.7255322265625,5.295914649963379,7.974081516265869,-2.368894338607788
1761396087096909600,0.74490966796875,5.099703311920166,8.002197265625,-2.352742910385132
1761396087116287200,0.764287353515625,5.160720348358154,7.948358535766602,-2.325225353240967
1761396087135664600,0.78366455078125,5.222335338592529,7.909475326538086,-2.3395824432373047
1761396087155042300,0.803042236328125,5.230112075805664,7.878368377685547,-2.334796667098999
1761396087174420000,0.822419921875,5.292325496673584,7.898707389831543,-2.3676979541778564
1761396087193797400,0.84179736328125,5.432305812835693,7.931010723114014,-2.310270309448242
1761396087213175000,0.861175048828125,5.414957523345947,7.957930088043213,-2.2055842876434326
1761396087232552700,0.880552734375,5.175076961517334,7.937591075897217,-2.2085752487182617
1761396087251930000,0.89993017578125,4.946562767028809,7.930412292480469,-2.403590440750122
1761396087271307800,0.919307861328125,5.1667022705078125,7.875377655029297,-2.578864574432373
1761396087290685200,0.938685302734375,5.517251014709473,7.825128078460693,-2.6739792823791504
1761396087310062800,0.958062744140625,5.422136306762695,7.841279983520508,-2.6147570610046387
1761396087329440500,0.9774404296875,5.194219589233398,7.858627796173096,-2.5094728469848633
1761396087348818000,0.99681787109375,5.187041282653809,7.88494873046875,-2.65842604637146
1761396087368195600,1.016195556640625,5.253442287445068,7.88076114654541,-2.709273338317871
1761396087387573200,1.0355732421875,5.388038158416748,7.897511005401611,-2.568695068359375
1761396087406950700,1.05495068359375,5.542375564575195,7.920841217041016,-2.392822742462158
1761396087426328300,1.074328369140625,5.411368370056152,7.952546119689941,-2.2683959007263184
1761396087445705700,1.093705810546875,5.124229907989502,7.995616912841797,-2.2061824798583984
1761396087465083400,1.11308349609375,5.08355188369751,8.015357971191406,-2.1517457962036133
1761396087484461000,1.1324609375,5.343770980834961,7.998608112335205,-2.2534406185150146
1761396087503838500,1.15183837890625,5.4759745597839355,7.970492362976074,-2.3018953800201416
1761396087523216100,1.171216064453125,5.3593244552612305,7.977072715759277,-2.1828525066375732
1761396087542593500,1.190593505859375,5.158327579498291,7.957331657409668,-2.0691933631896973
1761396087561971200,1.20997119140625,5.178666591644287,7.948358535766602,-2.262413740158081
1761396087581348900,1.229348876953125,5.296513080596924,7.980661869049072,-2.3605196475982666
1761396087600726300,1.248726318359375,5.457430362701416,8.011170387268066,-2.2480568885803223
1761396087620104000,1.26810400390625,5.304289817810059,7.998608112335205,-2.2031915187835693
1761396087639481300,1.2874814453125,4.957330226898193,7.968697547912598,-2.4191436767578125
1761396087658859000,1.30685888671875,4.704289436340332,7.954938888549805,-2.531606435775757
1761396087678236700,1.326236572265625,4.934598445892334,7.832904815673828,-2.571686029434204
1761396087697614000,1.345614013671875,5.307280540466309,7.832904815673828,-2.5938198566436768
1761396087716991700,1.36499169921875,5.347958564758301,7.868797302246094,-2.581855535507202
1761396087736369200,1.384369140625,5.124229907989502,7.821538925170898,-2.4717857837677
1761396087755746800,1.403746826171875,5.173880577087402,8.014759063720703,-2.578864574432373
1761396087775124500,1.42312451171875,5.157131195068359,7.99800968170166,-2.23848557472229
1761396087794502000,1.442501953125,4.948955535888672,7.910671710968018,-2.186441659927368
1761396087813879600,1.461879638671875,4.907679080963135,7.906484127044678,-2.4460630416870117
1761396087833257200,1.48125732421875,5.49930477142334,7.850253105163574,-2.682354211807251
1761396087852634600,1.500634521484375,5.952744483947754,7.9250288009643555,-2.65842604637146
1761396087872012300,1.52001220703125,5.912664890289307,7.9728851318359375,-2.4705893993377686
1761396087891389700,1.5393896484375,5.574080467224121,8.045866012573242,-2.4263222217559814
1761396087910767400,1.558767333984375,5.175675392150879,8.049455642700195,-2.1846470832824707
1761396087930145000,1.57814501953125,5.017749309539795,7.985447406768799,-2.117648124694824
1761396087949522400,1.5975224609375,5.185246467590332,7.891529083251953,-2.2815563678741455
1761396087968900000,1.616900146484375,5.252843856811523,7.865208148956299,-2.2325034141540527
1761396087988277500,1.636277587890625,5.229514122009277,7.8903326988220215,-2.2743778228759766
1761396088007655200,1.6556552734375,5.242674350738525,7.993224143981934,-2.4370899200439453
1761396088027032800,1.67503271484375,5.165505886077881,8.002197265625,-2.2683959007263184
1761396088046410200,1.69441015625,5.07517671585083,8.014161109924316,-2.0721843242645264
1761396088065788000,1.713787841796875,5.102694511413574,8.033304214477539,-2.0955145359039307
1761396088085165300,1.733165283203125,5.2283172607421875,8.124829292297363,-1.9489539861679077
1761396088104543000,1.75254296875,5.289932727813721,7.99083137512207,-1.5936198234558105
1761396088123920600,1.771920654296875,5.193621635437012,7.989036560058594,-1.8454644680023193
1761396088143298000,1.791298095703125,5.157131195068359,8.001599311828613,-2.1918256282806396
1761396088162675700,1.81067578125,5.209773063659668,8.026723861694336,-2.2743778228759766
1761396088182053000,1.83005322265625,5.340780258178711,8.046463966369629,-2.2235305309295654
1761396088201430800,1.8494306640625,5.321039199829102,8.002197265625,-2.149951219558716
1761396088220808200,1.86880810546875,5.252843856811523,7.992625713348389,-2.2546372413635254
1761396088240185900,1.888185791015625,5.418546676635742,7.932207107543945,-2.2851455211639404
1761396088259563500,1.9075634765625,5.510072231292725,7.895716667175293,-2.369492530822754
1761396088278941000,1.92694091796875,5.365306377410889,7.923233985900879,-2.465205430984497
1761396088298318600,1.946318603515625,5.151747226715088,7.929814338684082,-2.4424736499786377
1761396088317696000,1.965696044921875,5.018347263336182,7.949554920196533,-2.3497519493103027
1761396088337073700,1.98507373046875,5.085346221923828,7.963912010192871,-2.2995026111602783
1761396088356451300,2.004451416015625,5.338985443115234,7.921439170837402,-2.321038007736206
1761396088375828700,2.023828857421875,5.460421085357666,7.936992645263672,-2.2959132194519043
1761396088395206400,2.043206298828125,5.298905849456787,7.934599876403809,-2.2510478496551514
1761396088414583800,2.062583740234375,5.288137912750244,7.977670669555664,-2.389233350753784
1761396088433961500,2.08196142578125,5.277968406677246,7.969893932342529,-2.2474586963653564
1761396088453339100,2.101339111328125,5.258825778961182,7.984848976135254,-2.1415762901306152
1761396088472716500,2.120716552734375,5.492125988006592,7.989634990692139,-2.179861545562744
1761396088492094200,2.14009423828125,5.472385406494141,7.953742504119873,-2.197807550430298
1761396088511471600,2.1594716796875,5.114060401916504,7.980661869049072,-2.2887349128723145
1761396088530849300,2.178849365234375,5.033302307128906,7.99083137512207,-2.1948165893554688
1761396088550227000,2.19822705078125,5.184648513793945,7.963912010192871,-2.204986095428467
1761396088569604400,2.217604248046875,5.37069034576416,7.953742504119873,-2.283350944519043
1761396088588982000,2.23698193359375,5.302495002746582,7.943572998046875,-2.2067806720733643
1761396088608359400,2.256359375,5.220541000366211,7.981858253479004,-2.2785654067993164
1761396088627737000,2.275737060546875,5.258825778961182,7.9866437911987305,-2.221137523651123
1761396088647114800,2.29511474609375,5.274379253387451,7.949554920196533,-2.1128623485565186
1761396088666492200,2.3144921875,5.213362216949463,7.9758758544921875,-2.1511476039886475
1761396088685869800,2.333869873046875,5.112265586853027,8.004590034484863,-2.0709879398345947
1761396088705247200,2.353247314453125,5.132604598999023,7.999804496765137,-2.0470597743988037
1761396088724625000,2.372625,5.282754421234131,7.987840175628662,-2.179263114929199
1761396088744002600,2.39200244140625,5.469394207000732,7.9866437911987305,-2.1266210079193115
1761396088763380000,2.4113798828125,5.485546112060547,8.025527000427246,-1.9465612173080444
1761396088782757600,2.430757568359375,5.226522922515869,8.071588516235352,-1.9202401638031006
1761396088802135000,2.450135009765625,5.183452129364014,8.062017440795898,-2.05603289604187
1761396088821512700,2.4695126953125,5.316253662109375,7.9830546379089355,-2.1511476039886475
1761396088840890000,2.48889013671875,5.4041900634765625,7.970492362976074,-2.2127628326416016
1761396088860267800,2.508267822265625,5.38205623626709,7.977072715759277,-2.097309112548828
1761396088879645400,2.5276455078125,5.335994720458984,8.036294937133789,-1.9818553924560547
1761396088899022800,2.54702294921875,5.231308460235596,8.060821533203125,-1.9537396430969238
1761396088918400500,2.566400390625,5.201996326446533,8.059624671936035,-2.0967109203338623
1761396088937778000,2.58577783203125,5.361717224121094,8.015357971191406,-2.1888344287872314
1761396088957155600,2.605155517578125,5.48793888092041,7.940581798553467,-2.1469600200653076
1761396088976533200,2.624533203125,5.468796253204346,7.945367813110352,-2.2923240661621094
1761396088995910700,2.64391064453125,5.327619552612305,7.956135272979736,-2.396411895751953
1761396089015288300,2.663288330078125,5.3694939613342285,7.932207107543945,-2.3150558471679688
1761396089034665700,2.682665771484375,5.434100151062012,7.911868095397949,-2.1505494117736816
1761396089054043400,2.70204345703125,5.074578762054443,7.905886173248291,-2.0709879398345947
1761396089073420800,2.7214208984375,4.607379913330078,7.929215908050537,-2.1678972244262695
1761396089092798500,2.740798583984375,4.744967460632324,7.927421569824219,-2.3473589420318604
1761396089112176000,2.760176025390625,5.342574596405029,7.913064479827881,-2.335394859313965
1761396089131553500,2.779553466796875,5.776872158050537,7.929215908050537,-2.2067806720733643
1761396089150931200,2.79893115234375,5.624329566955566,8.000402450561523,-2.0967109203338623
1761396089170308600,2.81830859375,5.2839508056640625,8.053044319152832,-2.0105693340301514
1761396089189686300,2.837686279296875,5.082953453063965,8.049455642700195,-1.9938194751739502
1761396089209064000,2.85706396484375,5.391029357910156,8.039883613586426,-2.091326951980591
1761396089228441300,2.87644140625,5.6925249099731445,8.000402450561523,-2.1020946502685547
1761396089247819000,2.895819091796875,5.492724418640137,7.980063438415527,-2.196611166000366
1761396089267196400,2.915196533203125,5.232504844665527,7.973483085632324,-2.2989044189453125
1761396089286574000,2.934573974609375,5.187041282653809,7.971090316772461,-2.26959228515625
1761396089305951500,2.953951416015625,5.202594757080078,7.953144073486328,-2.1894326210021973
1761396089325329200,2.9733291015625,5.056034088134766,7.918448448181152,-2.211566209793091
1761396089344706800,2.992706787109375,5.079962253570557,7.916055679321289,-2.287538528442383
1761396089364084200,3.012084228515625,5.426921844482422,7.934599876403809,-2.2995026111602783
1761396089383462000,3.0314619140625,5.4951171875,7.9489569664001465,-2.1822543144226074
1761396089402839300,3.05083935546875,5.270790100097656,7.969893932342529,-2.1164517402648926
1761396089422217000,3.070217041015625,5.194219589233398,7.976474285125732,-2.142174482345581
1761396089441594400,3.089594482421875,5.3246283531188965,7.971090316772461,-2.191227436065674
1761396089460972000,3.108971923828125,5.37906551361084,7.954938888549805,-2.2402801513671875
1761396089480349700,3.128349609375,5.327021598815918,7.973483085632324,-2.184048891067505
1761396089499727000,3.14772705078125,5.301896572113037,7.981858253479004,-2.1379871368408203
1761396089519104800,3.167104736328125,5.318646430969238,7.95434045791626,-2.1164517402648926
1761396089538482200,3.186482177734375,5.303691387176514,7.938787460327148,-2.17627215385437
1761396089557859800,3.20585986328125,5.286343574523926,7.967501163482666,-2.1960129737854004
1761396089577237200,3.2252373046875,5.166104316711426,8.007580757141113,-2.146361827850342
1761396089596615000,3.244614990234375,5.047060966491699,8.021339416503906,-2.11405873298645
1761396089615992600,3.26399267578125,5.270790100097656,7.984251022338867,-2.1858434677124023
1761396089635370000,3.283369873046875,5.5968122482299805,7.957331657409668,-2.1403799057006836
1761396089654747600,3.30274755859375,5.460421085357666,7.95434045791626,-2.097907304763794
1761396089674125000,3.322125,5.242076396942139,7.985447406768799,-2.169093608856201
1761396089693502700,3.341502685546875,5.119443893432617,7.9351983070373535,-2.258824586868286
1761396089712880400,3.36088037109375,5.354538917541504,7.883752346038818,-2.4532413482666016
1761396089732257800,3.3802578125,5.415555953979492,7.893921852111816,-2.221735715866089
1761396089751635500,3.399635498046875,5.074578762054443,7.920242786407471,-2.1684954166412354
1761396089771012900,3.419012939453125,4.951348304748535,7.944170951843262,-2.3192434310913086
1761396089790390500,3.438390625,5.304887771606445,7.907680511474609,-2.392822742462158
1761396089809768000,3.457767822265625,5.578866004943848,7.883154392242432,-2.438286304473877
1761396089829145600,3.4771455078125,5.539384365081787,7.886743545532227,-2.4394826889038086
1761396089848523000,3.49652294921875,5.514857769012451,7.936992645263672,-2.283949136734009
1761396089867900700,3.515900634765625,5.547759532928467,7.959724426269531,-2.1583259105682373
1761396089887278300,3.5352783203125,5.50229549407959,7.9657063484191895,-2.1918256282806396
1761396089906655700,3.55465576171875,5.380859851837158,7.995018482208252,-2.1589243412017822
1761396089926033400,3.574033447265625,5.230112075805664,7.982456207275391,-2.103889226913452
1761396089945410800,3.593410888671875,5.191826820373535,7.964509963989258,-2.148754835128784
1761396089964788500,3.61278857421875,5.282754421234131,7.944769382476807,-2.1714866161346436
1761396089984166000,3.632165771484375,5.319244861602783,7.893921852111816,-2.207977056503296
1761396090003543600,3.65154345703125,5.398806095123291,7.916055679321289,-2.352742910385132
1761396090022921200,3.670921142578125,5.413761138916016,7.920242786407471,-2.231307029724121
1761396090042298600,3.690298583984375,5.2767720222473145,7.95434045791626,-2.1894326210021973
1761396090061676300,3.70967626953125,5.085944652557373,7.9968132972717285,-2.076371908187866
1761396090081053700,3.7290537109375,5.115854740142822,8.01057243347168,-1.9256240129470825
1761396090100431400,3.748431396484375,5.212165832519531,7.974081516265869,-2.0309081077575684
1761396090119808800,3.767808837890625,5.30847692489624,7.9381890296936035,-2.3461625576019287
1761396090139186400,3.7871865234375,5.554339408874512,7.95434045791626,-2.4538395404815674
1761396090158563800,3.806563720703125,5.698507308959961,7.966304779052734,-2.190030813217163
1761396090177941500,3.82594140625,5.458028316497803,8.0291166305542,-1.9812572002410889
1761396090197319200,3.845319091796875,5.207978248596191,8.045268058776855,-1.9692929983139038
1761396090216696600,3.864696533203125,5.149354457855225,8.029714584350586,-1.9716858863830566
1761396090236074200,3.88407421875,5.174479007720947,7.952546119689941,-1.9280169010162354
1761396090255451600,3.90345166015625,5.154737949371338,7.901698589324951,-2.079961061477661
1761396090274829300,3.922829345703125,5.1768717765808105,7.898109436035156,-2.227717876434326
1761396090294206700,3.942206787109375,5.158327579498291,7.9591264724731445,-2.160120725631714
1761396090313584400,3.96158447265625,5.167300701141357,7.989634990692139,-2.0338993072509766
1761396090332962000,3.980962158203125,5.240880012512207,7.917252063751221,-2.0512471199035645
1761396090352339500,4.00033935546875,5.461617469787598,7.922635555267334,-2.1894326210021973
1761396090371717000,4.019717041015625,5.739185333251953,7.807182312011719,-1.9411773681640625
1761396090391094500,4.039094482421875,5.936593055725098,8.017151832580566,-1.95852530002594
1761396090410472200,4.05847216796875,5.8061842918396,8.452047348022461,-2.2959132194519043
1761396090429849600,4.077849609375,5.162514686584473,8.220541954040527,-2.586043119430542
1761396090449227300,4.097227294921875,4.561318397521973,7.789236068725586,-2.8977081775665283
1761396090468604700,4.116604736328125,4.646263599395752,7.667799949645996,-2.736790895462036
1761396090487982300,4.135982421875,5.1906304359436035,7.675576686859131,-2.1613171100616455
1761396090507360000,4.155360107421875,5.261219024658203,7.835896015167236,-2.1104695796966553
1761396090526737400,4.1747373046875,4.974678039550781,7.8317084312438965,-2.3306093215942383
1761396090546115000,4.194114990234375,5.155336380004883,8.10389232635498,-2.702693223953247
1761396090565492500,4.213492431640625,5.793622016906738,8.14217758178711,-2.50289249420166
1761396090584870100,4.2328701171875,5.796612739562988,7.972286701202393,-1.9184455871582031
1761396090604247600,4.25224755859375,5.400002479553223,7.89332389831543,-1.43389892578125
1761396090623625200,4.271625244140625,5.131408214569092,8.058428764343262,-1.583450436592102
1761396090643002600,4.291002685546875,5.139184951782227,8.100302696228027,-2.0787646770477295
1761396090662380300,4.31038037109375,5.347958564758301,7.975277900695801,-2.341377019882202
1761396090681757700,4.3297578125,5.480760097503662,7.9728851318359375,-2.2719850540161133
1761396090701135400,4.34913525390625,5.439484119415283,8.01236629486084,-2.001596212387085
1761396090720513000,4.368512939453125,5.240281581878662,8.005785942077637,-1.8963119983673096
1761396090739890400,4.387890380859375,5.123033046722412,8.051250457763672,-2.0883359909057617
1761396090759268000,4.40726806640625,5.066203594207764,8.093124389648438,-2.15653133392334
1761396090778645500,4.4266455078125,4.953741073608398,8.052446365356445,-2.1930220127105713
1761396090798023200,4.446023193359375,5.033302307128906,7.991429328918457,-2.365305185317993
1761396090817400600,4.465400634765625,5.413163185119629,7.912466049194336,-2.4257240295410156
1761396090836778200,4.4847783203125,5.632704734802246,7.837690353393555,-2.2097716331481934
1761396090856156000,4.504156005859375,5.3593244552612305,7.835297584533691,-2.1684954166412354
1761396090875533300,4.523533203125,5.1667022705078125,8.021339416503906,-2.447857618331909
1761396090894911000,4.542910888671875,5.355136871337891,7.983652591705322,-2.4221346378326416
1761396090914288400,4.562288330078125,5.467001438140869,7.9250288009643555,-2.266003131866455
1761396090933666000,4.581666015625,5.44008207321167,7.94716215133667,-2.084746837615967
1761396090953043500,4.60104345703125,5.357530117034912,8.066802978515625,-1.9770697355270386
1761396090972421000,4.620421142578125,5.117051124572754,8.109275817871094,-1.903490424156189
1761396090991798500,4.639798583984375,4.988437175750732,8.075776100158691,-2.1032910346984863
1761396091011176200,4.65917626953125,5.1774702072143555,7.9758758544921875,-2.3742783069610596
1761396091030553600,4.6785537109375,5.3970112800598145,7.929814338684082,-2.2959132194519043
1761396091049931300,4.69793115234375,5.3694939613342285,7.948358535766602,-2.090130567550659
1761396091069309000,4.717308837890625,5.3455657958984375,8.009973526000977,-1.9926230907440186
1761396091088686300,4.736686279296875,5.226522922515869,8.065607070922852,-2.0093727111816406
1761396091108064000,4.75606396484375,5.06799840927124,7.987242221832275,-2.1577277183532715
1761396091127441400,4.77544140625,5.18105936050415,7.992625713348389,-2.3300111293792725
1761396091146819000,4.794819091796875,5.353342533111572,7.979465484619141,-2.115255117416382
1761396091166196500,4.814196533203125,5.432305812835693,7.963912010192871,-2.029113531112671
1761396091185574100,4.83357421875,5.3353962898254395,7.9519476890563965,-2.0614166259765625
1761396091204951600,4.85295166015625,5.1876397132873535,7.926823139190674,-2.194218397140503
1761396091224329200,4.8723291015625,5.222335338592529,7.972286701202393,-2.349153518676758
1761396091243706600,4.89170654296875,5.2354960441589355,7.936394691467285,-2.225325107574463
1761396091263084300,4.911084228515625,5.122435092926025,7.953742504119873,-2.1505494117736816
1761396091282462000,4.9304619140625,5.114060401916504,7.976474285125732,-2.101496458053589
1761396091301839400,4.94983935546875,5.222335338592529,8.038687705993652,-2.225325107574463
1761396091321216800,4.969216796875,5.411966800689697,8.054839134216309,-2.3054845333099365
1761396091340594400,4.988594482421875,5.593821048736572,8.036892890930176,-2.0679969787597656
1761396091359972000,5.00797216796875,5.526822090148926,7.984848976135254,-1.8813568353652954
1761396091379349500,5.027349609375,5.292325496673584,7.992027759552002,-2.1379871368408203
1761396091398727200,5.04672705078125,5.1080780029296875,7.9830546379089355,-2.437688112258911
1761396091418104600,5.0661044921875,5.194818019866943,7.910073280334473,-2.5501506328582764
1761396091437482200,5.085482177734375,5.271986484527588,7.867002487182617,-2.372483730316162
1761396091456859600,5.104859619140625,5.188836097717285,7.893921852111816,-2.2815563678741455
1761396091476237300,5.1242373046875,5.146961688995361,7.9244303703308105,-2.2851455211639404
1761396091495614700,5.14361474609375,5.314459323883057,7.92861795425415,-2.2845473289489746
1761396091514992400,5.162992431640625,5.453242778778076,7.939385414123535,-2.2851455211639404
1761396091534369800,5.182369873046875,5.371288776397705,8.00937557220459,-2.221137523651123
1761396091553747500,5.20174755859375,5.306084156036377,8.047062873840332,-2.0859432220458984
1761396091573125000,5.221125,5.303691387176514,8.063812255859375,-2.059622049331665
1761396091592502500,5.24050244140625,5.3312087059021,8.053643226623535,-1.9806588888168335
1761396091611880000,5.2598798828125,5.283352375030518,8.024331092834473,-1.9669002294540405
1761396091631257600,5.279257568359375,5.193023204803467,7.954938888549805,-2.059622049331665
1761396091650635300,5.29863525390625,5.187041282653809,7.978269100189209,-2.2360928058624268
1761396091670012700,5.3180126953125,5.230112075805664,7.984251022338867,-2.2337000370025635
1761396091689390300,5.337390380859375,5.316253662109375,7.977072715759277,-2.1128623485565186
1761396091708767700,5.356767822265625,5.209773063659668,7.970492362976074,-2.0931215286254883
1761396091728145400,5.3761455078125,5.2253265380859375,7.973483085632324,-2.197807550430298
1761396091747522800,5.395522705078125,5.338985443115234,7.973483085632324,-2.2331018447875977
1761396091766900500,5.414900390625,5.410171985626221,7.981259822845459,-2.2791635990142822
1761396091786278000,5.43427783203125,5.362315654754639,7.932207107543945,-2.3270199298858643
1761396091805655600,5.453655517578125,5.377869129180908,7.9250288009643555,-2.2654049396514893
1761396091825033000,5.473032958984375,5.261219024658203,7.9627156257629395,-2.1415762901306152
1761396091844410600,5.49241064453125,5.02851676940918,8.002795219421387,-2.1236300468444824
1761396091863788000,5.5117880859375,4.883152961730957,7.972286701202393,-2.0297117233276367
1761396091883165700,5.531165771484375,4.811367988586426,8.00100040435791,-2.1541385650634766
1761396091902543400,5.55054345703125,5.196612358093262,7.965108394622803,-2.1481566429138184
1761396091921920800,5.569920654296875,5.566901683807373,7.994420528411865,-2.2408783435821533
1761396091941298400,5.58929833984375,5.67756986618042,8.024331092834473,-2.1547367572784424
1761396091960675800,5.60867578125,5.576473236083984,8.066802978515625,-1.9992033243179321
1761396091980053500,5.628053466796875,5.517251014709473,8.097311973571777,-1.9369899034500122
1761396091999431000,5.647430908203125,5.473581790924072,8.047062873840332,-2.0003998279571533
1761396092018808600,5.66680859375,5.384449005126953,7.9830546379089355,-2.1780667304992676
1761396092038186000,5.68618603515625,5.225924491882324,7.942376613616943,-2.256431818008423
1761396092057563600,5.705563720703125,5.153541564941406,7.950751304626465,-2.2169501781463623
1761396092076941000,5.724941162109375,5.087738990783691,7.945367813110352,-2.18045973777771
1761396092096318700,5.744318603515625,5.036891460418701,7.989634990692139,-2.197209358215332
1761396092115696000,5.763696044921875,5.082953453063965,7.977670669555664,-2.1948165893554688
1761396092135073800,5.78307373046875,5.165505886077881,7.978867053985596,-2.2097716331481934
1761396092154451200,5.802451171875,5.344967365264893,7.966304779052734,-2.184048891067505
1761396092173828900,5.821828857421875,5.313262462615967,7.965108394622803,-2.2618155479431152
1761396092193206300,5.841206298828125,5.288137912750244,7.966903209686279,-2.3700907230377197
1761396092212584000,5.860583984375,5.474778175354004,7.957331657409668,-2.318047046661377
1761396092231961300,5.87996142578125,5.472385406494141,7.945367813110352,-2.297109842300415
1761396092251339000,5.899339111328125,5.236692428588867,7.954938888549805,-2.4287149906158447
1761396092270716700,5.918716552734375,5.165505886077881,7.941778182983398,-2.35872483253479
1761396092290094000,5.938093994140625,5.269593715667725,7.969295978546143,-2.0656042098999023
1761396092309471700,5.9574716796875,5.30548620223999,7.983652591705322,-2.091326951980591
1761396092328849200,5.97684912109375,5.183452129364014,8.012965202331543,-2.2881367206573486
1761396092348226800,5.996226806640625,5.224130153656006,7.979465484619141,-2.3467607498168945
1761396092367604200,6.015604248046875,5.3694939613342285,7.954938888549805,-2.2498514652252197
1761396092386982000,6.03498193359375,5.303092956542969,7.977072715759277,-2.076970100402832
1761396092406359300,6.054359375,5.1840500831604,8.005785942077637,-2.0027925968170166
1761396092425737000,6.073737060546875,5.197210788726807,8.037490844726562,-2.1343977451324463
1761396092445114400,6.0931142578125,5.377270698547363,8.01057243347168,-2.215155601501465
1761396092464492000,6.112491943359375,5.376074314117432,7.972286701202393,-2.14935302734375
1761396092483869400,6.131869384765625,5.2115678787231445,8.00518798828125,-2.1242282390594482
1761396092503247000,6.1512470703125,5.109872817993164,8.028517723083496,-2.1170499324798584
1761396092522624500,6.17062451171875,5.233103275299072,8.004590034484863,-2.2133610248565674
1761396092542002200,6.190002197265625,5.367101192474365,7.974081516265869,-2.3330020904541016
1761396092561379600,6.209379638671875,5.426921844482422,7.953144073486328,-2.3515465259552
1761396092580757200,6.22875732421875,5.18823766708374,7.975277900695801,-2.1242282390594482
1761396092600134700,6.248134765625,5.112864017486572,7.989634990692139,-2.15653133392334
1761396092619512300,6.26751220703125,5.18105936050415,7.978867053985596,-2.042872428894043
1761396092638889700,6.2868896484375,5.252245903015137,8.012965202331543,-1.9010975360870361
1761396092658267400,6.306267333984375,5.255835056304932,8.015955924987793,-1.9830517768859863
1761396092677644800,6.325644775390625,5.283352375030518,8.0291166305542,-2.191227436065674
1761396092697022500,6.3450224609375,5.38205623626709,8.004590034484863,-2.1888344287872314
1761396092716400000,6.364400146484375,5.442475318908691,7.957930088043213,-2.142174482345581
1761396092735777500,6.383777587890625,5.240880012512207,7.941180229187012,-2.163111686706543
1761396092755155000,6.403155029296875,5.140381336212158,7.970492362976074,-2.204986095428467
1761396092774532600,6.42253271484375,5.269593715667725,7.974679470062256,-2.163111686706543
1761396092793910300,6.44191015625,5.281557559967041,7.987840175628662,-2.215155601501465
1761396092813287700,6.46128759765625,5.358128070831299,7.9758758544921875,-2.2570300102233887
1761396092832665000,6.4806650390625,5.434698581695557,7.99382209777832,-2.0883359909057617
1761396092852042800,6.500042724609375,5.300102233886719,7.995018482208252,-2.1332013607025146
1761396092871420400,6.51942041015625,5.119443893432617,8.00518798828125,-2.1134605407714844
1761396092890797800,6.5387978515625,5.164907455444336,7.992027759552002,-2.0608184337615967
1761396092910175500,6.558175537109375,5.31984281539917,7.996214866638184,-2.122433662414551
1761396092929553000,6.577552978515625,5.341378211975098,8.01236629486084,-2.0997018814086914
1761396092948930600,6.5969306640625,5.349753379821777,7.99800968170166,-2.073380708694458
1761396092968308000,6.616307861328125,5.344967365264893,8.00638484954834,-2.073380708694458
1761396092987685600,6.635685546875,5.3318071365356445,7.993224143981934,-2.076970100402832
1761396093007063000,6.65506298828125,5.200799942016602,8.001599311828613,-2.1026928424835205
1761396093026440700,6.674440673828125,5.185246467590332,8.000402450561523,-2.0823538303375244
1761396093045818000,6.693818115234375,5.231308460235596,7.974081516265869,-2.135594129562378
1761396093065195800,6.71319580078125,5.260022163391113,7.9591264724731445,-2.1750757694244385
1761396093084573200,6.7325732421875,5.3347978591918945,7.942376613616943,-2.176870346069336
1761396093103950800,6.751950927734375,5.422734260559082,7.977072715759277,-2.1433708667755127
1761396093123328300,6.771328369140625,5.380859851837158,8.005785942077637,-2.1343977451324463
1761396093142706000,6.790705810546875,5.269593715667725,8.01356315612793,-2.14516544342041
1761396093162083300,6.810083251953125,5.2145586013793945,8.000402450561523,-2.1098713874816895
1761396093181461000,6.8294609375,5.205585479736328,8.00518798828125,-2.12542462348938
1761396093200838400,6.84883837890625,5.325825214385986,7.972286701202393,-2.2031915187835693
1761396093220216000,6.868216064453125,5.4520463943481445,7.944170951843262,-2.207977056503296
1761396093239593500,6.887593505859375,5.373083114624023,7.945965766906738,-2.1332013607025146
1761396093258971100,6.90697119140625,5.32821798324585,7.973483085632324,-2.0691933631896973
1761396093278348500,6.9263486328125,5.330610752105713,7.995616912841797,-2.0889341831207275
1761396093297726200,6.945726318359375,5.26600456237793,7.973483085632324,-2.159522533416748
1761396093317103600,6.965103515625,5.2145586013793945,7.95434045791626,-2.1930220127105713
1761396093336481300,6.984481201171875,5.20379114151001,7.966903209686279,-2.1505494117736816
1761396093355858700,7.003858642578125,5.207380294799805,8.00518798828125,-2.1433708667755127
1761396093375236400,7.023236328125,5.222335338592529,7.999804496765137,-2.204986095428467
1761396093394613800,7.04261376953125,5.398207664489746,7.976474285125732,-2.2959132194519043
1761396093413991400,7.061991455078125,5.525027275085449,7.947760581970215,-2.2205393314361572
1761396093433368800,7.081368896484375,5.409573554992676,7.985447406768799,-2.169692039489746
1761396093452746500,7.10074658203125,5.291727066040039,8.024331092834473,-2.1332013607025146
1761396093472124000,7.1201240234375,5.24626350402832,8.015955924987793,-2.053640127182007
1761396093491501600,7.13950146484375,5.126622676849365,7.966903209686279,-2.045863389968872
1761396093510879000,7.15887890625,5.1774702072143555,7.953144073486328,-2.1774685382843018
1761396093530256600,7.178256591796875,5.36351203918457,7.939385414123535,-2.1828525066375732
1761396093549634000,7.197634033203125,5.400600910186768,7.94297456741333,-2.191227436065674
1761396093569011700,7.21701171875,5.12602424621582,7.954938888549805,-2.1230318546295166
1761396093588389000,7.23638916015625,5.146363258361816,7.99083137512207,-2.1397817134857178
1761396093607766800,7.255766845703125,5.306682586669922,8.002197265625,-2.139183521270752
1761396093627144200,7.275144287109375,5.336592674255371,8.005785942077637,-2.1272194385528564
1761396093646521900,7.29452197265625,5.315057277679443,7.973483085632324,-2.094916343688965
1761396093665899300,7.313899169921875,5.38624382019043,7.977072715759277,-2.237887382507324
1761396093685277000,7.33327685546875,5.418546676635742,7.989634990692139,-2.266003131866455
1761396093704654300,7.352654296875,5.38205623626709,7.995018482208252,-2.2432711124420166
1761396093724032000,7.372031982421875,5.2013983726501465,7.999206066131592,-2.169093608856201
1761396093743409400,7.391409423828125,5.148158073425293,7.988438606262207,-2.1242282390594482
1761396093762787000,7.410787109375,5.26600456237793,7.9591264724731445,-2.179861545562744
1761396093782164500,7.43016455078125,5.358726501464844,7.946564197540283,-2.245065927505493
1761396093801542100,7.449542236328125,5.248058319091797,7.966304779052734,-2.203789710998535
1761396093820919600,7.46891943359375,5.172684192657471,7.976474285125732,-2.1541385650634766
1761396093840297200,7.488297119140625,5.2109694480896,7.975277900695801,-2.1266210079193115
1761396093859674600,7.507674560546875,5.310271739959717,7.95553731918335,-2.132004976272583
1761396093879052300,7.52705224609375,5.344967365264893,7.978269100189209,-2.1948165893554688
1761396093898429700,7.5464296875,5.364708423614502,7.969893932342529,-2.224726915359497
1761396093917807400,7.565807373046875,5.371288776397705,7.984251022338867,-2.2199411392211914
1761396093937184800,7.585184814453125,5.294718265533447,7.965108394622803,-2.1032910346984863
1761396093956562400,7.6045625,5.237290382385254,7.9968132972717285,-2.1403799057006836
1761396093975939800,7.62393994140625,5.233701229095459,8.001599311828613,-2.187039852142334
1761396093995317500,7.6433173828125,5.2384867668151855,7.985447406768799,-2.187039852142334
1761396094014695000,7.66269482421875,5.252843856811523,7.973483085632324,-2.218146562576294
1761396094034072600,7.682072509765625,5.295914649963379,7.957930088043213,-2.1846470832824707
1761396094053450000,7.701449951171875,5.280959606170654,7.953144073486328,-2.2331018447875977
1761396094072827600,7.72082763671875,5.249852657318115,7.9591264724731445,-2.235494613647461
1761396094092205000,7.740205078125,5.280959606170654,7.941180229187012,-2.2121646404266357
1761396094111582700,7.759582763671875,5.291727066040039,7.95553731918335,-2.2713868618011475
1761396094130960100,7.778960205078125,5.352744102478027,7.968099594116211,-2.245065927505493
1761396094150337800,7.798337890625,5.31984281539917,7.960322856903076,-2.173879384994507
1761396094169715200,7.817715087890625,5.298307418823242,7.979465484619141,-2.20737886428833
1761396094189092900,7.8370927734375,5.325825214385986,7.997411251068115,-2.1020946502685547
1761396094208470300,7.85647021484375,5.13021183013916,7.995616912841797,-2.025524377822876
1761396094227848000,7.875847900390625,4.922634601593018,8.01775074005127,-2.11824631690979
1761396094247225300,7.895225341796875,5.337789058685303,7.894520282745361,-2.3060827255249023
1761396094266603000,7.91460302734375,5.602794170379639,7.856235027313232,-2.507079839706421
1761396094285980400,7.93398046875,5.514857769012451,7.89631462097168,-2.306680917739868
1761396094305358000,7.953358154296875,5.385645389556885,7.942376613616943,-2.015354871749878
1761396094324735500,7.972735595703125,5.358726501464844,7.937591075897217,-2.117648124694824
1761396094344113200,7.992113037109375,5.136792182922363,7.959724426269531,-2.190629243850708
1761396094363490600,8.011490478515626,5.373083114624023,7.939385414123535,-2.3054845333099365
1761396094382868200,8.0308681640625,5.556732177734375,7.9591264724731445,-2.4610180854797363
1761396094402245600,8.05024560546875,5.535196781158447,7.922037601470947,-2.2707886695861816
1761396094421623300,8.069623291015626,5.394618511199951,7.932805061340332,-2.035095691680908
1761396094441000700,8.089000732421875,5.099703311920166,7.953742504119873,-2.0985054969787598
1761396094460378000,8.108378173828125,5.035097122192383,7.9244303703308105,-2.342573404312134
1761396094479755800,8.127755859375,5.296513080596924,7.956135272979736,-2.3192434310913086
1761396094499133200,8.14713330078125,5.565107345581055,7.899305820465088,-2.134995937347412
1761396094518510800,8.1665107421875,5.539982795715332,7.908876895904541,-2.1990039348602295
1761396094537888500,8.185888427734374,5.277370452880859,7.934599876403809,-2.32761812210083
1761396094557266000,8.205265869140625,5.257031440734863,7.913064479827881,-2.2468605041503906
1761396094576643300,8.224643310546876,5.328815937042236,7.915457248687744,-2.32761812210083
1761396094596021000,8.24402099609375,5.438287734985352,7.889734268188477,-2.4197418689727783
1761396094615398400,8.2633984375,5.2869415283203125,7.947760581970215,-2.383251428604126
1761396094634776000,8.282776123046874,5.116453170776367,8.002197265625,-2.489732027053833
1761396094654153500,8.302153564453125,5.402993679046631,7.8664045333862305,-2.490330219268799
1761396094673531100,8.32153125,5.419743061065674,7.8526458740234375,-2.383849620819092
1761396094692908500,8.340908447265624,5.312066078186035,7.837092399597168,-2.390429735183716
1761396094712286200,8.3602861328125,5.426323413848877,7.87059211730957,-2.3946173191070557
1761396094731663600,8.37966357421875,5.352146148681641,7.856235027313232,-2.3294129371643066
1761396094751041300,8.399041259765625,5.00578498840332,7.837690353393555,-2.438286304473877
1761396094770418700,8.418418701171875,5.064409255981445,7.913064479827881,-2.3952155113220215
1761396094789796400,8.43779638671875,5.268397331237793,7.884350776672363,-2.256431818008423
1761396094809173800,8.457173828125,5.4765729904174805,7.872984886169434,-2.3431715965270996
1761396094828551400,8.476551513671875,5.5621161460876465,7.860422611236572,-2.3994028568267822
1761396094847928800,8.4959287109375,5.453242778778076,7.8664045333862305,-2.383251428604126
1761396094867306500,8.515306396484375,5.251647472381592,7.875377655029297,-2.478964328765869
1761396094886684000,8.534683837890626,5.386841773986816,7.891529083251953,-2.5399811267852783
1761396094906061600,8.5540615234375,5.303092956542969,7.960920810699463,-2.290529489517212
1761396094925439000,8.57343896484375,5.140381336212158,7.94297456741333,-2.111067771911621
1761396094944816600,8.592816650390626,5.288137912750244,7.908278942108154,-2.3856441974639893
1761396094964194000,8.612194091796875,5.5692949295043945,7.868797302246094,-2.455035924911499
1761396094983571500,8.631571533203125,5.664409637451172,7.812565803527832,-2.5704896450042725
1761396095002949000,8.65094921875,5.337191104888916,7.808976650238037,-2.5405795574188232
1761396095022326800,8.670326904296875,4.807180881500244,7.87059211730957,-2.3814568519592285
1761396095041704200,8.6897041015625,5.102694511413574,7.890930652618408,-2.1852452754974365
1761396095061081600,8.70908154296875,5.816353797912598,7.8454670906066895,-2.4029922485351562
1761396095080459300,8.728459228515625,6.542575359344482,7.697112083435059,-2.4508485794067383
1761396095099836700,8.747836669921876,5.72123908996582,7.972286701202393,-2.7284159660339355
1761396095119214300,8.76721435546875,4.7234320640563965,7.897511005401611,-2.7768707275390625
1761396095138591700,8.786591796875,4.337589263916016,7.99800968170166,-2.4747767448425293
1761396095157969400,8.805969482421874,4.976472854614258,7.910073280334473,-2.3270199298858643
1761396095177346800,8.825346923828125,5.015356063842773,8.017151832580566,-2.215155601501465
1761396095196724500,8.844724365234375,5.057828903198242,8.053643226623535,-2.191227436065674
